%time,field.header.seq,field.header.stamp,field.header.frame_id,field.orientation.x,field.orientation.y,field.orientation.z,field.orientation.w,field.orientation_covariance0,field.orientation_covariance1,field.orientation_covariance2,field.orientation_covariance3,field.orientation_covariance4,field.orientation_covariance5,field.orientation_covariance6,field.orientation_covariance7,field.orientation_covariance8,field.angular_velocity.x,field.angular_velocity.y,field.angular_velocity.z,field.angular_velocity_covariance0,field.angular_velocity_covariance1,field.angular_velocity_covariance2,field.angular_velocity_covariance3,field.angular_velocity_covariance4,field.angular_velocity_covariance5,field.angular_velocity_covariance6,field.angular_velocity_covariance7,field.angular_velocity_covariance8,field.linear_acceleration.x,field.linear_acceleration.y,field.linear_acceleration.z,field.linear_acceleration_covariance0,field.linear_acceleration_covariance1,field.linear_acceleration_covariance2,field.linear_acceleration_covariance3,field.linear_acceleration_covariance4,field.linear_acceleration_covariance5,field.linear_acceleration_covariance6,field.linear_acceleration_covariance7,field.linear_acceleration_covariance8
1463564109737923411,415,1463564109735879567,,2.91437363625,3.85288906097,161.304534912,0.0101150004193,1.0,0.0,0.0,0.0,1.0,0.0,0.0,0.0,1.0,25.3048782349,1.76829278469,-16.4634151459,1.0,0.0,0.0,0.0,1.0,0.0,0.0,0.0,1.0,-0.105344873047,0.742202514648,-8.37970522602,1.0,0.0,0.0,0.0,1.0,0.0,0.0,0.0,1.0
1463564109749582949,416,1463564109746043214,,3.10296821594,3.88079881668,161.110717773,0.0101199997589,1.0,0.0,0.0,0.0,1.0,0.0,0.0,0.0,1.0,27.9268302917,6.0365858078,-14.2682924271,1.0,0.0,0.0,0.0,1.0,0.0,0.0,0.0,1.0,-0.0383072265625,0.627280834961,-8.29351396626,1.0,0.0,0.0,0.0,1.0,0.0,0.0,0.0,1.0
1463564109760335901,417,1463564109756411855,,3.31115603447,3.95366239548,160.946762085,0.010095000267,1.0,0.0,0.0,0.0,1.0,0.0,0.0,0.0,1.0,29.6951236725,10.4878053665,-11.6463422775,1.0,0.0,0.0,0.0,1.0,0.0,0.0,0.0,1.0,-0.0191536132812,0.588973571866,-8.22168850098,1.0,0.0,0.0,0.0,1.0,0.0,0.0,0.0,1.0
1463564109769342031,418,1463564109766400663,,3.5424683094,4.07846021652,160.816482544,0.0100910002366,1.0,0.0,0.0,0.0,1.0,0.0,0.0,0.0,1.0,30.4878044128,13.7195129395,-8.65853691101,1.0,0.0,0.0,0.0,1.0,0.0,0.0,0.0,1.0,0.287304199219,0.363918652344,-8.13070883789,1.0,0.0,0.0,0.0,1.0,0.0,0.0,0.0,1.0
1463564109782888804,419,1463564109776277809,,3.78426933289,4.24742603302,160.714019775,0.0101030003279,1.0,0.0,0.0,0.0,1.0,0.0,0.0,0.0,1.0,30.7317066193,16.2195110321,-6.15853643417,1.0,0.0,0.0,0.0,1.0,0.0,0.0,0.0,1.0,0.598550451572,0.248996972656,-8.2504189209,1.0,0.0,0.0,0.0,1.0,0.0,0.0,0.0,1.0
1463564109790831477,420,1463564109786375728,,4.03471565247,4.44552183151,160.643356323,0.0101039996371,1.0,0.0,0.0,0.0,1.0,0.0,0.0,0.0,1.0,30.3048782349,17.134147644,-3.23170733452,1.0,0.0,0.0,0.0,1.0,0.0,0.0,0.0,1.0,0.9193734375,0.0574608398438,-8.09719001465,1.0,0.0,0.0,0.0,1.0,0.0,0.0,0.0,1.0
1463564109799740996,421,1463564109796565729,,4.29342365265,4.66794395447,160.609649658,0.0100990002975,1.0,0.0,0.0,0.0,1.0,0.0,0.0,0.0,1.0,28.7804889679,16.9512195587,0.18292683363,1.0,0.0,0.0,0.0,1.0,0.0,0.0,0.0,1.0,1.38384855957,-0.282515795898,-8.2264769043,1.0,0.0,0.0,0.0,1.0,0.0,0.0,0.0,1.0
1463564109808973994,422,1463564109806646878,,4.53034448624,4.89667081833,160.608383179,0.0101659996435,1.0,0.0,0.0,0.0,1.0,0.0,0.0,0.0,1.0,25.7926845551,15.9146347046,3.35365867615,1.0,0.0,0.0,0.0,1.0,0.0,0.0,0.0,1.0,1.67115275879,-0.378283862305,-8.17859287109,1.0,0.0,0.0,0.0,1.0,0.0,0.0,0.0,1.0
1463564109819135923,423,1463564109816931251,,4.72682380676,5.10276603699,160.633453369,0.010095000267,1.0,0.0,0.0,0.0,1.0,0.0,0.0,0.0,1.0,22.6219520569,13.5975618362,6.15853643417,1.0,0.0,0.0,0.0,1.0,0.0,0.0,0.0,1.0,1.80043964844,-0.282515795898,-8.30787917622,1.0,0.0,0.0,0.0,1.0,0.0,0.0,0.0,1.0
1463564109829086920,424,1463564109826849957,,4.90843296051,5.28428888321,160.687393188,0.0100469999015,1.0,0.0,0.0,0.0,1.0,0.0,0.0,0.0,1.0,19.2682914734,11.4024391174,9.02439117432,1.0,0.0,0.0,0.0,1.0,0.0,0.0,0.0,1.0,1.85790048828,-0.569819995117,-8.34618640278,1.0,0.0,0.0,0.0,1.0,0.0,0.0,0.0,1.0
1463564109839110363,425,1463564109836953085,,5.05004549026,5.44859886169,160.76890564,0.0101140001789,1.0,0.0,0.0,0.0,1.0,0.0,0.0,0.0,1.0,14.0853662491,9.39024448395,11.7682924271,1.0,0.0,0.0,0.0,1.0,0.0,0.0,0.0,1.0,1.95366855469,-0.723048901367,-8.33182119282,1.0,0.0,0.0,0.0,1.0,0.0,0.0,0.0,1.0
1463564109850029091,426,1463564109847004444,,5.13753843307,5.59253120422,160.870056152,0.0100790001452,1.0,0.0,0.0,0.0,1.0,0.0,0.0,0.0,1.0,8.90243911743,7.68292665482,13.9024391174,1.0,0.0,0.0,0.0,1.0,0.0,0.0,0.0,1.0,2.03507141113,-0.713472094727,-8.61433815776,1.0,0.0,0.0,0.0,1.0,0.0,0.0,0.0,1.0
1463564109865999122,427,1463564109857122884,,5.20172643661,5.70974731445,160.9818573,0.0101640000939,1.0,0.0,0.0,0.0,1.0,0.0,0.0,0.0,1.0,4.51219558716,5.97560977936,14.8170728683,1.0,0.0,0.0,0.0,1.0,0.0,0.0,0.0,1.0,1.95845695801,-1.0534486574,-8.82981572266,1.0,0.0,0.0,0.0,1.0,0.0,0.0,0.0,1.0
1463564109878188853,428,1463564109867219449,,5.18530988693,5.8086810112,161.093032837,0.0100279999897,1.0,0.0,0.0,0.0,1.0,0.0,0.0,0.0,1.0,-0.243902444839,5.12195110321,15.3048791885,1.0,0.0,0.0,0.0,1.0,0.0,0.0,0.0,1.0,1.95366855469,-0.574608398438,-9.36132790669,1.0,0.0,0.0,0.0,1.0,0.0,0.0,0.0,1.0
1463564109886246262,429,1463564109877592413,,5.15452766418,5.89132404327,161.206268311,0.0101319998503,1.0,0.0,0.0,0.0,1.0,0.0,0.0,0.0,1.0,-3.41463422775,5.48780488968,15.1829271317,1.0,0.0,0.0,0.0,1.0,0.0,0.0,0.0,1.0,1.5562310791,-0.837970581055,-9.02614025879,1.0,0.0,0.0,0.0,1.0,0.0,0.0,0.0,1.0
1463564109890565713,430,1463564109887755174,,5.09098911285,5.99820899963,161.312423706,0.0100840004161,1.0,0.0,0.0,0.0,1.0,0.0,0.0,0.0,1.0,-7.25609779358,5.12195110321,14.5121955872,1.0,0.0,0.0,0.0,1.0,0.0,0.0,0.0,1.0,2.10689731481,-0.972045874023,-9.36611631001,1.0,0.0,0.0,0.0,1.0,0.0,0.0,0.0,1.0
1463564109902446078,431,1463564109898230843,,4.9748840332,6.09421253204,161.409942627,0.0101870000362,1.0,0.0,0.0,0.0,1.0,0.0,0.0,0.0,1.0,-12.2560977936,4.14634132385,13.658536911,1.0,0.0,0.0,0.0,1.0,0.0,0.0,0.0,1.0,2.16435844691,-1.00077629395,-9.7827079834,1.0,0.0,0.0,0.0,1.0,0.0,0.0,0.0,1.0
1463564109921700749,432,1463564109907660971,,4.82632446289,6.17823505402,161.492797852,0.0100159998983,1.0,0.0,0.0,0.0,1.0,0.0,0.0,0.0,1.0,-16.0975608826,2.74390244484,12.4390249252,1.0,0.0,0.0,0.0,1.0,0.0,0.0,0.0,1.0,2.28885678711,-1.10612116699,-10.060435376,1.0,0.0,0.0,0.0,1.0,0.0,0.0,0.0,1.0
1463564109921953762,433,1463564109918150962,,4.62424468994,6.24872922897,161.563568115,0.010095000267,1.0,0.0,0.0,0.0,1.0,0.0,0.0,0.0,1.0,-19.7560977936,1.34146344662,11.4634151459,1.0,0.0,0.0,0.0,1.0,0.0,0.0,0.0,1.0,2.31279880371,-0.833182177734,-10.2184526855,1.0,0.0,0.0,0.0,1.0,0.0,0.0,0.0,1.0
1463564109930869374,434,1463564109928259767,,4.3795003891,6.29944038391,161.616790771,0.0101410001516,1.0,0.0,0.0,0.0,1.0,0.0,0.0,0.0,1.0,-22.5609760284,0.12195122242,9.93902492523,1.0,0.0,0.0,0.0,1.0,0.0,0.0,0.0,1.0,2.22660754395,-0.60812722168,-10.5919481445,1.0,0.0,0.0,0.0,1.0,0.0,0.0,0.0,1.0
1463564109942626410,435,1463564109938287637,,4.11977529526,6.33245992661,161.65953064,0.0100739998743,1.0,0.0,0.0,0.0,1.0,0.0,0.0,0.0,1.0,-24.2073173523,-1.15853655338,9.02439117432,1.0,0.0,0.0,0.0,1.0,0.0,0.0,0.0,1.0,2.13562802699,-0.584185168546,-10.6158901611,1.0,0.0,0.0,0.0,1.0,0.0,0.0,0.0,1.0
1463564109950820065,436,1463564109948421128,,3.85307908058,6.34457302094,161.698165894,0.0101159997284,1.0,0.0,0.0,0.0,1.0,0.0,0.0,0.0,1.0,-25.9146347046,-3.04878044128,8.59756088257,1.0,0.0,0.0,0.0,1.0,0.0,0.0,0.0,1.0,2.09732050817,-0.76135612793,-10.6206785645,1.0,0.0,0.0,0.0,1.0,0.0,0.0,0.0,1.0
1463564109962478197,437,1463564109958691803,,3.56437015533,6.33767747879,161.744400024,0.0100910002366,1.0,0.0,0.0,0.0,1.0,0.0,0.0,0.0,1.0,-28.3536586761,-4.08536577225,9.39024448395,1.0,0.0,0.0,0.0,1.0,0.0,0.0,0.0,1.0,2.00634099121,-0.756567724609,-10.9798088135,1.0,0.0,0.0,0.0,1.0,0.0,0.0,0.0,1.0
1463564109972017489,438,1463564109968678216,,3.24992656708,6.30679798126,161.801574707,0.0101239997894,1.0,0.0,0.0,0.0,1.0,0.0,0.0,0.0,1.0,-30.0000019073,-5.54878091812,10.6097564697,1.0,0.0,0.0,0.0,1.0,0.0,0.0,0.0,1.0,1.87705410156,-0.531512805087,-11.2575362061,1.0,0.0,0.0,0.0,1.0,0.0,0.0,0.0,1.0
1463564109981189447,439,1463564109978745199,,2.92427015305,6.25547122955,161.872879028,0.0101110003889,1.0,0.0,0.0,0.0,1.0,0.0,0.0,0.0,1.0,-29.9390258789,-7.01219511032,12.1951217651,1.0,0.0,0.0,0.0,1.0,0.0,0.0,0.0,1.0,1.82917006836,-0.201112939453,-11.6741272949,1.0,0.0,0.0,0.0,1.0,0.0,0.0,0.0,1.0
1463564109991985470,440,1463564109988727810,,2.60369181633,6.18944978714,161.966659546,0.0100609995425,1.0,0.0,0.0,0.0,1.0,0.0,0.0,0.0,1.0,-28.6585388184,-8.04878044128,14.5731706619,1.0,0.0,0.0,0.0,1.0,0.0,0.0,0.0,1.0,1.7908628418,0.114921679688,-12.0332575439,1.0,0.0,0.0,0.0,1.0,0.0,0.0,0.0,1.0
1463564110008437727,441,1463564109999078118,,2.31108498573,6.1090426445,162.10357666,0.0101239997894,1.0,0.0,0.0,0.0,1.0,0.0,0.0,0.0,1.0,-26.5853652954,-8.71951198578,18.658536911,1.0,0.0,0.0,0.0,1.0,0.0,0.0,0.0,1.0,1.69988317871,0.0861912597656,-12.3971761963,1.0,0.0,0.0,0.0,1.0,0.0,0.0,0.0,1.0
1463564110020244606,442,1463564110011633983,,1.99288034439,6.01312589645,162.349945068,0.0120179997757,1.0,0.0,0.0,0.0,1.0,0.0,0.0,0.0,1.0,-25.0609760284,-8.71951198578,25.4878044128,1.0,0.0,0.0,0.0,1.0,0.0,0.0,0.0,1.0,1.74776721191,0.110133276367,-12.6365963623,1.0,0.0,0.0,0.0,1.0,0.0,0.0,0.0,1.0
1463564110021332490,443,1463564110019062299,,1.78356230259,5.94583177567,162.54750061,0.00815500039607,1.0,0.0,0.0,0.0,1.0,0.0,0.0,0.0,1.0,-24.2682933807,-8.35365867615,29.1463413239,1.0,0.0,0.0,0.0,1.0,0.0,0.0,0.0,1.0,1.59932670898,0.258573779297,-12.7323644287,1.0,0.0,0.0,0.0,1.0,0.0,0.0,0.0,1.0
1463564110036806860,444,1463564110029564582,,1.53359282017,5.87497138977,162.852294922,0.0101309996098,1.0,0.0,0.0,0.0,1.0,0.0,0.0,0.0,1.0,-22.8658542633,-7.98780536652,35.0000038147,1.0,0.0,0.0,0.0,1.0,0.0,0.0,0.0,1.0,1.80522805176,0.531512805087,-12.737152832,1.0,0.0,0.0,0.0,1.0,0.0,0.0,0.0,1.0
1463564110042498770,445,1463564110040054990,,1.30307936668,5.80487823486,163.217819214,0.0105769997463,1.0,0.0,0.0,0.0,1.0,0.0,0.0,0.0,1.0,-19.7560977936,-7.86585378647,39.4512214661,1.0,0.0,0.0,0.0,1.0,0.0,0.0,0.0,1.0,1.85790048828,0.742202514648,-12.8472861084,1.0,0.0,0.0,0.0,1.0,0.0,0.0,0.0,1.0
1463564110055382282,446,1463564110049530795,,1.1217250824,5.73201847076,163.580032349,0.00965999998152,1.0,0.0,0.0,0.0,1.0,0.0,0.0,0.0,1.0,-15.7926826477,-7.80487823486,42.4390258789,1.0,0.0,0.0,0.0,1.0,0.0,0.0,0.0,1.0,1.60890351563,1.07260241682,-12.9047469482,1.0,0.0,0.0,0.0,1.0,0.0,0.0,0.0,1.0
1463564110066300438,447,1463564110059809803,,0.9850025177,5.6424407959,163.979858398,0.0100589999929,1.0,0.0,0.0,0.0,1.0,0.0,0.0,0.0,1.0,-11.5243911743,-8.29268264771,44.5731735229,1.0,0.0,0.0,0.0,1.0,0.0,0.0,0.0,1.0,1.39821376953,0.952892260742,-13.125013501,1.0,0.0,0.0,0.0,1.0,0.0,0.0,0.0,1.0
1463564110073523916,448,1463564110069365084,,0.890795588493,5.54218769073,164.393615723,0.0100990002975,1.0,0.0,0.0,0.0,1.0,0.0,0.0,0.0,1.0,-6.95121955872,-8.04878044128,45.7926826477,1.0,0.0,0.0,0.0,1.0,0.0,0.0,0.0,1.0,1.06302561017,1.06302561017,-13.0819178711,1.0,0.0,0.0,0.0,1.0,0.0,0.0,0.0,1.0
1463564110084829351,449,1463564110079950230,,0.869720518589,5.42197751999,164.804046631,0.0101049998775,1.0,0.0,0.0,0.0,1.0,0.0,0.0,0.0,1.0,-1.46341466904,-7.80487823486,45.2439041138,1.0,0.0,0.0,0.0,1.0,0.0,0.0,0.0,1.0,0.521935925381,0.651222851562,-13.2399351807,1.0,0.0,0.0,0.0,1.0,0.0,0.0,0.0,1.0
1463564110106663892,450,1463564110090007162,,0.898608565331,5.28390741348,165.201187134,0.0100739998743,1.0,0.0,0.0,0.0,1.0,0.0,0.0,0.0,1.0,2.74390244484,-7.07317113876,43.9634170532,1.0,0.0,0.0,0.0,1.0,0.0,0.0,0.0,1.0,-0.105344873047,0.430956298828,-13.2255699707,1.0,0.0,0.0,0.0,1.0,0.0,0.0,0.0,1.0
1463564110106704256,451,1463564110100236276,,0.98606133461,5.14431428909,165.578445435,0.0101960003376,1.0,0.0,0.0,0.0,1.0,0.0,0.0,0.0,1.0,7.25609779358,-4.87804889679,41.4024391174,1.0,0.0,0.0,0.0,1.0,0.0,0.0,0.0,1.0,-0.632069238281,0.067037651051,-12.8520745117,1.0,0.0,0.0,0.0,1.0,0.0,0.0,0.0,1.0
1463564110117095969,452,1463564110109986864,,1.1161904335,5.01869058609,165.91456604,0.0100339995697,1.0,0.0,0.0,0.0,1.0,0.0,0.0,0.0,1.0,10.3048782349,-2.07317066193,37.7439041138,1.0,0.0,0.0,0.0,1.0,0.0,0.0,0.0,1.0,-0.981622680664,-0.330399829102,-12.1338140137,1.0,0.0,0.0,0.0,1.0,0.0,0.0,0.0,1.0
1463564110127530755,453,1463564110120561020,,1.27498733997,4.92818975449,166.22114563,0.0100880004466,1.0,0.0,0.0,0.0,1.0,0.0,0.0,0.0,1.0,10.1219511032,0.975609779358,34.3292694092,1.0,0.0,0.0,0.0,1.0,0.0,0.0,0.0,1.0,-0.837970581055,-0.995987890625,-11.3006318359,1.0,0.0,0.0,0.0,1.0,0.0,0.0,0.0,1.0
1463564110144890849,454,1463564110130284264,,1.40486824512,4.87303066254,166.510620117,0.0100959995762,1.0,0.0,0.0,0.0,1.0,0.0,0.0,0.0,1.0,7.31707334518,3.53658556938,32.5609779358,1.0,0.0,0.0,0.0,1.0,0.0,0.0,0.0,1.0,-0.622492431641,-0.995987890625,-10.7308118408,1.0,0.0,0.0,0.0,1.0,0.0,0.0,0.0,1.0
1463564110144930171,455,1463564110140801339,,1.52576172352,4.84847021103,166.786941528,0.0101020000875,1.0,0.0,0.0,0.0,1.0,0.0,0.0,0.0,1.0,5.06097555161,4.57317066193,31.0975627899,1.0,0.0,0.0,0.0,1.0,0.0,0.0,0.0,1.0,-0.229843359375,-1.20667770978,-9.90241806641,1.0,0.0,0.0,0.0,1.0,0.0,0.0,0.0,1.0
1463564110153235959,456,1463564110150490626,,1.60335409641,4.84418201447,167.056915283,0.0100729996338,1.0,0.0,0.0,0.0,1.0,0.0,0.0,0.0,1.0,0.670731723309,6.15853643417,30.4878044128,1.0,0.0,0.0,0.0,1.0,0.0,0.0,0.0,1.0,-0.143652099609,-1.17315874041,-9.22725319824,1.0,0.0,0.0,0.0,1.0,0.0,0.0,0.0,1.0
1463564110172833850,457,1463564110166541177,,1.63918316364,4.8587975502,167.32901001,0.0101180002093,1.0,0.0,0.0,0.0,1.0,0.0,0.0,0.0,1.0,-5.24390268326,5.91463422775,30.4268321991,1.0,0.0,0.0,0.0,1.0,0.0,0.0,0.0,1.0,0.191536132812,-1.37427175293,-8.58081933452,1.0,0.0,0.0,0.0,1.0,0.0,0.0,0.0,1.0
1463564110172896660,458,1463564110170322208,,1.63488459587,4.87390232086,167.606491089,0.0100859999657,1.0,0.0,0.0,0.0,1.0,0.0,0.0,0.0,1.0,-7.25609779358,5.54878091812,31.2195129395,1.0,0.0,0.0,0.0,1.0,0.0,0.0,0.0,1.0,0.258573779297,-1.04387185076,-8.40364724263,1.0,0.0,0.0,0.0,1.0,0.0,0.0,0.0,1.0
1463564110192492311,459,1463564110180823085,,1.55957102776,4.88501405716,167.883483887,0.010150000453,1.0,0.0,0.0,0.0,1.0,0.0,0.0,0.0,1.0,-11.7073173523,3.29268312454,31.2804889679,1.0,0.0,0.0,0.0,1.0,0.0,0.0,0.0,1.0,0.550666381836,-0.679953271484,-8.63828017437,1.0,0.0,0.0,0.0,1.0,0.0,0.0,0.0,1.0
1463564110194205957,460,1463564110191601714,,1.46598160267,4.85498428345,168.201919556,0.0110250003636,1.0,0.0,0.0,0.0,1.0,0.0,0.0,0.0,1.0,-15.4268302917,-0.426829278469,32.7439041138,1.0,0.0,0.0,0.0,1.0,0.0,0.0,0.0,1.0,0.550666381836,-1.08696755371,-8.86812294922,1.0,0.0,0.0,0.0,1.0,0.0,0.0,0.0,1.0
1463564110206659743,461,1463564110201436361,,1.32139801979,4.79552555084,168.470703125,0.00914299953729,1.0,0.0,0.0,0.0,1.0,0.0,0.0,0.0,1.0,-19.6341457367,-3.47560977936,33.5975608826,1.0,0.0,0.0,0.0,1.0,0.0,0.0,0.0,1.0,0.426167895508,-0.574608398438,-8.90164177246,1.0,0.0,0.0,0.0,1.0,0.0,0.0,0.0,1.0
1463564110214573459,462,1463564110211125544,,1.14813601971,4.68514585495,168.783920288,0.0102479998022,1.0,0.0,0.0,0.0,1.0,0.0,0.0,0.0,1.0,-22.0731716156,-6.34146356583,34.6951217651,1.0,0.0,0.0,0.0,1.0,0.0,0.0,0.0,1.0,0.191536132812,-0.780509741211,-9.18415756836,1.0,0.0,0.0,0.0,1.0,0.0,0.0,0.0,1.0
1463564110296860216,463,1463564110221660430,,0.93701094389,4.54682350159,169.094741821,0.00998600013554,1.0,0.0,0.0,0.0,1.0,0.0,0.0,0.0,1.0,-25.1219520569,-8.10975551605,35.3658561707,1.0,0.0,0.0,0.0,1.0,0.0,0.0,0.0,1.0,-0.0574608398438,-0.584185168546,-9.55286520855,1.0,0.0,0.0,0.0,1.0,0.0,0.0,0.0,1.0
1463564110297131249,464,1463564110231530025,,0.694194734097,4.37737083435,169.414093018,0.0101979998872,1.0,0.0,0.0,0.0,1.0,0.0,0.0,0.0,1.0,-26.9512195587,-9.63414573669,35.6097564697,1.0,0.0,0.0,0.0,1.0,0.0,0.0,0.0,1.0,-0.320823022461,-0.430956298828,-9.85932243652,1.0,0.0,0.0,0.0,1.0,0.0,0.0,0.0,1.0
1463564110299244414,465,1463564110241739140,,0.43639934063,4.21159029007,169.716415405,0.00997199956328,1.0,0.0,0.0,0.0,1.0,0.0,0.0,0.0,1.0,-27.5,-10.1829271317,34.6951217651,1.0,0.0,0.0,0.0,1.0,0.0,0.0,0.0,1.0,-0.282515795898,-0.15801730957,-9.95030209961,1.0,0.0,0.0,0.0,1.0,0.0,0.0,0.0,1.0
1463564110299723305,466,1463564110252300380,,0.175248607993,4.04939603806,170.019104004,0.010377000086,1.0,0.0,0.0,0.0,1.0,0.0,0.0,0.0,1.0,-26.4024391174,-10.2439022064,33.5365867615,1.0,0.0,0.0,0.0,1.0,0.0,0.0,0.0,1.0,-0.15322890625,-0.0718260498047,-10.180145459,1.0,0.0,0.0,0.0,1.0,0.0,0.0,0.0,1.0
1463564110300036160,467,1463564110262016801,,-0.0732739269733,3.890822649,170.288253784,0.0101789999753,1.0,0.0,0.0,0.0,1.0,0.0,0.0,0.0,1.0,-24.5121955872,-10.3658542633,30.8536605835,1.0,0.0,0.0,0.0,1.0,0.0,0.0,0.0,1.0,-0.172382519531,0.129286889648,-10.0221281494,1.0,0.0,0.0,0.0,1.0,0.0,0.0,0.0,1.0
1463564110300332245,468,1463564110271784159,,-0.299116253853,3.74847602844,170.533233643,0.00992299988866,1.0,0.0,0.0,0.0,1.0,0.0,0.0,0.0,1.0,-21.6463432312,-10.1219511032,29.1463413239,1.0,0.0,0.0,0.0,1.0,0.0,0.0,0.0,1.0,-0.0430956298828,0.349553442383,-9.8784760498,1.0,0.0,0.0,0.0,1.0,0.0,0.0,0.0,1.0
1463564110300380056,469,1463564110281500112,,-0.501926362514,3.61122632027,170.753631592,0.0100180003792,1.0,0.0,0.0,0.0,1.0,0.0,0.0,0.0,1.0,-17.6829280853,-9.69512176514,26.5243911743,1.0,0.0,0.0,0.0,1.0,0.0,0.0,0.0,1.0,-0.0430956298828,0.598550451572,-9.82580361328,1.0,0.0,0.0,0.0,1.0,0.0,0.0,0.0,1.0
1463564110300693067,470,1463564110291918283,,-0.653780639172,3.49179291725,170.944000244,0.0100119998679,1.0,0.0,0.0,0.0,1.0,0.0,0.0,0.0,1.0,-12.5,-8.23170757294,23.5365848541,1.0,0.0,0.0,0.0,1.0,0.0,0.0,0.0,1.0,-0.0191536132812,0.593762048251,-9.55286520855,1.0,0.0,0.0,0.0,1.0,0.0,0.0,0.0,1.0
1463564110309393687,471,1463564110303654279,,-0.809539914131,3.37043166161,171.127197266,0.0117340004072,1.0,0.0,0.0,0.0,1.0,0.0,0.0,0.0,1.0,-9.14634132385,-5.48780488968,20.2439022064,1.0,0.0,0.0,0.0,1.0,0.0,0.0,0.0,1.0,-0.225054956055,0.785298144531,-9.08838950195,1.0,0.0,0.0,0.0,1.0,0.0,0.0,0.0,1.0
1463564110346964310,472,1463564110312151519,,-0.891016185284,3.298630476,171.256347656,0.00852300040424,1.0,0.0,0.0,0.0,1.0,0.0,0.0,0.0,1.0,-5.30487823486,-2.68292689323,19.817073822,1.0,0.0,0.0,0.0,1.0,0.0,0.0,0.0,1.0,-0.392649072266,0.823605371094,-9.10275471191,1.0,0.0,0.0,0.0,1.0,0.0,0.0,0.0,1.0
1463564110349298718,473,1463564110324162298,,-0.946721196175,3.25344204903,171.382995605,0.0100729996338,1.0,0.0,0.0,0.0,1.0,0.0,0.0,0.0,1.0,-2.19512200356,1.64634156227,17.2560977936,1.0,0.0,0.0,0.0,1.0,0.0,0.0,0.0,1.0,-0.445321508789,0.636857641602,-8.77235488281,1.0,0.0,0.0,0.0,1.0,0.0,0.0,0.0,1.0
1463564110349349497,474,1463564110332182366,,-0.976302325726,3.23479175568,171.505859375,0.0101140001789,1.0,0.0,0.0,0.0,1.0,0.0,0.0,0.0,1.0,-0.548780500889,4.63414621353,16.8292694092,1.0,0.0,0.0,0.0,1.0,0.0,0.0,0.0,1.0,-0.493205541992,0.478840332031,-8.5520889146,1.0,0.0,0.0,0.0,1.0,0.0,0.0,0.0,1.0
1463564110350099318,475,1463564110342461062,,-1.0001231432,3.27528333664,171.616790771,0.0101049998775,1.0,0.0,0.0,0.0,1.0,0.0,0.0,0.0,1.0,-0.12195122242,8.90243911743,15.7317075729,1.0,0.0,0.0,0.0,1.0,0.0,0.0,0.0,1.0,-0.248996972656,0.445321508789,-8.42758925923,1.0,0.0,0.0,0.0,1.0,0.0,0.0,0.0,1.0
1463564110398362687,476,1463564110352375655,,-1.01029527187,3.35088038445,171.720031738,0.0100849997252,1.0,0.0,0.0,0.0,1.0,0.0,0.0,0.0,1.0,1.58536589146,11.2195119858,15.0609760284,1.0,0.0,0.0,0.0,1.0,0.0,0.0,0.0,1.0,-0.067037651051,0.502782348633,-8.51857009136,1.0,0.0,0.0,0.0,1.0,0.0,0.0,0.0,1.0
1463564110398739238,477,1463564110363040329,,-1.03781807423,3.4572057724,171.816360474,0.010098000057,1.0,0.0,0.0,0.0,1.0,0.0,0.0,0.0,1.0,2.74390244484,12.9878053665,14.5731706619,1.0,0.0,0.0,0.0,1.0,0.0,0.0,0.0,1.0,0.138863696289,0.962469067383,-8.74841286621,1.0,0.0,0.0,0.0,1.0,0.0,0.0,0.0,1.0
1463564110398784445,478,1463564110372619307,,-1.02351403236,3.56884145737,171.909469604,0.0100969998166,1.0,0.0,0.0,0.0,1.0,0.0,0.0,0.0,1.0,4.87804889679,12.9878053665,14.1463422775,1.0,0.0,0.0,0.0,1.0,0.0,0.0,0.0,1.0,0.234631762695,0.641646044922,-8.5999729478,1.0,0.0,0.0,0.0,1.0,0.0,0.0,0.0,1.0
1463564110399113289,479,1463564110383228410,,-0.9983522892,3.67349362373,172.000289917,0.0100959995762,1.0,0.0,0.0,0.0,1.0,0.0,0.0,0.0,1.0,5.73170757294,12.5,13.9024391174,1.0,0.0,0.0,0.0,1.0,0.0,0.0,0.0,1.0,0.229843359375,0.627280834961,-8.90643017578,1.0,0.0,0.0,0.0,1.0,0.0,0.0,0.0,1.0
1463564110399495882,480,1463564110392964571,,-0.952992081642,3.76856660843,172.092666626,0.0101539995521,1.0,0.0,0.0,0.0,1.0,0.0,0.0,0.0,1.0,7.31707334518,11.8292684555,13.9634151459,1.0,0.0,0.0,0.0,1.0,0.0,0.0,0.0,1.0,0.196324536133,0.569819995117,-8.98304462891,1.0,0.0,0.0,0.0,1.0,0.0,0.0,0.0,1.0
1463564110430858048,481,1463564110403543466,,-0.908064723015,3.84892296791,172.182937622,0.0100830001757,1.0,0.0,0.0,0.0,1.0,0.0,0.0,0.0,1.0,7.68292665482,11.8902444839,13.841463089,1.0,0.0,0.0,0.0,1.0,0.0,0.0,0.0,1.0,-0.0191536132812,0.636857641602,-9.17458076172,1.0,0.0,0.0,0.0,1.0,0.0,0.0,0.0,1.0
1463564110431450426,482,1463564110413228951,,-0.853547334671,3.9419503212,172.2840271,0.0101349996403,1.0,0.0,0.0,0.0,1.0,0.0,0.0,0.0,1.0,7.92682981491,12.5,14.8170728683,1.0,0.0,0.0,0.0,1.0,0.0,0.0,0.0,1.0,0.0909796630859,0.536301208408,-9.2416184082,1.0,0.0,0.0,0.0,1.0,0.0,0.0,0.0,1.0
1463564110431869476,483,1463564110423010684,,-0.80316567421,4.04798555374,172.388549805,0.0100520001724,1.0,0.0,0.0,0.0,1.0,0.0,0.0,0.0,1.0,7.62195110321,13.1097564697,15.2439022064,1.0,0.0,0.0,0.0,1.0,0.0,0.0,0.0,1.0,0.234631762695,0.555454785156,-9.40442353657,1.0,0.0,0.0,0.0,1.0,0.0,0.0,0.0,1.0
1463564110451225238,484,1463564110433173602,,-0.746747493744,4.16114187241,172.503189087,0.0100880004466,1.0,0.0,0.0,0.0,1.0,0.0,0.0,0.0,1.0,7.68292665482,12.9268293381,16.158536911,1.0,0.0,0.0,0.0,1.0,0.0,0.0,0.0,1.0,0.392649072266,0.474051928711,-9.38048151997,1.0,0.0,0.0,0.0,1.0,0.0,0.0,0.0,1.0
1463564110457426767,485,1463564110443587347,,-0.686908125877,4.28465461731,172.632369995,0.0102249998599,1.0,0.0,0.0,0.0,1.0,0.0,0.0,0.0,1.0,7.37804937363,13.2317075729,17.3780498505,1.0,0.0,0.0,0.0,1.0,0.0,0.0,0.0,1.0,0.512359155273,0.397437475586,-9.54807680523,1.0,0.0,0.0,0.0,1.0,0.0,0.0,0.0,1.0
1463564110472154859,486,1463564110453070078,,-0.640514135361,4.41341209412,172.771484375,0.00996000040323,1.0,0.0,0.0,0.0,1.0,0.0,0.0,0.0,1.0,6.46341466904,13.2317075729,18.7195110321,1.0,0.0,0.0,0.0,1.0,0.0,0.0,0.0,1.0,0.679953271484,0.45968671875,-9.60074924175,1.0,0.0,0.0,0.0,1.0,0.0,0.0,0.0,1.0
1463564110472655781,487,1463564110463257631,,-0.595973432064,4.54907417297,172.916885376,0.0100969998166,1.0,0.0,0.0,0.0,1.0,0.0,0.0,0.0,1.0,6.15853643417,13.7804880142,19.1463432312,1.0,0.0,0.0,0.0,1.0,0.0,0.0,0.0,1.0,0.713472094727,0.46447512207,-9.84016882324,1.0,0.0,0.0,0.0,1.0,0.0,0.0,0.0,1.0
1463564110489889005,488,1463564110473878713,,-0.558797240257,4.69179105759,173.073226929,0.0101819997653,1.0,0.0,0.0,0.0,1.0,0.0,0.0,0.0,1.0,4.87804889679,14.6341466904,20.0609760284,1.0,0.0,0.0,0.0,1.0,0.0,0.0,0.0,1.0,0.694318481445,0.387860668945,-9.90720646973,1.0,0.0,0.0,0.0,1.0,0.0,0.0,0.0,1.0
1463564110490384615,489,1463564110484245219,,-0.536476016045,4.85170459747,173.226669312,0.0100320000201,1.0,0.0,0.0,0.0,1.0,0.0,0.0,0.0,1.0,3.41463422775,15.2439022064,20.0,1.0,0.0,0.0,0.0,1.0,0.0,0.0,0.0,1.0,0.943315454102,0.378283862305,-9.81143840332,1.0,0.0,0.0,0.0,1.0,0.0,0.0,0.0,1.0
1463564110500916949,490,1463564110493570819,,-0.526133477688,5.00266075134,173.381622314,0.0101009998471,1.0,0.0,0.0,0.0,1.0,0.0,0.0,0.0,1.0,1.64634156227,15.6097564697,20.0,1.0,0.0,0.0,0.0,1.0,0.0,0.0,0.0,1.0,0.732625708008,0.282515795898,-9.79228479004,1.0,0.0,0.0,0.0,1.0,0.0,0.0,0.0,1.0
1463564110520721344,491,1463564110503823475,,-0.532139658928,5.16749334335,173.533782959,0.0101429997012,1.0,0.0,0.0,0.0,1.0,0.0,0.0,0.0,1.0,-0.365853667259,16.0365848541,19.6341457367,1.0,0.0,0.0,0.0,1.0,0.0,0.0,0.0,1.0,0.938527050781,0.220266552734,-10.0700121826,1.0,0.0,0.0,0.0,1.0,0.0,0.0,0.0,1.0
1463564110521163309,492,1463564110513742547,,-0.565289735794,5.32548952103,173.677093506,0.0101129999384,1.0,0.0,0.0,0.0,1.0,0.0,0.0,0.0,1.0,-2.74390244484,16.0975608826,18.841463089,1.0,0.0,0.0,0.0,1.0,0.0,0.0,0.0,1.0,0.852335791016,0.272938989258,-10.1562034424,1.0,0.0,0.0,0.0,1.0,0.0,0.0,0.0,1.0
1463564110548096288,493,1463564110523552299,,-0.614021480083,5.48620223999,173.799255371,0.0100250001997,1.0,0.0,0.0,0.0,1.0,0.0,0.0,0.0,1.0,-4.81707286835,16.2804889679,16.8292694092,1.0,0.0,0.0,0.0,1.0,0.0,0.0,0.0,1.0,0.943315454102,0.167594116211,-10.3764699951,1.0,0.0,0.0,0.0,1.0,0.0,0.0,0.0,1.0
1463564110548405029,494,1463564110534104685,,-0.689552307129,5.62986898422,173.90713501,0.0101870000362,1.0,0.0,0.0,0.0,1.0,0.0,0.0,0.0,1.0,-7.37804937363,15.4878053665,15.2439022064,1.0,0.0,0.0,0.0,1.0,0.0,0.0,0.0,1.0,0.76614453125,0.15322890625,-10.4004120117,1.0,0.0,0.0,0.0,1.0,0.0,0.0,0.0,1.0
1463564110548774914,495,1463564110544247708,,-0.781370341778,5.76919317245,173.990325928,0.0100630000234,1.0,0.0,0.0,0.0,1.0,0.0,0.0,0.0,1.0,-9.20731735229,14.8780498505,12.9268293381,1.0,0.0,0.0,0.0,1.0,0.0,0.0,0.0,1.0,0.881066210937,0.110133276367,-10.6541973877,1.0,0.0,0.0,0.0,1.0,0.0,0.0,0.0,1.0
1463564110560667779,496,1463564110554268704,,-0.893169462681,5.90564107895,174.053039551,0.0100640002638,1.0,0.0,0.0,0.0,1.0,0.0,0.0,0.0,1.0,-11.1585359573,14.2682924271,10.9146347046,1.0,0.0,0.0,0.0,1.0,0.0,0.0,0.0,1.0,0.991199487305,0.100556469727,-10.8744639404,1.0,0.0,0.0,0.0,1.0,0.0,0.0,0.0,1.0
1463564110580067030,497,1463564110564469278,,-1.00579988956,6.03901100159,174.090744019,0.0101969996467,1.0,0.0,0.0,0.0,1.0,0.0,0.0,0.0,1.0,-11.4024391174,12.8658542633,8.35365867615,1.0,0.0,0.0,0.0,1.0,0.0,0.0,0.0,1.0,1.23061965332,0.0143652099609,-11.1330377197,1.0,0.0,0.0,0.0,1.0,0.0,0.0,0.0,1.0
1463564110580490611,498,1463564110574356840,,-1.13198590279,6.15317964554,174.101852417,0.0100689996034,1.0,0.0,0.0,0.0,1.0,0.0,0.0,0.0,1.0,-12.0121955872,11.5243911743,5.85365867615,1.0,0.0,0.0,0.0,1.0,0.0,0.0,0.0,1.0,1.1875240965,0.15801730957,-11.152191333,1.0,0.0,0.0,0.0,1.0,0.0,0.0,0.0,1.0
1463564110593950460,499,1463564110584841676,,-1.24147713184,6.25437879562,174.08531189,0.0101819997653,1.0,0.0,0.0,0.0,1.0,0.0,0.0,0.0,1.0,-10.3048782349,10.0,3.10975623131,1.0,0.0,0.0,0.0,1.0,0.0,0.0,0.0,1.0,1.24498486328,0.110133276367,-11.1474029297,1.0,0.0,0.0,0.0,1.0,0.0,0.0,0.0,1.0
1463564110602376765,500,1463564110595024698,,-1.34499907494,6.33028745651,174.045608521,0.00998799968511,1.0,0.0,0.0,0.0,1.0,0.0,0.0,0.0,1.0,-9.45121955872,8.5365858078,0.792682945728,1.0,0.0,0.0,0.0,1.0,0.0,0.0,0.0,1.0,1.10133276367,0.172382519531,-11.1426145264,1.0,0.0,0.0,0.0,1.0,0.0,0.0,0.0,1.0
1463564110611294670,501,1463564110605342768,,-1.42954039574,6.40539836884,173.981460571,0.0100919995457,1.0,0.0,0.0,0.0,1.0,0.0,0.0,0.0,1.0,-8.59756088257,8.41463470459,-1.70731711388,1.0,0.0,0.0,0.0,1.0,0.0,0.0,0.0,1.0,1.12048637695,-0.0861912597656,-11.1282493164,1.0,0.0,0.0,0.0,1.0,0.0,0.0,0.0,1.0
1463564110623513932,502,1463564110614735710,,-1.51490485668,6.46396923065,173.898574829,0.0100659998134,1.0,0.0,0.0,0.0,1.0,0.0,0.0,0.0,1.0,-8.59756088257,7.07317113876,-3.59756112099,1.0,0.0,0.0,0.0,1.0,0.0,0.0,0.0,1.0,1.07739082014,-0.0909796630859,-10.9941740234,1.0,0.0,0.0,0.0,1.0,0.0,0.0,0.0,1.0
1463564110632305486,503,1463564110624752331,,-1.61560738087,6.51991271973,173.796432495,0.010111999698,1.0,0.0,0.0,0.0,1.0,0.0,0.0,0.0,1.0,-9.08536529541,6.34146356583,-5.36585378647,1.0,0.0,0.0,0.0,1.0,0.0,0.0,0.0,1.0,1.1875240965,0.076614453125,-10.9845972168,1.0,0.0,0.0,0.0,1.0,0.0,0.0,0.0,1.0
1463564110641855975,504,1463564110635050298,,-1.71648275852,6.57101011276,173.681396484,0.0101229995489,1.0,0.0,0.0,0.0,1.0,0.0,0.0,0.0,1.0,-9.5731716156,5.18292713165,-6.70731735229,1.0,0.0,0.0,0.0,1.0,0.0,0.0,0.0,1.0,1.33596452637,-0.0287304199219,-10.9415015869,1.0,0.0,0.0,0.0,1.0,0.0,0.0,0.0,1.0
1463564110648687329,505,1463564110644758387,,-1.83496928215,6.61765670776,173.546447754,0.010050999932,1.0,0.0,0.0,0.0,1.0,0.0,0.0,0.0,1.0,-10.4878053665,3.23170733452,-8.71951198578,1.0,0.0,0.0,0.0,1.0,0.0,0.0,0.0,1.0,1.66636435547,0.119710083008,-10.9415015869,1.0,0.0,0.0,0.0,1.0,0.0,0.0,0.0,1.0
1463564110661248247,506,1463564110655273847,,-1.97286272049,6.64467048645,173.411010742,0.0101049998775,1.0,0.0,0.0,0.0,1.0,0.0,0.0,0.0,1.0,-11.341463089,0.670731723309,-8.65853691101,1.0,0.0,0.0,0.0,1.0,0.0,0.0,0.0,1.0,1.80522805176,0.339976635742,-10.9798088135,1.0,0.0,0.0,0.0,1.0,0.0,0.0,0.0,1.0
1463564110673983067,507,1463564110665132972,,-2.11154413223,6.63887548447,173.2734375,0.0101380003616,1.0,0.0,0.0,0.0,1.0,0.0,0.0,0.0,1.0,-12.0731716156,-2.62195134163,-9.02439117432,1.0,0.0,0.0,0.0,1.0,0.0,0.0,0.0,1.0,1.83395847168,0.225054956055,-11.01811604,1.0,0.0,0.0,0.0,1.0,0.0,0.0,0.0,1.0
1463564110686155299,508,1463564110675676348,,-2.25153589249,6.58938884735,173.143615723,0.0101429997012,1.0,0.0,0.0,0.0,1.0,0.0,0.0,0.0,1.0,-12.9268293381,-5.97560977936,-8.47560977936,1.0,0.0,0.0,0.0,1.0,0.0,0.0,0.0,1.0,1.68072956543,0.129286889648,-11.2671130127,1.0,0.0,0.0,0.0,1.0,0.0,0.0,0.0,1.0
1463564110715591170,509,1463564110685835413,,-2.38685297966,6.49857330322,173.019363403,0.0101229995489,1.0,0.0,0.0,0.0,1.0,0.0,0.0,0.0,1.0,-13.2317075729,-8.84146404266,-8.17073154449,1.0,0.0,0.0,0.0,1.0,0.0,0.0,0.0,1.0,1.43173259277,0.0239420166016,-11.3245738525,1.0,0.0,0.0,0.0,1.0,0.0,0.0,0.0,1.0
1463564110718269890,510,1463564110695927240,,-2.51187515259,6.36835241318,172.899978638,0.0100309997797,1.0,0.0,0.0,0.0,1.0,0.0,0.0,0.0,1.0,-12.5609760284,-10.7926826477,-7.92682981491,1.0,0.0,0.0,0.0,1.0,0.0,0.0,0.0,1.0,1.03908344744,0.0191536132812,-11.7698953613,1.0,0.0,0.0,0.0,1.0,0.0,0.0,0.0,1.0
1463564110719193664,511,1463564110706157188,,-2.60454964638,6.20026922226,172.783828735,0.0102040003985,1.0,0.0,0.0,0.0,1.0,0.0,0.0,0.0,1.0,-11.0975618362,-11.7073173523,-7.68292665482,1.0,0.0,0.0,0.0,1.0,0.0,0.0,0.0,1.0,0.483628735352,-0.344765039063,-12.018892334,1.0,0.0,0.0,0.0,1.0,0.0,0.0,0.0,1.0
1463564110720023587,512,1463564110716362969,,-2.67923521996,6.04597234726,172.666290283,0.010050999932,1.0,0.0,0.0,0.0,1.0,0.0,0.0,0.0,1.0,-10.548781395,-10.1219511032,-8.04878044128,1.0,0.0,0.0,0.0,1.0,0.0,0.0,0.0,1.0,0.354341845703,-0.560243188477,-11.9901619141,1.0,0.0,0.0,0.0,1.0,0.0,0.0,0.0,1.0
1463564110740708840,513,1463564110726153191,,-2.74062085152,5.90413570404,172.553710938,0.0100649995729,1.0,0.0,0.0,0.0,1.0,0.0,0.0,0.0,1.0,-10.1219511032,-8.59756088257,-7.56097555161,1.0,0.0,0.0,0.0,1.0,0.0,0.0,0.0,1.0,0.258573779297,-0.708683691406,-11.7986257812,1.0,0.0,0.0,0.0,1.0,0.0,0.0,0.0,1.0
1463564110741097162,514,1463564110736160229,,-2.7984957695,5.78235244751,172.434310913,0.0101039996371,1.0,0.0,0.0,0.0,1.0,0.0,0.0,0.0,1.0,-10.1829271317,-7.31707334518,-8.17073154449,1.0,0.0,0.0,0.0,1.0,0.0,0.0,0.0,1.0,0.373495458984,-0.746990917969,-11.0947304932,1.0,0.0,0.0,0.0,1.0,0.0,0.0,0.0,1.0
1463564110763804749,515,1463564110746466164,,-2.86101102829,5.68641471863,172.318023682,0.0100630000234,1.0,0.0,0.0,0.0,1.0,0.0,0.0,0.0,1.0,-10.6097564697,-6.70731735229,-7.86585378647,1.0,0.0,0.0,0.0,1.0,0.0,0.0,0.0,1.0,0.689530078125,-0.679953271484,-10.539275708,1.0,0.0,0.0,0.0,1.0,0.0,0.0,0.0,1.0
1463564110764204112,516,1463564110756578511,,-2.94055867195,5.59812831879,172.196212769,0.0101340003312,1.0,0.0,0.0,0.0,1.0,0.0,0.0,0.0,1.0,-11.0365858078,-7.19512224197,-8.23170757294,1.0,0.0,0.0,0.0,1.0,0.0,0.0,0.0,1.0,0.881066210937,-0.426167895508,-10.046070166,1.0,0.0,0.0,0.0,1.0,0.0,0.0,0.0,1.0
1463564110792859694,517,1463564110766844291,,-3.01848936081,5.52174520493,172.077835083,0.0100899999961,1.0,0.0,0.0,0.0,1.0,0.0,0.0,0.0,1.0,-11.2195119858,-7.37804937363,-7.98780536652,1.0,0.0,0.0,0.0,1.0,0.0,0.0,0.0,1.0,1.03908344744,-0.435744702148,-9.46188437642,1.0,0.0,0.0,0.0,1.0,0.0,0.0,0.0,1.0
1463564110793164737,518,1463564110776826538,,-3.10504722595,5.45031785965,171.959442139,0.0101100001484,1.0,0.0,0.0,0.0,1.0,0.0,0.0,0.0,1.0,-12.6829271317,-7.74390268326,-8.04878044128,1.0,0.0,0.0,0.0,1.0,0.0,0.0,0.0,1.0,1.13485158691,-0.507570751953,-9.12669672852,1.0,0.0,0.0,0.0,1.0,0.0,0.0,0.0,1.0
1463564110793557017,519,1463564110786965291,,-3.22012376785,5.3776102066,171.856613159,0.0101100001484,1.0,0.0,0.0,0.0,1.0,0.0,0.0,0.0,1.0,-15.3048791885,-8.23170757294,-6.52439069748,1.0,0.0,0.0,0.0,1.0,0.0,0.0,0.0,1.0,1.14921679688,-0.426167895508,-8.94952580566,1.0,0.0,0.0,0.0,1.0,0.0,0.0,0.0,1.0
1463564110817570085,520,1463564110796781866,,-3.36791872978,5.30510950089,171.767333984,0.0100720003247,1.0,0.0,0.0,0.0,1.0,0.0,0.0,0.0,1.0,-16.9512195587,-9.08536529541,-5.12195110321,1.0,0.0,0.0,0.0,1.0,0.0,0.0,0.0,1.0,1.27850368652,-0.124498486328,-9.04050546875,1.0,0.0,0.0,0.0,1.0,0.0,0.0,0.0,1.0
1463564110820988731,521,1463564110807015668,,-3.52404546738,5.22514152527,171.689987183,0.010108999908,1.0,0.0,0.0,0.0,1.0,0.0,0.0,0.0,1.0,-17.8658542633,-10.4268293381,-4.02439022064,1.0,0.0,0.0,0.0,1.0,0.0,0.0,0.0,1.0,1.41257897949,-0.110133276367,-9.37090471333,1.0,0.0,0.0,0.0,1.0,0.0,0.0,0.0,1.0
1463564110821401531,522,1463564110817204471,,-3.68865585327,5.13905286789,171.618850708,0.0101169999689,1.0,0.0,0.0,0.0,1.0,0.0,0.0,0.0,1.0,-17.2560977936,-12.3170728683,-3.41463422775,1.0,0.0,0.0,0.0,1.0,0.0,0.0,0.0,1.0,1.66636435547,0.172382519531,-9.65821008159,1.0,0.0,0.0,0.0,1.0,0.0,0.0,0.0,1.0
1463564110851421134,523,1463564110827135834,,-3.83665180206,5.0355682373,171.560440063,0.0101309996098,1.0,0.0,0.0,0.0,1.0,0.0,0.0,0.0,1.0,-15.3048791885,-14.7560987473,-2.31707310677,1.0,0.0,0.0,0.0,1.0,0.0,0.0,0.0,1.0,1.78128603516,0.272938989258,-9.71567033691,1.0,0.0,0.0,0.0,1.0,0.0,0.0,0.0,1.0
1463564110851741853,524,1463564110837407396,,-3.96520042419,4.89238214493,171.501174927,0.0100800003856,1.0,0.0,0.0,0.0,1.0,0.0,0.0,0.0,1.0,-12.3780488968,-17.5609760284,-2.56097555161,1.0,0.0,0.0,0.0,1.0,0.0,0.0,0.0,1.0,1.62326872559,0.507570751953,-10.1226846191,1.0,0.0,0.0,0.0,1.0,0.0,0.0,0.0,1.0
1463564110852193350,525,1463564110847731299,,-4.05392217636,4.70578622818,171.445907593,0.0100710000843,1.0,0.0,0.0,0.0,1.0,0.0,0.0,0.0,1.0,-7.98780536652,-20.5487823486,-2.37804889679,1.0,0.0,0.0,0.0,1.0,0.0,0.0,0.0,1.0,1.34554133301,0.61770402832,-10.0748005859,1.0,0.0,0.0,0.0,1.0,0.0,0.0,0.0,1.0
1463564110876799265,526,1463564110856912372,,-4.12232589722,4.49261188507,171.384765625,0.0100809996948,1.0,0.0,0.0,0.0,1.0,0.0,0.0,0.0,1.0,-5.24390268326,-21.4634151459,-2.98780488968,1.0,0.0,0.0,0.0,1.0,0.0,0.0,0.0,1.0,1.04387185076,0.780509741211,-10.3716815918,1.0,0.0,0.0,0.0,1.0,0.0,0.0,0.0,1.0
1463564110877186545,527,1463564110867187892,,-4.14863920212,4.25557470322,171.324478149,0.0101110003889,1.0,0.0,0.0,0.0,1.0,0.0,0.0,0.0,1.0,-1.46341466904,-22.1341457367,-2.98780488968,1.0,0.0,0.0,0.0,1.0,0.0,0.0,0.0,1.0,0.694318481445,0.713472094727,-10.2232410889,1.0,0.0,0.0,0.0,1.0,0.0,0.0,0.0,1.0
1463564110900515623,528,1463564110877580751,,-4.15555143356,4.02419137955,171.26675415,0.0101100001484,1.0,0.0,0.0,0.0,1.0,0.0,0.0,0.0,1.0,0.792682945728,-21.7073173523,-2.68292689323,1.0,0.0,0.0,0.0,1.0,0.0,0.0,0.0,1.0,0.670376464844,0.785298144531,-10.1992990723,1.0,0.0,0.0,0.0,1.0,0.0,0.0,0.0,1.0
1463564110901108105,529,1463564110887956997,,-4.14694404602,3.81104469299,171.221755981,0.0101169999689,1.0,0.0,0.0,0.0,1.0,0.0,0.0,0.0,1.0,2.62195134163,-20.8536586761,-1.34146344662,1.0,0.0,0.0,0.0,1.0,0.0,0.0,0.0,1.0,0.775721337891,0.847547387695,-10.0556469727,1.0,0.0,0.0,0.0,1.0,0.0,0.0,0.0,1.0
1463564110901528665,530,1463564110897485091,,-4.12189531326,3.60855817795,171.182662964,0.0100659998134,1.0,0.0,0.0,0.0,1.0,0.0,0.0,0.0,1.0,4.39024400711,-19.5731716156,-0.670731723309,1.0,0.0,0.0,0.0,1.0,0.0,0.0,0.0,1.0,0.665588061523,0.871489404297,-9.97424411621,1.0,0.0,0.0,0.0,1.0,0.0,0.0,0.0,1.0
1463564110916308943,531,1463564110907774568,,-4.07064390182,3.42948246002,171.157608032,0.0101239997894,1.0,0.0,0.0,0.0,1.0,0.0,0.0,0.0,1.0,6.95121955872,-18.0487823486,0.853658556938,1.0,0.0,0.0,0.0,1.0,0.0,0.0,0.0,1.0,0.76614453125,0.876277807617,-9.90720646973,1.0,0.0,0.0,0.0,1.0,0.0,0.0,0.0,1.0
1463564110927896714,532,1463564110918018943,,-3.99368262291,3.26468396187,171.147369385,0.010111999698,1.0,0.0,0.0,0.0,1.0,0.0,0.0,0.0,1.0,8.17073154449,-16.2804889679,2.37804889679,1.0,0.0,0.0,0.0,1.0,0.0,0.0,0.0,1.0,0.646434448242,0.646434448242,-9.87368764648,1.0,0.0,0.0,0.0,1.0,0.0,0.0,0.0,1.0
1463564110949594957,533,1463564110927883641,,-3.88079428673,3.11366033554,171.150665283,0.0101899998263,1.0,0.0,0.0,0.0,1.0,0.0,0.0,0.0,1.0,10.3048782349,-15.4268302917,3.71951246262,1.0,0.0,0.0,0.0,1.0,0.0,0.0,0.0,1.0,0.684741674805,0.397437475586,-9.52413478862,1.0,0.0,0.0,0.0,1.0,0.0,0.0,0.0,1.0
1463564110950168898,534,1463564110938293792,,-3.75609946251,2.98176455498,171.17326355,0.00997299980372,1.0,0.0,0.0,0.0,1.0,0.0,0.0,0.0,1.0,10.548781395,-14.8170728683,5.67073154449,1.0,0.0,0.0,0.0,1.0,0.0,0.0,0.0,1.0,0.785298144531,0.191536132812,-9.30865547017,1.0,0.0,0.0,0.0,1.0,0.0,0.0,0.0,1.0
1463564110950606697,535,1463564110947992037,,-3.63241243362,2.85830998421,171.204483032,0.010161999613,1.0,0.0,0.0,0.0,1.0,0.0,0.0,0.0,1.0,11.1585359573,-14.4512205124,6.58536624908,1.0,0.0,0.0,0.0,1.0,0.0,0.0,0.0,1.0,0.881066210937,0.335188232422,-9.39005832661,1.0,0.0,0.0,0.0,1.0,0.0,0.0,0.0,1.0
1463564110967725497,536,1463564110958432864,,-3.49272489548,2.74120950699,171.249450684,0.0100419996306,1.0,0.0,0.0,0.0,1.0,0.0,0.0,0.0,1.0,12.1951217651,-14.4512205124,7.98780536652,1.0,0.0,0.0,0.0,1.0,0.0,0.0,0.0,1.0,0.9193734375,0.205901342773,-9.30386706685,1.0,0.0,0.0,0.0,1.0,0.0,0.0,0.0,1.0
1463564110978931456,537,1463564110968646718,,-3.36528730392,2.62523031235,171.309738159,0.0101450001821,1.0,0.0,0.0,0.0,1.0,0.0,0.0,0.0,1.0,12.0731716156,-15.0000009537,9.51219558716,1.0,0.0,0.0,0.0,1.0,0.0,0.0,0.0,1.0,1.03429511719,0.402225878906,-9.46188437642,1.0,0.0,0.0,0.0,1.0,0.0,0.0,0.0,1.0
1463564110980415942,538,1463564110978625268,,-3.23479628563,2.51289200783,171.385253906,0.0100870002061,1.0,0.0,0.0,0.0,1.0,0.0,0.0,0.0,1.0,13.2926826477,-15.4878053665,11.0975618362,1.0,0.0,0.0,0.0,1.0,0.0,0.0,0.0,1.0,1.11090957031,0.521935925381,-9.2655604248,1.0,0.0,0.0,0.0,1.0,0.0,0.0,0.0,1.0
1463564110993361276,539,1463564110988641420,,-3.08195066452,2.38773036003,171.477920532,0.0101789999753,1.0,0.0,0.0,0.0,1.0,0.0,0.0,0.0,1.0,15.4878053665,-16.7073173523,12.6829271317,1.0,0.0,0.0,0.0,1.0,0.0,0.0,0.0,1.0,1.08696755371,0.526724328702,-9.23683000488,1.0,0.0,0.0,0.0,1.0,0.0,0.0,0.0,1.0
1463564111008580915,540,1463564110999071726,,-2.90659952164,2.26104307175,171.587127686,0.0100400000811,1.0,0.0,0.0,0.0,1.0,0.0,0.0,0.0,1.0,17.3780498505,-17.134147644,14.4512205124,1.0,0.0,0.0,0.0,1.0,0.0,0.0,0.0,1.0,1.06781401349,0.416591088867,-9.20331118164,1.0,0.0,0.0,0.0,1.0,0.0,0.0,0.0,1.0
1463564111016595983,541,1463564111009149752,,-2.71145272255,2.11887025833,171.709854126,0.0100919995457,1.0,0.0,0.0,0.0,1.0,0.0,0.0,0.0,1.0,18.9634151459,-17.9878044128,15.7317075729,1.0,0.0,0.0,0.0,1.0,0.0,0.0,0.0,1.0,0.952892260742,0.349553442383,-9.32302068013,1.0,0.0,0.0,0.0,1.0,0.0,0.0,0.0,1.0
1463564111025857993,542,1463564111019581830,,-2.51918005943,1.97526013851,171.845458984,0.0101020000875,1.0,0.0,0.0,0.0,1.0,0.0,0.0,0.0,1.0,20.3048782349,-17.5609760284,17.134147644,1.0,0.0,0.0,0.0,1.0,0.0,0.0,0.0,1.0,0.842758984375,0.598550451572,-9.41400034321,1.0,0.0,0.0,0.0,1.0,0.0,0.0,0.0,1.0
1463564111039086965,543,1463564111029296326,,-2.31148004532,1.82981133461,171.98526001,0.0101180002093,1.0,0.0,0.0,0.0,1.0,0.0,0.0,0.0,1.0,21.8902435303,-18.1097564697,17.5609760284,1.0,0.0,0.0,0.0,1.0,0.0,0.0,0.0,1.0,0.890643017578,0.579396801758,-9.43315395649,1.0,0.0,0.0,0.0,1.0,0.0,0.0,0.0,1.0
1463564111058528195,544,1463564111039345759,,-2.08604693413,1.67377722263,172.138977051,0.0100800003856,1.0,0.0,0.0,0.0,1.0,0.0,0.0,0.0,1.0,23.7195129395,-18.841463089,19.0243911743,1.0,0.0,0.0,0.0,1.0,0.0,0.0,0.0,1.0,0.804451757813,0.545877978516,-9.4570959731,1.0,0.0,0.0,0.0,1.0,0.0,0.0,0.0,1.0
1463564111059066668,545,1463564111049944551,,-1.85408127308,1.51100587845,172.302398682,0.0100969998166,1.0,0.0,0.0,0.0,1.0,0.0,0.0,0.0,1.0,25.182926178,-18.658536911,20.0609760284,1.0,0.0,0.0,0.0,1.0,0.0,0.0,0.0,1.0,0.651222851562,0.656011254883,-9.56244201519,1.0,0.0,0.0,0.0,1.0,0.0,0.0,0.0,1.0
1463564111063625279,546,1463564111059777376,,-1.60548329353,1.35639059544,172.473983765,0.0101100001484,1.0,0.0,0.0,0.0,1.0,0.0,0.0,0.0,1.0,26.7073173523,-18.475610733,20.9146347046,1.0,0.0,0.0,0.0,1.0,0.0,0.0,0.0,1.0,0.742202514648,0.598550451572,-9.58638403179,1.0,0.0,0.0,0.0,1.0,0.0,0.0,0.0,1.0
1463564111072993119,547,1463564111070093884,,-1.34681713581,1.19962227345,172.660369873,0.0101250000298,1.0,0.0,0.0,0.0,1.0,0.0,0.0,0.0,1.0,27.8048782349,-17.9878044128,22.4390239716,1.0,0.0,0.0,0.0,1.0,0.0,0.0,0.0,1.0,0.603338854892,0.574608398438,-9.53849999858,1.0,0.0,0.0,0.0,1.0,0.0,0.0,0.0,1.0
1463564111087495958,548,1463564111079280844,,-1.07268834114,1.05682206154,172.851409912,0.0100419996306,1.0,0.0,0.0,0.0,1.0,0.0,0.0,0.0,1.0,28.7804889679,-17.9268302917,23.1097564697,1.0,0.0,0.0,0.0,1.0,0.0,0.0,0.0,1.0,0.799663354492,0.397437475586,-9.62469125835,1.0,0.0,0.0,0.0,1.0,0.0,0.0,0.0,1.0
1463564111092941417,549,1463564111089360433,,-0.791181147099,0.903109312057,173.058959961,0.0101239997894,1.0,0.0,0.0,0.0,1.0,0.0,0.0,0.0,1.0,28.475610733,-18.7195110321,24.6341457367,1.0,0.0,0.0,0.0,1.0,0.0,0.0,0.0,1.0,0.76614453125,0.210689746094,-9.73961235352,1.0,0.0,0.0,0.0,1.0,0.0,0.0,0.0,1.0
1463564111102819554,550,1463564111099848602,,-0.508302927017,0.741629302502,173.281097412,0.010108999908,1.0,0.0,0.0,0.0,1.0,0.0,0.0,0.0,1.0,27.1341457367,-19.3902435303,26.158536911,1.0,0.0,0.0,0.0,1.0,0.0,0.0,0.0,1.0,0.732625708008,-0.105344873047,-9.7348239502,1.0,0.0,0.0,0.0,1.0,0.0,0.0,0.0,1.0
1463564111112425563,551,1463564111110092769,,-0.238372460008,0.571134805679,173.513839722,0.0100990002975,1.0,0.0,0.0,0.0,1.0,0.0,0.0,0.0,1.0,25.7317085266,-20.0609760284,27.317073822,1.0,0.0,0.0,0.0,1.0,0.0,0.0,0.0,1.0,0.694318481445,-0.191536132812,-9.93593688965,1.0,0.0,0.0,0.0,1.0,0.0,0.0,0.0,1.0
1463564111135500068,552,1463564111120559065,,0.0129140820354,0.388777434826,173.756759644,0.0101279998198,1.0,0.0,0.0,0.0,1.0,0.0,0.0,0.0,1.0,24.0853652954,-19.7560977936,28.3536586761,1.0,0.0,0.0,0.0,1.0,0.0,0.0,0.0,1.0,0.440533105469,-0.205901342773,-10.1609918457,1.0,0.0,0.0,0.0,1.0,0.0,0.0,0.0,1.0
1463564111138982774,553,1463564111129817533,,0.252416849136,0.217128261924,174.001159668,0.010048000142,1.0,0.0,0.0,0.0,1.0,0.0,0.0,0.0,1.0,23.475610733,-19.2682914734,28.7804889679,1.0,0.0,0.0,0.0,1.0,0.0,0.0,0.0,1.0,0.512359155273,-0.201112939453,-10.3190091553,1.0,0.0,0.0,0.0,1.0,0.0,0.0,0.0,1.0
1463564111147592251,554,1463564111141174895,,0.485114663839,0.0445315316319,174.255645752,0.0102650001645,1.0,0.0,0.0,0.0,1.0,0.0,0.0,0.0,1.0,23.1097564697,-18.475610733,29.3292694092,1.0,0.0,0.0,0.0,1.0,0.0,0.0,0.0,1.0,0.416591088867,-0.114921679688,-10.6302553711,1.0,0.0,0.0,0.0,1.0,0.0,0.0,0.0,1.0
1463564111160696852,555,1463564111150651585,,0.71391159296,-0.113053254783,174.501068115,0.00995100010186,1.0,0.0,0.0,0.0,1.0,0.0,0.0,0.0,1.0,23.1707324982,-17.5000019073,29.2682933807,1.0,0.0,0.0,0.0,1.0,0.0,0.0,0.0,1.0,0.402225878906,-0.220266552734,-10.5967365479,1.0,0.0,0.0,0.0,1.0,0.0,0.0,0.0,1.0
1463564111165344523,556,1463564111160642635,,0.9601790905,-0.2740457654,174.75692749,0.0101469997317,1.0,0.0,0.0,0.0,1.0,0.0,0.0,0.0,1.0,22.682926178,-16.0365848541,29.8780498505,1.0,0.0,0.0,0.0,1.0,0.0,0.0,0.0,1.0,0.114921679688,-0.60812722168,-10.6254669678,1.0,0.0,0.0,0.0,1.0,0.0,0.0,0.0,1.0
1463564111175425622,557,1463564111170824252,,1.18332874775,-0.421583801508,175.017929077,0.0100530004129,1.0,0.0,0.0,0.0,1.0,0.0,0.0,0.0,1.0,20.9146347046,-14.6341466904,30.6707305908,1.0,0.0,0.0,0.0,1.0,0.0,0.0,0.0,1.0,0.067037651051,-0.60812722168,-10.5871597412,1.0,0.0,0.0,0.0,1.0,0.0,0.0,0.0,1.0
1463564111184222125,558,1463564111180338649,,1.40004062653,-0.558310687542,175.28553772,0.0101250000298,1.0,0.0,0.0,0.0,1.0,0.0,0.0,0.0,1.0,19.5731716156,-12.5609760284,31.158536911,1.0,0.0,0.0,0.0,1.0,0.0,0.0,0.0,1.0,-0.110133276367,-0.780509741211,-10.7978494873,1.0,0.0,0.0,0.0,1.0,0.0,0.0,0.0,1.0
1463564111202652396,559,1463564111192044230,,1.59296309948,-0.660936415195,175.564498901,0.0100790001452,1.0,0.0,0.0,0.0,1.0,0.0,0.0,0.0,1.0,17.0121955872,-9.5731716156,32.3780517578,1.0,0.0,0.0,0.0,1.0,0.0,0.0,0.0,1.0,-0.0478840332031,-0.895431420898,-10.8409451172,1.0,0.0,0.0,0.0,1.0,0.0,0.0,0.0,1.0
1463564111207674639,560,1463564111201388320,,1.77872228622,-0.744966328144,175.875213623,0.0108019998297,1.0,0.0,0.0,0.0,1.0,0.0,0.0,0.0,1.0,15.548781395,-6.89024400711,33.4146347046,1.0,0.0,0.0,0.0,1.0,0.0,0.0,0.0,1.0,-0.0957680664062,-0.837970581055,-10.6781394043,1.0,0.0,0.0,0.0,1.0,0.0,0.0,0.0,1.0
1463564111230625971,561,1463564111212251843,,1.92725086212,-0.790538966656,176.160202026,0.00956400018185,1.0,0.0,0.0,0.0,1.0,0.0,0.0,0.0,1.0,13.9024391174,-4.45121955872,34.3902435303,1.0,0.0,0.0,0.0,1.0,0.0,0.0,0.0,1.0,0.0191536132812,-0.866701000977,-10.5440641113,1.0,0.0,0.0,0.0,1.0,0.0,0.0,0.0,1.0
1463564111230720812,562,1463564111221817645,,2.07301330566,-0.817824304104,176.469833374,0.0100349998102,1.0,0.0,0.0,0.0,1.0,0.0,0.0,0.0,1.0,11.7073173523,-3.10975623131,35.4268302917,1.0,0.0,0.0,0.0,1.0,0.0,0.0,0.0,1.0,0.162805712891,-1.11569797363,-10.4626612549,1.0,0.0,0.0,0.0,1.0,0.0,0.0,0.0,1.0
1463564111236562509,563,1463564111231972180,,2.18368458748,-0.825329363346,176.788009644,0.0100180003792,1.0,0.0,0.0,0.0,1.0,0.0,0.0,0.0,1.0,9.14634132385,-1.8902438879,36.2804908752,1.0,0.0,0.0,0.0,1.0,0.0,0.0,0.0,1.0,0.316034619141,-0.976834277344,-10.4770264648,1.0,0.0,0.0,0.0,1.0,0.0,0.0,0.0,1.0
1463564111250473230,564,1463564111242205774,,2.26106953621,-0.832141339779,177.120162964,0.0100849997252,1.0,0.0,0.0,0.0,1.0,0.0,0.0,0.0,1.0,6.58536624908,-1.76829278469,37.4390220642,1.0,0.0,0.0,0.0,1.0,0.0,0.0,0.0,1.0,0.320823022461,-0.842758984375,-10.3956236084,1.0,0.0,0.0,0.0,1.0,0.0,0.0,0.0,1.0
1463564111256187588,565,1463564111251580645,,2.32348060608,-0.830545783043,177.463531494,0.0101579995826,1.0,0.0,0.0,0.0,1.0,0.0,0.0,0.0,1.0,4.39024400711,-1.15853655338,38.2926864624,1.0,0.0,0.0,0.0,1.0,0.0,0.0,0.0,1.0,0.378283862305,-0.991199487305,-10.4866032715,1.0,0.0,0.0,0.0,1.0,0.0,0.0,0.0,1.0
1463564111270301480,566,1463564111261935381,,2.35359144211,-0.836208343506,177.819259644,0.010050999932,1.0,0.0,0.0,0.0,1.0,0.0,0.0,0.0,1.0,1.58536589146,-1.34146344662,39.8780479431,1.0,0.0,0.0,0.0,1.0,0.0,0.0,0.0,1.0,0.301669427446,-0.962469067383,-10.7068698242,1.0,0.0,0.0,0.0,1.0,0.0,0.0,0.0,1.0
1463564111285651950,567,1463564111271533005,,2.35093665123,-0.839690029621,178.186462402,0.0101739997044,1.0,0.0,0.0,0.0,1.0,0.0,0.0,0.0,1.0,-0.731707334518,-0.975609779358,40.5487823486,1.0,0.0,0.0,0.0,1.0,0.0,0.0,0.0,1.0,0.282515795898,-0.799663354492,-10.8170031006,1.0,0.0,0.0,0.0,1.0,0.0,0.0,0.0,1.0
1463564111286103863,568,1463564111282770163,,2.33368301392,-0.862760007381,178.55279541,0.0100189996883,1.0,0.0,0.0,0.0,1.0,0.0,0.0,0.0,1.0,-1.64634156227,-1.64634156227,41.0365867615,1.0,0.0,0.0,0.0,1.0,0.0,0.0,0.0,1.0,0.0383072265625,-0.713472094727,-11.0707884766,1.0,0.0,0.0,0.0,1.0,0.0,0.0,0.0,1.0
1463564111300402490,569,1463564111292052432,,2.30948972702,-0.893301427364,178.923156738,0.0102270003408,1.0,0.0,0.0,0.0,1.0,0.0,0.0,0.0,1.0,-1.58536589146,-1.52439022064,40.6707344055,1.0,0.0,0.0,0.0,1.0,0.0,0.0,0.0,1.0,-0.129286889648,-0.574608398438,-11.0755768799,1.0,0.0,0.0,0.0,1.0,0.0,0.0,0.0,1.0
1463564111315312921,570,1463564111302074314,,2.28844761848,-0.920547604561,179.289199829,0.00999999977648,1.0,0.0,0.0,0.0,1.0,0.0,0.0,0.0,1.0,-1.58536589146,-0.853658556938,41.0365867615,1.0,0.0,0.0,0.0,1.0,0.0,0.0,0.0,1.0,-0.215478149414,-0.627280834961,-11.0995188965,1.0,0.0,0.0,0.0,1.0,0.0,0.0,0.0,1.0
1463564111315718377,571,1463564111312748624,,2.26058697701,-0.952189087868,179.655197144,0.0101859997958,1.0,0.0,0.0,0.0,1.0,0.0,0.0,0.0,1.0,-0.731707334518,0.0609756112099,40.3048782349,1.0,0.0,0.0,0.0,1.0,0.0,0.0,0.0,1.0,-0.478840332031,-0.330399829102,-10.9989624268,1.0,0.0,0.0,0.0,1.0,0.0,0.0,0.0,1.0
1463564111416621500,572,1463564111322210107,,2.2572748661,-0.967508435249,-179.991424561,0.0100159998983,1.0,0.0,0.0,0.0,1.0,0.0,0.0,0.0,1.0,0.487804889679,1.15853655338,39.634147644,1.0,0.0,0.0,0.0,1.0,0.0,0.0,0.0,1.0,-0.387860668945,-0.541089611728,-10.6972930176,1.0,0.0,0.0,0.0,1.0,0.0,0.0,0.0,1.0
1463564111417005551,573,1463564111332328913,,2.25596642494,-0.96976518631,-179.636184692,0.0100880004466,1.0,0.0,0.0,0.0,1.0,0.0,0.0,0.0,1.0,1.09756100178,2.37804889679,39.5121955872,1.0,0.0,0.0,0.0,1.0,0.0,0.0,0.0,1.0,-0.363918652344,-0.450109912109,-10.3764699951,1.0,0.0,0.0,0.0,1.0,0.0,0.0,0.0,1.0
1463564111417161640,574,1463564111342284182,,2.26478600502,-0.948876082897,-179.287139893,0.0101669998839,1.0,0.0,0.0,0.0,1.0,0.0,0.0,0.0,1.0,1.95121955872,3.35365867615,38.5975608826,1.0,0.0,0.0,0.0,1.0,0.0,0.0,0.0,1.0,-0.129286889648,-0.46447512207,-10.1992990723,1.0,0.0,0.0,0.0,1.0,0.0,0.0,0.0,1.0
1463564111417324395,575,1463564111352545640,,2.26839566231,-0.919032931328,-178.945175171,0.0100389998406,1.0,0.0,0.0,0.0,1.0,0.0,0.0,0.0,1.0,2.56097555161,3.84146332741,38.2926864624,1.0,0.0,0.0,0.0,1.0,0.0,0.0,0.0,1.0,-0.0478840332031,-0.253785375977,-9.91199487305,1.0,0.0,0.0,0.0,1.0,0.0,0.0,0.0,1.0
1463564111417487307,576,1463564111362445755,,2.28642177582,-0.886370241642,-178.599868774,0.0100649995729,1.0,0.0,0.0,0.0,1.0,0.0,0.0,0.0,1.0,3.47560977936,4.02439022064,38.5365829468,1.0,0.0,0.0,0.0,1.0,0.0,0.0,0.0,1.0,-0.0239420166016,-0.339976635742,-9.84016882324,1.0,0.0,0.0,0.0,1.0,0.0,0.0,0.0,1.0
1463564111417538191,577,1463564111372740285,,2.30973005295,-0.863519966602,-178.254684448,0.0101129999384,1.0,0.0,0.0,0.0,1.0,0.0,0.0,0.0,1.0,3.96341490746,4.2682929039,38.3536567688,1.0,0.0,0.0,0.0,1.0,0.0,0.0,0.0,1.0,-0.234631762695,-0.349553442383,-9.98860932617,1.0,0.0,0.0,0.0,1.0,0.0,0.0,0.0,1.0
1463564111417824276,578,1463564111382575715,,2.33747172356,-0.848456740379,-177.905838013,0.0101429997012,1.0,0.0,0.0,0.0,1.0,0.0,0.0,0.0,1.0,3.47560977936,4.93902444839,38.5975608826,1.0,0.0,0.0,0.0,1.0,0.0,0.0,0.0,1.0,-0.488417138672,-0.521935925381,-10.1322614258,1.0,0.0,0.0,0.0,1.0,0.0,0.0,0.0,1.0
1463564111418246815,579,1463564111392838891,,2.3623611927,-0.837601959705,-177.556747437,0.0101070003584,1.0,0.0,0.0,0.0,1.0,0.0,0.0,0.0,1.0,3.7804877758,5.24390268326,38.7195129395,1.0,0.0,0.0,0.0,1.0,0.0,0.0,0.0,1.0,-0.622492431641,-0.430956298828,-10.3381627686,1.0,0.0,0.0,0.0,1.0,0.0,0.0,0.0,1.0
1463564111418511130,580,1463564111402970770,,2.39920806885,-0.820896625519,-177.206939697,0.0101279998198,1.0,0.0,0.0,0.0,1.0,0.0,0.0,0.0,1.0,4.51219558716,5.36585378647,38.7195129395,1.0,0.0,0.0,0.0,1.0,0.0,0.0,0.0,1.0,-0.541089611728,-0.521935925381,-10.4722380615,1.0,0.0,0.0,0.0,1.0,0.0,0.0,0.0,1.0
1463564111419657605,581,1463564111413383682,,2.44115829468,-0.808224439621,-176.863525391,0.0100640002638,1.0,0.0,0.0,0.0,1.0,0.0,0.0,0.0,1.0,5.85365867615,5.36585378647,38.2926864624,1.0,0.0,0.0,0.0,1.0,0.0,0.0,0.0,1.0,-0.612915625,-0.378283862305,-10.539275708,1.0,0.0,0.0,0.0,1.0,0.0,0.0,0.0,1.0
1463564111471383998,582,1463564111423244163,,2.50703454018,-0.797464370728,-176.527313232,0.0101159997284,1.0,0.0,0.0,0.0,1.0,0.0,0.0,0.0,1.0,8.23170757294,4.57317066193,37.4390220642,1.0,0.0,0.0,0.0,1.0,0.0,0.0,0.0,1.0,-0.502782348633,-0.378283862305,-10.5919481445,1.0,0.0,0.0,0.0,1.0,0.0,0.0,0.0,1.0
1463564111471657531,583,1463564111433498954,,2.59546041489,-0.787359178066,-176.202560425,0.0101049998775,1.0,0.0,0.0,0.0,1.0,0.0,0.0,0.0,1.0,10.7926826477,4.51219558716,36.3414611816,1.0,0.0,0.0,0.0,1.0,0.0,0.0,0.0,1.0,-0.493205541992,-0.320823022461,-10.405200415,1.0,0.0,0.0,0.0,1.0,0.0,0.0,0.0,1.0
1463564111471972157,584,1463564111443689581,,2.7117960453,-0.779797315598,-175.890655518,0.0100849997252,1.0,0.0,0.0,0.0,1.0,0.0,0.0,0.0,1.0,12.9878053665,3.59756112099,35.1829299927,1.0,0.0,0.0,0.0,1.0,0.0,0.0,0.0,1.0,-0.363918652344,-0.435744702148,-10.2615483154,1.0,0.0,0.0,0.0,1.0,0.0,0.0,0.0,1.0
1463564111472521202,585,1463564111453584748,,2.83855843544,-0.784704685211,-175.594238281,0.0100779999048,1.0,0.0,0.0,0.0,1.0,0.0,0.0,0.0,1.0,14.2682924271,2.56097555161,33.7195129395,1.0,0.0,0.0,0.0,1.0,0.0,0.0,0.0,1.0,-0.397437475586,-0.407014282227,-10.1897222656,1.0,0.0,0.0,0.0,1.0,0.0,0.0,0.0,1.0
1463564111472895722,586,1463564111464428012,,2.97951412201,-0.797496795654,-175.309555054,0.0102450000122,1.0,0.0,0.0,0.0,1.0,0.0,0.0,0.0,1.0,15.3658533096,1.8902438879,32.134147644,1.0,0.0,0.0,0.0,1.0,0.0,0.0,0.0,1.0,-0.411802685547,-0.435744702148,-10.0556469727,1.0,0.0,0.0,0.0,1.0,0.0,0.0,0.0,1.0
1463564111498331562,587,1463564111473970742,,3.12621927261,-0.804579496384,-175.045120239,0.00994099956006,1.0,0.0,0.0,0.0,1.0,0.0,0.0,0.0,1.0,16.2804889679,1.46341466904,30.975610733,1.0,0.0,0.0,0.0,1.0,0.0,0.0,0.0,1.0,-0.239420166016,-0.469263525391,-9.95987890625,1.0,0.0,0.0,0.0,1.0,0.0,0.0,0.0,1.0
1463564111498645562,588,1463564111483994186,,3.28794503212,-0.82829451561,-174.782028198,0.0103850001469,1.0,0.0,0.0,0.0,1.0,0.0,0.0,0.0,1.0,17.3780498505,0.670731723309,29.7560997009,1.0,0.0,0.0,0.0,1.0,0.0,0.0,0.0,1.0,-0.383072265625,-0.450109912109,-10.1083194092,1.0,0.0,0.0,0.0,1.0,0.0,0.0,0.0,1.0
1463564111499048675,589,1463564111493792065,,3.45199871063,-0.844814538956,-174.545974731,0.00983900018036,1.0,0.0,0.0,0.0,1.0,0.0,0.0,0.0,1.0,18.9024391174,0.670731723309,28.4146347046,1.0,0.0,0.0,0.0,1.0,0.0,0.0,0.0,1.0,-0.277727392578,-0.397437475586,-10.0077629395,1.0,0.0,0.0,0.0,1.0,0.0,0.0,0.0,1.0
1463564111508437191,590,1463564111504723190,,3.63499379158,-0.871217131615,-174.311264038,0.0102289998904,1.0,0.0,0.0,0.0,1.0,0.0,0.0,0.0,1.0,20.1219520569,0.670731723309,27.3780498505,1.0,0.0,0.0,0.0,1.0,0.0,0.0,0.0,1.0,-0.445321508789,-0.430956298828,-10.1562034424,1.0,0.0,0.0,0.0,1.0,0.0,0.0,0.0,1.0
1463564111516917922,591,1463564111513630002,,3.83383154869,-0.893686830997,-174.094436646,0.00994400028139,1.0,0.0,0.0,0.0,1.0,0.0,0.0,0.0,1.0,21.5853652954,0.243902444839,26.2804889679,1.0,0.0,0.0,0.0,1.0,0.0,0.0,0.0,1.0,-0.316034619141,-0.579396801758,-10.180145459,1.0,0.0,0.0,0.0,1.0,0.0,0.0,0.0,1.0
1463564111528265128,592,1463564111523518606,,4.04157114029,-0.919630408287,-173.881484985,0.010095000267,1.0,0.0,0.0,0.0,1.0,0.0,0.0,0.0,1.0,21.5243911743,-0.0609756112099,25.6097564697,1.0,0.0,0.0,0.0,1.0,0.0,0.0,0.0,1.0,-0.320823022461,-0.742202514648,-10.3381627686,1.0,0.0,0.0,0.0,1.0,0.0,0.0,0.0,1.0
1463564111536974342,593,1463564111534107242,,4.25946235657,-0.941931188107,-173.682250977,0.0101819997653,1.0,0.0,0.0,0.0,1.0,0.0,0.0,0.0,1.0,21.4024391174,-1.46341466904,24.2073173523,1.0,0.0,0.0,0.0,1.0,0.0,0.0,0.0,1.0,-0.00478840332031,-0.938527050781,-10.2088758789,1.0,0.0,0.0,0.0,1.0,0.0,0.0,0.0,1.0
1463564111549903271,594,1463564111544721919,,4.45505714417,-0.980927407742,-173.491912842,0.0100560002029,1.0,0.0,0.0,0.0,1.0,0.0,0.0,0.0,1.0,20.0,-2.56097555161,23.658536911,1.0,0.0,0.0,0.0,1.0,0.0,0.0,0.0,1.0,-0.110133276367,-0.871489404297,-10.1274730225,1.0,0.0,0.0,0.0,1.0,0.0,0.0,0.0,1.0
1463564111556213027,595,1463564111554060488,,4.65023517609,-1.03084051609,-173.311553955,0.0100710000843,1.0,0.0,0.0,0.0,1.0,0.0,0.0,0.0,1.0,19.5121955872,-4.32926845551,22.8048782349,1.0,0.0,0.0,0.0,1.0,0.0,0.0,0.0,1.0,0.00478840332031,-0.981622680664,-10.1322614258,1.0,0.0,0.0,0.0,1.0,0.0,0.0,0.0,1.0
1463564111567611481,596,1463564111563927219,,4.83322811127,-1.09565031528,-173.136047363,0.0101070003584,1.0,0.0,0.0,0.0,1.0,0.0,0.0,0.0,1.0,18.5975627899,-5.54878091812,22.3780498505,1.0,0.0,0.0,0.0,1.0,0.0,0.0,0.0,1.0,-0.0430956298828,-0.948103857422,-10.0795889893,1.0,0.0,0.0,0.0,1.0,0.0,0.0,0.0,1.0
1463564111577775182,597,1463564111574538041,,5.00938892365,-1.17175090313,-172.976272583,0.0101269995794,1.0,0.0,0.0,0.0,1.0,0.0,0.0,0.0,1.0,17.9878044128,-6.70731735229,20.9146347046,1.0,0.0,0.0,0.0,1.0,0.0,0.0,0.0,1.0,-0.0574608398438,-0.948103857422,-9.94551369629,1.0,0.0,0.0,0.0,1.0,0.0,0.0,0.0,1.0
1463564111588864688,598,1463564111584256443,,5.17018508911,-1.26407873631,-172.820632935,0.0101370001212,1.0,0.0,0.0,0.0,1.0,0.0,0.0,0.0,1.0,17.134147644,-7.19512224197,20.5487823486,1.0,0.0,0.0,0.0,1.0,0.0,0.0,0.0,1.0,-0.268150604204,-0.876277807617,-10.1178962158,1.0,0.0,0.0,0.0,1.0,0.0,0.0,0.0,1.0
1463564111603869335,599,1463564111594838152,,5.3340420723,-1.36371457577,-172.678314209,0.010045000352,1.0,0.0,0.0,0.0,1.0,0.0,0.0,0.0,1.0,16.6463413239,-6.95121955872,19.3902435303,1.0,0.0,0.0,0.0,1.0,0.0,0.0,0.0,1.0,-0.478840332031,-1.05823706072,-9.96945571289,1.0,0.0,0.0,0.0,1.0,0.0,0.0,0.0,1.0
1463564111618231241,600,1463564111604375986,,5.48417425156,-1.46142053604,-172.545196533,0.0100910002366,1.0,0.0,0.0,0.0,1.0,0.0,0.0,0.0,1.0,16.158536911,-6.28048801422,18.3536586761,1.0,0.0,0.0,0.0,1.0,0.0,0.0,0.0,1.0,-0.588973571866,-0.928950244141,-10.0795889893,1.0,0.0,0.0,0.0,1.0,0.0,0.0,0.0,1.0
1463564111618687477,601,1463564111614864000,,5.62535953522,-1.54946410656,-172.423065186,0.0101209999993,1.0,0.0,0.0,0.0,1.0,0.0,0.0,0.0,1.0,15.1829271317,-6.34146356583,17.2560977936,1.0,0.0,0.0,0.0,1.0,0.0,0.0,0.0,1.0,-0.426167895508,-0.948103857422,-9.92636008301,1.0,0.0,0.0,0.0,1.0,0.0,0.0,0.0,1.0
1463564111664830133,602,1463564111625159519,,5.75192499161,-1.62486290932,-172.310440063,0.0101209999993,1.0,0.0,0.0,0.0,1.0,0.0,0.0,0.0,1.0,13.5365858078,-5.12195110321,16.2195110321,1.0,0.0,0.0,0.0,1.0,0.0,0.0,0.0,1.0,-0.450109912109,-1.01035310059,-9.95987890625,1.0,0.0,0.0,0.0,1.0,0.0,0.0,0.0,1.0
1463564111665132207,603,1463564111635330355,,5.87301874161,-1.69104850292,-172.209655762,0.0100840004161,1.0,0.0,0.0,0.0,1.0,0.0,0.0,0.0,1.0,12.0731716156,-5.67073154449,15.1829271317,1.0,0.0,0.0,0.0,1.0,0.0,0.0,0.0,1.0,-0.225054956055,-1.20188930646,-9.96466730957,1.0,0.0,0.0,0.0,1.0,0.0,0.0,0.0,1.0
1463564111665424229,604,1463564111645428693,,5.9660654068,-1.76247322559,-172.122680664,0.0100969998166,1.0,0.0,0.0,0.0,1.0,0.0,0.0,0.0,1.0,10.3658542633,-6.21951246262,13.841463089,1.0,0.0,0.0,0.0,1.0,0.0,0.0,0.0,1.0,-0.253785375977,-1.03429511719,-10.060435376,1.0,0.0,0.0,0.0,1.0,0.0,0.0,0.0,1.0
1463564111670587405,605,1463564111655377973,,6.05787277222,-1.83801198006,-172.049377441,0.0100760003552,1.0,0.0,0.0,0.0,1.0,0.0,0.0,0.0,1.0,9.69512176514,-7.07317113876,12.6219520569,1.0,0.0,0.0,0.0,1.0,0.0,0.0,0.0,1.0,-0.210689746094,-1.14442839355,-10.0364933594,1.0,0.0,0.0,0.0,1.0,0.0,0.0,0.0,1.0
1463564111671023642,606,1463564111665354440,,6.12984418869,-1.93025898933,-171.993133545,0.0101070003584,1.0,0.0,0.0,0.0,1.0,0.0,0.0,0.0,1.0,8.35365867615,-7.74390268326,10.9756097794,1.0,0.0,0.0,0.0,1.0,0.0,0.0,0.0,1.0,-0.426167895508,-1.03908344744,-10.0652237793,1.0,0.0,0.0,0.0,1.0,0.0,0.0,0.0,1.0
1463564111785121206,607,1463564111675621887,,6.18378686905,-2.02585148811,-171.947174072,0.0101399999112,1.0,0.0,0.0,0.0,1.0,0.0,0.0,0.0,1.0,7.07317113876,-8.35365867615,10.0,1.0,0.0,0.0,0.0,1.0,0.0,0.0,0.0,1.0,-0.407014282227,-0.957680664062,-10.1083194092,1.0,0.0,0.0,0.0,1.0,0.0,0.0,0.0,1.0
1463564111785401198,608,1463564111685535700,,6.2116856575,-2.11944484711,-171.910507202,0.0100990002975,1.0,0.0,0.0,0.0,1.0,0.0,0.0,0.0,1.0,6.34146356583,-8.23170757294,9.02439117432,1.0,0.0,0.0,0.0,1.0,0.0,0.0,0.0,1.0,-0.435744702148,-0.636857641602,-10.1466266357,1.0,0.0,0.0,0.0,1.0,0.0,0.0,0.0,1.0
1463564111785841966,609,1463564111696110534,,6.24444818497,-2.22222542763,-171.880706787,0.0100880004466,1.0,0.0,0.0,0.0,1.0,0.0,0.0,0.0,1.0,6.64634132385,-8.78048801422,8.41463470459,1.0,0.0,0.0,0.0,1.0,0.0,0.0,0.0,1.0,-0.531512805087,-0.670376464844,-10.1418382324,1.0,0.0,0.0,0.0,1.0,0.0,0.0,0.0,1.0
1463564111786151435,610,1463564111705991066,,6.26354026794,-2.3190369606,-171.851776123,0.0100940000266,1.0,0.0,0.0,0.0,1.0,0.0,0.0,0.0,1.0,5.97560977936,-7.62195110321,8.17073154449,1.0,0.0,0.0,0.0,1.0,0.0,0.0,0.0,1.0,-0.651222851562,-0.550666381836,-10.1083194092,1.0,0.0,0.0,0.0,1.0,0.0,0.0,0.0,1.0
1463564111786446843,611,1463564111716264399,,6.29113721848,-2.40799164772,-171.823608398,0.0101079996675,1.0,0.0,0.0,0.0,1.0,0.0,0.0,0.0,1.0,6.52439069748,-7.13414621353,8.04878044128,1.0,0.0,0.0,0.0,1.0,0.0,0.0,0.0,1.0,-0.612915625,-0.603338854892,-10.0556469727,1.0,0.0,0.0,0.0,1.0,0.0,0.0,0.0,1.0
1463564111786710429,612,1463564111725651352,,6.31274461746,-2.48984193802,-171.7840271,0.0100840004161,1.0,0.0,0.0,0.0,1.0,0.0,0.0,0.0,1.0,6.58536624908,-6.46341466904,9.08536529541,1.0,0.0,0.0,0.0,1.0,0.0,0.0,0.0,1.0,-0.622492431641,-0.517147558594,-10.3573163818,1.0,0.0,0.0,0.0,1.0,0.0,0.0,0.0,1.0
1463564111787039637,613,1463564111736013328,,6.33090925217,-2.56556129456,-171.73588562,0.0101539995521,1.0,0.0,0.0,0.0,1.0,0.0,0.0,0.0,1.0,7.31707334518,-5.60975599289,9.75609779358,1.0,0.0,0.0,0.0,1.0,0.0,0.0,0.0,1.0,-0.641646044922,-0.320823022461,-10.1131078125,1.0,0.0,0.0,0.0,1.0,0.0,0.0,0.0,1.0
1463564111791464867,614,1463564111746110624,,6.36844539642,-2.63881802559,-171.683654785,0.0100269997492,1.0,0.0,0.0,0.0,1.0,0.0,0.0,0.0,1.0,8.78048801422,-5.06097555161,10.1829271317,1.0,0.0,0.0,0.0,1.0,0.0,0.0,0.0,1.0,-0.732625708008,-0.426167895508,-10.3285859619,1.0,0.0,0.0,0.0,1.0,0.0,0.0,0.0,1.0
1463564111792112295,615,1463564111756021885,,6.42503499985,-2.7014632225,-171.62286377,0.0101330000907,1.0,0.0,0.0,0.0,1.0,0.0,0.0,0.0,1.0,9.39024448395,-4.02439022064,10.9146347046,1.0,0.0,0.0,0.0,1.0,0.0,0.0,0.0,1.0,-0.723048901367,-0.675164868164,-10.4530844482,1.0,0.0,0.0,0.0,1.0,0.0,0.0,0.0,1.0
1463564111792169846,616,1463564111766601979,,6.48416376114,-2.75613474846,-171.559249878,0.0102629996836,1.0,0.0,0.0,0.0,1.0,0.0,0.0,0.0,1.0,9.81707286835,-3.41463422775,11.0365858078,1.0,0.0,0.0,0.0,1.0,0.0,0.0,0.0,1.0,-0.699106884766,-0.656011254883,-10.6781394043,1.0,0.0,0.0,0.0,1.0,0.0,0.0,0.0,1.0
1463564111794353685,617,1463564111776619486,,6.55942821503,-2.81037187576,-171.500473022,0.00996899977326,1.0,0.0,0.0,0.0,1.0,0.0,0.0,0.0,1.0,10.1219511032,-3.29268312454,10.7926826477,1.0,0.0,0.0,0.0,1.0,0.0,0.0,0.0,1.0,-0.737414111328,-0.9193734375,-10.3621047852,1.0,0.0,0.0,0.0,1.0,0.0,0.0,0.0,1.0
1463564111799776957,618,1463564111786597255,,6.634329319,-2.85738229752,-171.449569702,0.0100969998166,1.0,0.0,0.0,0.0,1.0,0.0,0.0,0.0,1.0,10.1829271317,-3.35365867615,9.93902492523,1.0,0.0,0.0,0.0,1.0,0.0,0.0,0.0,1.0,-0.61770402832,-0.905008227539,-10.524910498,1.0,0.0,0.0,0.0,1.0,0.0,0.0,0.0,1.0
1463564111801354201,619,1463564111796811475,,6.71643924713,-2.90918445587,-171.404922485,0.0105250002816,1.0,0.0,0.0,0.0,1.0,0.0,0.0,0.0,1.0,10.8536586761,-2.98780488968,9.08536529541,1.0,0.0,0.0,0.0,1.0,0.0,0.0,0.0,1.0,-0.751779321289,-0.847547387695,-10.3956236084,1.0,0.0,0.0,0.0,1.0,0.0,0.0,0.0,1.0
1463564111957100548,620,1463564111806903459,,6.8090429306,-2.94895815849,-171.378158569,0.00963800027966,1.0,0.0,0.0,0.0,1.0,0.0,0.0,0.0,1.0,11.7682924271,-2.62195134163,7.62195110321,1.0,0.0,0.0,0.0,1.0,0.0,0.0,0.0,1.0,-0.713472094727,-1.01514150391,-10.3956236084,1.0,0.0,0.0,0.0,1.0,0.0,0.0,0.0,1.0
1463564111957149557,621,1463564111816887634,,6.90781354904,-2.98399305344,-171.361099243,0.0101220002398,1.0,0.0,0.0,0.0,1.0,0.0,0.0,0.0,1.0,11.8902444839,-1.52439022064,6.40243911743,1.0,0.0,0.0,0.0,1.0,0.0,0.0,0.0,1.0,-0.823605371094,-1.02471831055,-10.3716815918,1.0,0.0,0.0,0.0,1.0,0.0,0.0,0.0,1.0
1463564111957410695,622,1463564111827220184,,7.01188278198,-3.00090670586,-171.354736328,0.0102279996499,1.0,0.0,0.0,0.0,1.0,0.0,0.0,0.0,1.0,11.2804880142,-0.304878056049,5.24390268326,1.0,0.0,0.0,0.0,1.0,0.0,0.0,0.0,1.0,-0.742202514648,-1.21625444336,-10.3094323486,1.0,0.0,0.0,0.0,1.0,0.0,0.0,0.0,1.0
1463564111957461422,623,1463564111836701405,,7.10445785522,-2.99672889709,-171.348846436,0.00994300004095,1.0,0.0,0.0,0.0,1.0,0.0,0.0,0.0,1.0,10.3048782349,0.975609779358,5.06097555161,1.0,0.0,0.0,0.0,1.0,0.0,0.0,0.0,1.0,-0.60812722168,-1.26892687988,-10.419565625,1.0,0.0,0.0,0.0,1.0,0.0,0.0,0.0,1.0
1463564111962106645,624,1463564111847660029,,7.18975925446,-2.97954273224,-171.347122192,0.0101199997589,1.0,0.0,0.0,0.0,1.0,0.0,0.0,0.0,1.0,9.02439117432,2.13414645195,4.51219558716,1.0,0.0,0.0,0.0,1.0,0.0,0.0,0.0,1.0,-0.593762048251,-1.35032973633,-10.3716815918,1.0,0.0,0.0,0.0,1.0,0.0,0.0,0.0,1.0
1463564111962451739,625,1463564111857006984,,7.27566242218,-2.94372582436,-171.35256958,0.0100859999657,1.0,0.0,0.0,0.0,1.0,0.0,0.0,0.0,1.0,8.23170757294,3.10975623131,3.71951246262,1.0,0.0,0.0,0.0,1.0,0.0,0.0,0.0,1.0,-0.450109912109,-1.53707746582,-10.4626612549,1.0,0.0,0.0,0.0,1.0,0.0,0.0,0.0,1.0
1463564111962729283,626,1463564111867717699,,7.34785223007,-2.89807343483,-171.366409302,0.0101209999993,1.0,0.0,0.0,0.0,1.0,0.0,0.0,0.0,1.0,5.97560977936,3.59756112099,2.86585378647,1.0,0.0,0.0,0.0,1.0,0.0,0.0,0.0,1.0,-0.373495458984,-1.69988317871,-10.4004120117,1.0,0.0,0.0,0.0,1.0,0.0,0.0,0.0,1.0
1463564111962999327,627,1463564111877536619,,7.37500190735,-2.85125207901,-171.377197266,0.0102329999208,1.0,0.0,0.0,0.0,1.0,0.0,0.0,0.0,1.0,4.14634132385,3.04878044128,3.10975623131,1.0,0.0,0.0,0.0,1.0,0.0,0.0,0.0,1.0,-0.244208569336,-1.21625444336,-10.3716815918,1.0,0.0,0.0,0.0,1.0,0.0,0.0,0.0,1.0
1463564111963283172,628,1463564111887984894,,7.40742063522,-2.80918216705,-171.39074707,0.00996800046414,1.0,0.0,0.0,0.0,1.0,0.0,0.0,0.0,1.0,3.41463422775,2.62195134163,2.92682933807,1.0,0.0,0.0,0.0,1.0,0.0,0.0,0.0,1.0,-0.225054956055,-1.44609780273,-10.2280294922,1.0,0.0,0.0,0.0,1.0,0.0,0.0,0.0,1.0
1463564111963647692,629,1463564111897747409,,7.43254947662,-2.7743062973,-171.405822754,0.0101079996675,1.0,0.0,0.0,0.0,1.0,0.0,0.0,0.0,1.0,2.5,1.64634156227,2.92682933807,1.0,0.0,0.0,0.0,1.0,0.0,0.0,0.0,1.0,-0.181959326172,-1.47961662598,-10.2376062988,1.0,0.0,0.0,0.0,1.0,0.0,0.0,0.0,1.0
1463564111965481490,630,1463564111907870330,,7.43949508667,-2.7439725399,-171.41859436,0.0100940000266,1.0,0.0,0.0,0.0,1.0,0.0,0.0,0.0,1.0,1.46341466904,1.2195122242,3.17073178291,1.0,0.0,0.0,0.0,1.0,0.0,0.0,0.0,1.0,-0.172382519531,-1.33596452637,-10.1609918457,1.0,0.0,0.0,0.0,1.0,0.0,0.0,0.0,1.0
1463564111965569561,631,1463564111917634303,,7.42783927917,-2.72234368324,-171.430877686,0.0100889997557,1.0,0.0,0.0,0.0,1.0,0.0,0.0,0.0,1.0,0.914634168148,0.18292683363,3.29268312454,1.0,0.0,0.0,0.0,1.0,0.0,0.0,0.0,1.0,-0.134075302102,-1.10612116699,-10.1992990723,1.0,0.0,0.0,0.0,1.0,0.0,0.0,0.0,1.0
1463564111965823407,632,1463564111927978623,,7.41879892349,-2.70509052277,-171.449279785,0.0101399999112,1.0,0.0,0.0,0.0,1.0,0.0,0.0,0.0,1.0,0.975609779358,-0.12195122242,2.74390244484,1.0,0.0,0.0,0.0,1.0,0.0,0.0,0.0,1.0,-0.167594116211,-1.13006318359,-10.1466266357,1.0,0.0,0.0,0.0,1.0,0.0,0.0,0.0,1.0
1463564111965870906,633,1463564111937776502,,7.41050243378,-2.69335579872,-171.464309692,0.0100670000538,1.0,0.0,0.0,0.0,1.0,0.0,0.0,0.0,1.0,0.365853667259,-0.670731723309,3.17073178291,1.0,0.0,0.0,0.0,1.0,0.0,0.0,0.0,1.0,-0.148440512063,-1.21625444336,-9.84016882324,1.0,0.0,0.0,0.0,1.0,0.0,0.0,0.0,1.0
1463564111966176261,634,1463564111947960306,,7.38266468048,-2.69017195702,-171.486343384,0.0101340003312,1.0,0.0,0.0,0.0,1.0,0.0,0.0,0.0,1.0,-0.670731723309,-1.09756100178,2.5,1.0,0.0,0.0,0.0,1.0,0.0,0.0,0.0,1.0,-0.239420166016,-1.06781401349,-9.97903251953,1.0,0.0,0.0,0.0,1.0,0.0,0.0,0.0,1.0
1463564111966670048,635,1463564111958493943,,7.36385583878,-2.6905670166,-171.515258789,0.0100520001724,1.0,0.0,0.0,0.0,1.0,0.0,0.0,0.0,1.0,-0.975609779358,-1.40243899822,1.8902438879,1.0,0.0,0.0,0.0,1.0,0.0,0.0,0.0,1.0,-0.258573779297,-1.2497732666,-9.83538041992,1.0,0.0,0.0,0.0,1.0,0.0,0.0,0.0,1.0
1463564112148046198,636,1463564111968168856,,7.34811306,-2.70351028442,-171.551437378,0.0101209999993,1.0,0.0,0.0,0.0,1.0,0.0,0.0,0.0,1.0,-0.609756112099,-1.64634156227,1.2195122242,1.0,0.0,0.0,0.0,1.0,0.0,0.0,0.0,1.0,-0.45489831543,-1.2497732666,-9.97903251953,1.0,0.0,0.0,0.0,1.0,0.0,0.0,0.0,1.0
1463564112148421968,637,1463564111978518229,,7.32168006897,-2.71204638481,-171.600143433,0.0101439999416,1.0,0.0,0.0,0.0,1.0,0.0,0.0,0.0,1.0,-1.46341466904,-1.8292683363,-0.0,1.0,0.0,0.0,0.0,1.0,0.0,0.0,0.0,1.0,-0.368707055664,-1.18273554705,-9.82580361328,1.0,0.0,0.0,0.0,1.0,0.0,0.0,0.0,1.0
1463564112148472852,638,1463564111988699637,,7.28653621674,-2.72144007683,-171.653579712,0.0101290000603,1.0,0.0,0.0,0.0,1.0,0.0,0.0,0.0,1.0,-1.8902438879,-1.8902438879,-0.487804889679,1.0,0.0,0.0,0.0,1.0,0.0,0.0,0.0,1.0,-0.387860668945,-1.10612116699,-9.90720646973,1.0,0.0,0.0,0.0,1.0,0.0,0.0,0.0,1.0
1463564112148825758,639,1463564111999122705,,7.2404384613,-2.72934293747,-171.703735352,0.0100469999015,1.0,0.0,0.0,0.0,1.0,0.0,0.0,0.0,1.0,-1.52439022064,-2.62195134163,-0.18292683363,1.0,0.0,0.0,0.0,1.0,0.0,0.0,0.0,1.0,-0.234631762695,-0.861912597656,-10.165780249,1.0,0.0,0.0,0.0,1.0,0.0,0.0,0.0,1.0
1463564112148883204,640,1463564112009355310,,7.20160484314,-2.74011063576,-171.750473022,0.0102989999577,1.0,0.0,0.0,0.0,1.0,0.0,0.0,0.0,1.0,-0.914634168148,-2.80487799644,0.304878056049,1.0,0.0,0.0,0.0,1.0,0.0,0.0,0.0,1.0,-0.234631762695,-0.881066210937,-10.0077629395,1.0,0.0,0.0,0.0,1.0,0.0,0.0,0.0,1.0
1463564112149096583,641,1463564112018671902,,7.17585134506,-2.76020789146,-171.79284668,0.0098729999736,1.0,0.0,0.0,0.0,1.0,0.0,0.0,0.0,1.0,0.426829278469,-3.35365867615,0.609756112099,1.0,0.0,0.0,0.0,1.0,0.0,0.0,0.0,1.0,-0.31124621582,-0.852335791016,-10.1035310059,1.0,0.0,0.0,0.0,1.0,0.0,0.0,0.0,1.0
1463564112149338086,642,1463564112028799771,,7.15815734863,-2.79626274109,-171.834320068,0.0101100001484,1.0,0.0,0.0,0.0,1.0,0.0,0.0,0.0,1.0,0.792682945728,-4.57317066193,0.975609779358,1.0,0.0,0.0,0.0,1.0,0.0,0.0,0.0,1.0,-0.359130249023,-0.92416184082,-9.95987890625,1.0,0.0,0.0,0.0,1.0,0.0,0.0,0.0,1.0
1463564112155886793,643,1463564112039764698,,7.1377325058,-2.83048939705,-171.856750488,0.0101180002093,1.0,0.0,0.0,0.0,1.0,0.0,0.0,0.0,1.0,0.792682945728,-4.69512224197,2.86585378647,1.0,0.0,0.0,0.0,1.0,0.0,0.0,0.0,1.0,-0.272938989258,-0.900219824219,-10.0795889893,1.0,0.0,0.0,0.0,1.0,0.0,0.0,0.0,1.0
1463564112162474822,644,1463564112049577629,,7.11840391159,-2.87053370476,-171.866134644,0.0100959995762,1.0,0.0,0.0,0.0,1.0,0.0,0.0,0.0,1.0,1.8292683363,-5.0,4.14634132385,1.0,0.0,0.0,0.0,1.0,0.0,0.0,0.0,1.0,-0.3064578125,-0.756567724609,-10.2950671387,1.0,0.0,0.0,0.0,1.0,0.0,0.0,0.0,1.0
1463564112162870591,645,1463564112059810443,,7.11373710632,-2.91134762764,-171.863708496,0.0101849995553,1.0,0.0,0.0,0.0,1.0,0.0,0.0,0.0,1.0,2.86585378647,-5.24390268326,5.36585378647,1.0,0.0,0.0,0.0,1.0,0.0,0.0,0.0,1.0,-0.248996972656,-0.837970581055,-10.2615483154,1.0,0.0,0.0,0.0,1.0,0.0,0.0,0.0,1.0
1463564112163173759,646,1463564112069898834,,7.1087641716,-2.96815228462,-171.839599609,0.0100159998983,1.0,0.0,0.0,0.0,1.0,0.0,0.0,0.0,1.0,4.02439022064,-5.42682933807,7.50000047684,1.0,0.0,0.0,0.0,1.0,0.0,0.0,0.0,1.0,-0.478840332031,-0.641646044922,-10.3094323486,1.0,0.0,0.0,0.0,1.0,0.0,0.0,0.0,1.0
1463564112163525415,647,1463564112079249904,,7.1249756813,-3.01779913902,-171.804855347,0.0100830001757,1.0,0.0,0.0,0.0,1.0,0.0,0.0,0.0,1.0,5.60975599289,-5.67073154449,8.59756088257,1.0,0.0,0.0,0.0,1.0,0.0,0.0,0.0,1.0,-0.282515795898,-0.742202514648,-10.2471831055,1.0,0.0,0.0,0.0,1.0,0.0,0.0,0.0,1.0
1463564112163578070,648,1463564112089288141,,7.16179037094,-3.0702047348,-171.756500244,0.0100940000266,1.0,0.0,0.0,0.0,1.0,0.0,0.0,0.0,1.0,7.19512224197,-5.42682933807,9.93902492523,1.0,0.0,0.0,0.0,1.0,0.0,0.0,0.0,1.0,-0.354341845703,-0.842758984375,-10.2615483154,1.0,0.0,0.0,0.0,1.0,0.0,0.0,0.0,1.0
1463564112163791449,649,1463564112100234943,,7.21192359924,-3.12054538727,-171.694168091,0.0103489998728,1.0,0.0,0.0,0.0,1.0,0.0,0.0,0.0,1.0,8.90243911743,-5.48780488968,11.1585359573,1.0,0.0,0.0,0.0,1.0,0.0,0.0,0.0,1.0,-0.263362164351,-0.76614453125,-10.2184526855,1.0,0.0,0.0,0.0,1.0,0.0,0.0,0.0,1.0
1463564112164110606,650,1463564112109595232,,7.28875732422,-3.15735006332,-171.631118774,0.00987199973315,1.0,0.0,0.0,0.0,1.0,0.0,0.0,0.0,1.0,11.2195119858,-5.18292713165,11.5243911743,1.0,0.0,0.0,0.0,1.0,0.0,0.0,0.0,1.0,-0.110133276367,-0.876277807617,-10.0269165527,1.0,0.0,0.0,0.0,1.0,0.0,0.0,0.0,1.0
1463564112164153990,651,1463564112119932834,,7.37308263779,-3.20065259933,-171.563156128,0.0101380003616,1.0,0.0,0.0,0.0,1.0,0.0,0.0,0.0,1.0,12.1341466904,-5.67073154449,11.8902444839,1.0,0.0,0.0,0.0,1.0,0.0,0.0,0.0,1.0,-0.119710083008,-0.842758984375,-10.2280294922,1.0,0.0,0.0,0.0,1.0,0.0,0.0,0.0,1.0
1463564112485848274,652,1463564112129885396,,7.47592496872,-3.24231648445,-171.502487183,0.0100670000538,1.0,0.0,0.0,0.0,1.0,0.0,0.0,0.0,1.0,14.2682924271,-5.30487823486,11.1585359573,1.0,0.0,0.0,0.0,1.0,0.0,0.0,0.0,1.0,-0.181959326172,-0.799663354492,-10.1083194092,1.0,0.0,0.0,0.0,1.0,0.0,0.0,0.0,1.0
1463564112485886970,653,1463564112140442055,,7.59570455551,-3.29291987419,-171.451461792,0.0101650003344,1.0,0.0,0.0,0.0,1.0,0.0,0.0,0.0,1.0,15.975610733,-5.54878091812,10.1829271317,1.0,0.0,0.0,0.0,1.0,0.0,0.0,0.0,1.0,-0.316034619141,-0.780509741211,-10.0700121826,1.0,0.0,0.0,0.0,1.0,0.0,0.0,0.0,1.0
1463564112492886966,654,1463564112150285453,,7.73375272751,-3.33682751656,-171.410888672,0.0101610003039,1.0,0.0,0.0,0.0,1.0,0.0,0.0,0.0,1.0,17.2560977936,-4.75609779358,9.08536529541,1.0,0.0,0.0,0.0,1.0,0.0,0.0,0.0,1.0,-0.368707055664,-0.876277807617,-9.96466730957,1.0,0.0,0.0,0.0,1.0,0.0,0.0,0.0,1.0
1463564112492969359,655,1463564112160264317,,7.87767744064,-3.37201142311,-171.378555298,0.0100109996274,1.0,0.0,0.0,0.0,1.0,0.0,0.0,0.0,1.0,17.7439022064,-3.90243911743,8.23170757294,1.0,0.0,0.0,0.0,1.0,0.0,0.0,0.0,1.0,-0.407014282227,-0.957680664062,-10.0748005859,1.0,0.0,0.0,0.0,1.0,0.0,0.0,0.0,1.0
1463564112493015243,656,1463564112170433903,,8.03113079071,-3.3932621479,-171.357528687,0.0100649995729,1.0,0.0,0.0,0.0,1.0,0.0,0.0,0.0,1.0,18.4146347046,-3.23170733452,7.01219511032,1.0,0.0,0.0,0.0,1.0,0.0,0.0,0.0,1.0,-0.3064578125,-0.995987890625,-9.95987890625,1.0,0.0,0.0,0.0,1.0,0.0,0.0,0.0,1.0
1463564112493067846,657,1463564112180973427,,8.19688034058,-3.40377831459,-171.347137451,0.0102019999176,1.0,0.0,0.0,0.0,1.0,0.0,0.0,0.0,1.0,18.9024391174,-2.80487799644,5.91463422775,1.0,0.0,0.0,0.0,1.0,0.0,0.0,0.0,1.0,-0.220266552734,-1.10133276367,-9.94072529297,1.0,0.0,0.0,0.0,1.0,0.0,0.0,0.0,1.0
1463564112493109928,658,1463564112191162284,,8.35736179352,-3.40339756012,-171.343063354,0.0101110003889,1.0,0.0,0.0,0.0,1.0,0.0,0.0,0.0,1.0,19.3292694092,-1.8902438879,5.12195110321,1.0,0.0,0.0,0.0,1.0,0.0,0.0,0.0,1.0,-0.215478149414,-0.995987890625,-10.0843773926,1.0,0.0,0.0,0.0,1.0,0.0,0.0,0.0,1.0
1463564112493147687,659,1463564112200964590,,8.5196352005,-3.39564085007,-171.348953247,0.00998799968511,1.0,0.0,0.0,0.0,1.0,0.0,0.0,0.0,1.0,19.2682914734,-1.8292683363,4.14634132385,1.0,0.0,0.0,0.0,1.0,0.0,0.0,0.0,1.0,-0.119710083008,-1.09175595703,-10.0748005859,1.0,0.0,0.0,0.0,1.0,0.0,0.0,0.0,1.0
1463564112494190208,660,1463564112211246829,,8.68958377838,-3.383040905,-171.364105225,0.0101110003889,1.0,0.0,0.0,0.0,1.0,0.0,0.0,0.0,1.0,19.5731716156,-1.70731711388,3.23170733452,1.0,0.0,0.0,0.0,1.0,0.0,0.0,0.0,1.0,-0.0814028564453,-1.16358193377,-10.1274730225,1.0,0.0,0.0,0.0,1.0,0.0,0.0,0.0,1.0
1463564112494273486,661,1463564112220902994,,8.85399436951,-3.37398123741,-171.38319397,0.0100739998743,1.0,0.0,0.0,0.0,1.0,0.0,0.0,0.0,1.0,19.2073173523,-1.52439022064,2.80487799644,1.0,0.0,0.0,0.0,1.0,0.0,0.0,0.0,1.0,-0.186747729492,-1.16837033709,-10.1322614258,1.0,0.0,0.0,0.0,1.0,0.0,0.0,0.0,1.0
1463564112494320464,662,1463564112231777872,,9.0200138092,-3.36385893822,-171.403594971,0.0101439999416,1.0,0.0,0.0,0.0,1.0,0.0,0.0,0.0,1.0,19.8780498505,-0.548780500889,2.5,1.0,0.0,0.0,0.0,1.0,0.0,0.0,0.0,1.0,-0.344765039063,-1.06781401349,-9.98860932617,1.0,0.0,0.0,0.0,1.0,0.0,0.0,0.0,1.0
1463564112495159553,663,1463564112241905897,,9.18944168091,-3.35190343857,-171.420806885,0.0100689996034,1.0,0.0,0.0,0.0,1.0,0.0,0.0,0.0,1.0,19.8780498505,-0.365853667259,2.80487799644,1.0,0.0,0.0,0.0,1.0,0.0,0.0,0.0,1.0,-0.339976635742,-1.20188930646,-10.1466266357,1.0,0.0,0.0,0.0,1.0,0.0,0.0,0.0,1.0
1463564112495243196,664,1463564112252192303,,9.36400127411,-3.33295440674,-171.441314697,0.0102399997413,1.0,0.0,0.0,0.0,1.0,0.0,0.0,0.0,1.0,19.4512195587,0.304878056049,2.43902444839,1.0,0.0,0.0,0.0,1.0,0.0,0.0,0.0,1.0,-0.349553442383,-1.34554133301,-10.1322614258,1.0,0.0,0.0,0.0,1.0,0.0,0.0,0.0,1.0
1463564112495325017,665,1463564112260982870,,9.53481769562,-3.30917453766,-171.455825806,0.00995299965143,1.0,0.0,0.0,0.0,1.0,0.0,0.0,0.0,1.0,19.3902435303,0.731707334518,2.92682933807,1.0,0.0,0.0,0.0,1.0,0.0,0.0,0.0,1.0,-0.31124621582,-1.41257897949,-10.1131078125,1.0,0.0,0.0,0.0,1.0,0.0,0.0,0.0,1.0
1463564112495370901,666,1463564112271398647,,9.70317745209,-3.28291654587,-171.467025757,0.0100940000266,1.0,0.0,0.0,0.0,1.0,0.0,0.0,0.0,1.0,19.3292694092,0.853658556938,3.23170733452,1.0,0.0,0.0,0.0,1.0,0.0,0.0,0.0,1.0,-0.282515795898,-1.37427175293,-10.1418382324,1.0,0.0,0.0,0.0,1.0,0.0,0.0,0.0,1.0
1463564112495475741,667,1463564112282059208,,9.86428356171,-3.26053142548,-171.481658936,0.010111999698,1.0,0.0,0.0,0.0,1.0,0.0,0.0,0.0,1.0,19.6951236725,0.609756112099,2.86585378647,1.0,0.0,0.0,0.0,1.0,0.0,0.0,0.0,1.0,-0.316034619141,-1.20188930646,-10.1705686523,1.0,0.0,0.0,0.0,1.0,0.0,0.0,0.0,1.0
1463564112495518292,668,1463564112292067185,,10.0321369171,-3.23551130295,-171.49446106,0.0101020000875,1.0,0.0,0.0,0.0,1.0,0.0,0.0,0.0,1.0,20.3048782349,0.975609779358,2.98780488968,1.0,0.0,0.0,0.0,1.0,0.0,0.0,0.0,1.0,-0.335188232422,-1.27850368652,-10.4291424316,1.0,0.0,0.0,0.0,1.0,0.0,0.0,0.0,1.0
1463564112495554177,669,1463564112302086724,,10.2059907913,-3.21215438843,-171.512512207,0.0101190004498,1.0,0.0,0.0,0.0,1.0,0.0,0.0,0.0,1.0,21.4634151459,0.914634168148,2.43902444839,1.0,0.0,0.0,0.0,1.0,0.0,0.0,0.0,1.0,-0.363918652344,-1.17794714373,-10.2950671387,1.0,0.0,0.0,0.0,1.0,0.0,0.0,0.0,1.0
1463564112495602925,670,1463564112312162303,,10.3851308823,-3.17522001266,-171.535186768,0.0101110003889,1.0,0.0,0.0,0.0,1.0,0.0,0.0,0.0,1.0,22.7439041138,1.46341466904,1.8292683363,1.0,0.0,0.0,0.0,1.0,0.0,0.0,0.0,1.0,-0.234631762695,-1.07739082014,-10.3812583984,1.0,0.0,0.0,0.0,1.0,0.0,0.0,0.0,1.0
1463564112495647038,671,1463564112322723128,,10.5849046707,-3.14602422714,-171.563247681,0.0103489998728,1.0,0.0,0.0,0.0,1.0,0.0,0.0,0.0,1.0,24.6341457367,1.09756100178,1.40243899822,1.0,0.0,0.0,0.0,1.0,0.0,0.0,0.0,1.0,-0.325611425781,-1.03429511719,-10.2328178955,1.0,0.0,0.0,0.0,1.0,0.0,0.0,0.0,1.0
1463564112495686777,672,1463564112332321847,,10.7756872177,-3.11119651794,-171.596130371,0.00987000018358,1.0,0.0,0.0,0.0,1.0,0.0,0.0,0.0,1.0,25.975610733,1.8902438879,0.548780500889,1.0,0.0,0.0,0.0,1.0,0.0,0.0,0.0,1.0,-0.363918652344,-0.828393774414,-10.2902787354,1.0,0.0,0.0,0.0,1.0,0.0,0.0,0.0,1.0
1463564112495723546,673,1463564112342074207,,10.9971389771,-3.06626653671,-171.638442993,0.0100429998711,1.0,0.0,0.0,0.0,1.0,0.0,0.0,0.0,1.0,28.5365848541,2.01219511032,-0.365853667259,1.0,0.0,0.0,0.0,1.0,0.0,0.0,0.0,1.0,-0.244208569336,-0.895431420898,-10.4099888184,1.0,0.0,0.0,0.0,1.0,0.0,0.0,0.0,1.0
1463564112495767920,674,1463564112352132338,,11.2340011597,-3.01816534996,-171.687683105,0.0101100001484,1.0,0.0,0.0,0.0,1.0,0.0,0.0,0.0,1.0,30.975610733,2.31707310677,-1.15853655338,1.0,0.0,0.0,0.0,1.0,0.0,0.0,0.0,1.0,-0.263362164351,-0.718260498047,-10.2040874756,1.0,0.0,0.0,0.0,1.0,0.0,0.0,0.0,1.0
1463564112495804533,675,1463564112362387287,,11.5015306473,-2.95263671875,-171.74180603,0.0101100001484,1.0,0.0,0.0,0.0,1.0,0.0,0.0,0.0,1.0,33.2926826477,2.74390244484,-1.70731711388,1.0,0.0,0.0,0.0,1.0,0.0,0.0,0.0,1.0,-0.0430956298828,-0.881066210937,-10.1178962158,1.0,0.0,0.0,0.0,1.0,0.0,0.0,0.0,1.0
1463564112495846355,676,1463564112372643590,,11.7943220139,-2.896027565,-171.800827026,0.0100969998166,1.0,0.0,0.0,0.0,1.0,0.0,0.0,0.0,1.0,35.9146347046,2.62195134163,-2.19512200356,1.0,0.0,0.0,0.0,1.0,0.0,0.0,0.0,1.0,-0.191536132812,-0.9193734375,-10.2184526855,1.0,0.0,0.0,0.0,1.0,0.0,0.0,0.0,1.0
1463564112495884010,677,1463564112382787500,,12.1209106445,-2.8416159153,-171.861984253,0.0101250000298,1.0,0.0,0.0,0.0,1.0,0.0,0.0,0.0,1.0,38.5365829468,2.92682933807,-2.43902444839,1.0,0.0,0.0,0.0,1.0,0.0,0.0,0.0,1.0,-0.292092584273,-1.08217922346,-10.1609918457,1.0,0.0,0.0,0.0,1.0,0.0,0.0,0.0,1.0
1463564112495920467,678,1463564112392814852,,12.4519443512,-2.78133177757,-171.921478271,0.0100999996066,1.0,0.0,0.0,0.0,1.0,0.0,0.0,0.0,1.0,40.9756088257,4.20731735229,-2.68292689323,1.0,0.0,0.0,0.0,1.0,0.0,0.0,0.0,1.0,-0.411802685547,-0.790086547852,-10.1226846191,1.0,0.0,0.0,0.0,1.0,0.0,0.0,0.0,1.0
1463564112495970831,679,1463564112402767726,,12.8335199356,-2.71704721451,-171.988510132,0.0100919995457,1.0,0.0,0.0,0.0,1.0,0.0,0.0,0.0,1.0,45.182926178,4.39024400711,-3.47560977936,1.0,0.0,0.0,0.0,1.0,0.0,0.0,0.0,1.0,-0.407014282227,-1.01035310059,-10.2759135254,1.0,0.0,0.0,0.0,1.0,0.0,0.0,0.0,1.0
1463564112499995604,680,1463564112412770287,,13.2219409943,-2.63518714905,-172.056091309,0.0101039996371,1.0,0.0,0.0,0.0,1.0,0.0,0.0,0.0,1.0,46.5243911743,5.73170757294,-3.90243911743,1.0,0.0,0.0,0.0,1.0,0.0,0.0,0.0,1.0,-0.359130249023,-0.995987890625,-10.7643306641,1.0,0.0,0.0,0.0,1.0,0.0,0.0,0.0,1.0
1463564112500068987,681,1463564112422641601,,13.6626548767,-2.55070328712,-172.125549316,0.0100619997829,1.0,0.0,0.0,0.0,1.0,0.0,0.0,0.0,1.0,50.8536605835,5.85365867615,-4.14634132385,1.0,0.0,0.0,0.0,1.0,0.0,0.0,0.0,1.0,-0.316034619141,-1.20667770978,-10.2280294922,1.0,0.0,0.0,0.0,1.0,0.0,0.0,0.0,1.0
1463564112500142110,682,1463564112433147428,,14.1438465118,-2.4549164772,-172.207260132,0.010111999698,1.0,0.0,0.0,0.0,1.0,0.0,0.0,0.0,1.0,54.390247345,6.21951246262,-5.48780488968,1.0,0.0,0.0,0.0,1.0,0.0,0.0,0.0,1.0,-0.239420166016,-1.32638771973,-10.2280294922,1.0,0.0,0.0,0.0,1.0,0.0,0.0,0.0,1.0
1463564112501155725,683,1463564112443438469,,14.6638717651,-2.35450530052,-172.287460327,0.0101889995858,1.0,0.0,0.0,0.0,1.0,0.0,0.0,0.0,1.0,57.8048820496,6.34146356583,-5.36585378647,1.0,0.0,0.0,0.0,1.0,0.0,0.0,0.0,1.0,-0.177170922852,-1.38863696289,-9.96466730957,1.0,0.0,0.0,0.0,1.0,0.0,0.0,0.0,1.0
1463564112501215567,684,1463564112453648367,,15.1957178116,-2.25005507469,-172.373260498,0.0101420003921,1.0,0.0,0.0,0.0,1.0,0.0,0.0,0.0,1.0,60.3658561707,6.58536624908,-6.15853643417,1.0,0.0,0.0,0.0,1.0,0.0,0.0,0.0,1.0,-0.172382519531,-1.28329208984,-10.060435376,1.0,0.0,0.0,0.0,1.0,0.0,0.0,0.0,1.0
1463564112501304158,685,1463564112463057821,,15.7482881546,-2.13983774185,-172.455734253,0.00997999962419,1.0,0.0,0.0,0.0,1.0,0.0,0.0,0.0,1.0,63.1097564697,6.40243911743,-5.97560977936,1.0,0.0,0.0,0.0,1.0,0.0,0.0,0.0,1.0,0.00478840332031,-1.41736738281,-10.060435376,1.0,0.0,0.0,0.0,1.0,0.0,0.0,0.0,1.0
1463564112501342438,686,1463564112473735152,,16.3354358673,-2.03429031372,-172.542984009,0.0101260002702,1.0,0.0,0.0,0.0,1.0,0.0,0.0,0.0,1.0,65.8536605835,5.91463422775,-6.28048801422,1.0,0.0,0.0,0.0,1.0,0.0,0.0,0.0,1.0,-0.0335188255255,-1.5083470459,-10.1514150391,1.0,0.0,0.0,0.0,1.0,0.0,0.0,0.0,1.0
1463564112501401707,687,1463564112483195698,,16.9573783875,-1.92755460739,-172.619979858,0.0100809996948,1.0,0.0,0.0,0.0,1.0,0.0,0.0,0.0,1.0,69.0853652954,6.0365858078,-5.36585378647,1.0,0.0,0.0,0.0,1.0,0.0,0.0,0.0,1.0,0.0239420166016,-1.67115275879,-9.90241806641,1.0,0.0,0.0,0.0,1.0,0.0,0.0,0.0,1.0
1463564112501526703,688,1463564112493757460,,17.6246566772,-1.80978703499,-172.701690674,0.0102810002863,1.0,0.0,0.0,0.0,1.0,0.0,0.0,0.0,1.0,72.8048782349,6.21951246262,-5.85365867615,1.0,0.0,0.0,0.0,1.0,0.0,0.0,0.0,1.0,0.124498486328,-1.69030637207,-9.89762966309,1.0,0.0,0.0,0.0,1.0,0.0,0.0,0.0,1.0
1463564112597667947,689,1463564112504069439,,18.317533493,-1.71122598648,-172.772476196,0.00994400028139,1.0,0.0,0.0,0.0,1.0,0.0,0.0,0.0,1.0,76.9512252808,5.67073154449,-4.87804889679,1.0,0.0,0.0,0.0,1.0,0.0,0.0,0.0,1.0,0.0,-1.89620771484,-9.71567033691,1.0,0.0,0.0,0.0,1.0,0.0,0.0,0.0,1.0
1463564112609313843,690,1463564112514366678,,19.0577259064,-1.59611260891,-172.839035034,0.0101030003279,1.0,0.0,0.0,0.0,1.0,0.0,0.0,0.0,1.0,80.0,6.52439069748,-4.69512224197,1.0,0.0,0.0,0.0,1.0,0.0,0.0,0.0,1.0,0.129286889648,-2.11647412145,-9.69172832031,1.0,0.0,0.0,0.0,1.0,0.0,0.0,0.0,1.0
1463564112610143922,691,1463564112524189244,,19.8241024017,-1.49328494072,-172.879455566,0.0100880004466,1.0,0.0,0.0,0.0,1.0,0.0,0.0,0.0,1.0,82.9268341064,6.82926845551,-2.19512200356,1.0,0.0,0.0,0.0,1.0,0.0,0.0,0.0,1.0,0.0191536132812,-2.18351191406,-9.5193463853,1.0,0.0,0.0,0.0,1.0,0.0,0.0,0.0,1.0
1463564112610430424,692,1463564112534397944,,20.613199234,-1.38530385494,-172.910964966,0.010095000267,1.0,0.0,0.0,0.0,1.0,0.0,0.0,0.0,1.0,85.365852356,7.56097555161,-1.64634156227,1.0,0.0,0.0,0.0,1.0,0.0,0.0,0.0,1.0,0.0287304199219,-2.30322199707,-9.61032604839,1.0,0.0,0.0,0.0,1.0,0.0,0.0,0.0,1.0
1463564112610648074,693,1463564112543985569,,21.4310474396,-1.28037428856,-172.926132202,0.0100910002366,1.0,0.0,0.0,0.0,1.0,0.0,0.0,0.0,1.0,87.6219558716,7.31707334518,0.0609756112099,1.0,0.0,0.0,0.0,1.0,0.0,0.0,0.0,1.0,0.134075302102,-2.55221896973,-9.55765361187,1.0,0.0,0.0,0.0,1.0,0.0,0.0,0.0,1.0
1463564112610990667,694,1463564112554015993,,22.2676677704,-1.1660040617,-172.925567627,0.0100990002975,1.0,0.0,0.0,0.0,1.0,0.0,0.0,0.0,1.0,89.3292694092,7.98780536652,1.34146344662,1.0,0.0,0.0,0.0,1.0,0.0,0.0,0.0,1.0,0.277727392578,-2.63841022949,-9.2655604248,1.0,0.0,0.0,0.0,1.0,0.0,0.0,0.0,1.0
1463564112611240920,695,1463564112563912776,,23.120388031,-1.08109164238,-172.896896362,0.0100819999352,1.0,0.0,0.0,0.0,1.0,0.0,0.0,0.0,1.0,89.4512252808,7.25609779358,4.57317066193,1.0,0.0,0.0,0.0,1.0,0.0,0.0,0.0,1.0,0.134075302102,-3.15555778809,-9.46667277974,1.0,0.0,0.0,0.0,1.0,0.0,0.0,0.0,1.0
1463564112611502162,696,1463564112574060384,,23.9710330963,-1.00242364407,-172.849914551,0.010106000118,1.0,0.0,0.0,0.0,1.0,0.0,0.0,0.0,1.0,89.634147644,7.43902492523,6.34146356583,1.0,0.0,0.0,0.0,1.0,0.0,0.0,0.0,1.0,0.138863696289,-3.19386501465,-9.42357714985,1.0,0.0,0.0,0.0,1.0,0.0,0.0,0.0,1.0
1463564112637004095,697,1463564112584459964,,24.8474903107,-0.942509591579,-172.780166626,0.0101250000298,1.0,0.0,0.0,0.0,1.0,0.0,0.0,0.0,1.0,90.365852356,7.74390268326,8.59756088257,1.0,0.0,0.0,0.0,1.0,0.0,0.0,0.0,1.0,-0.0478840332031,-3.59609089355,-9.22725319824,1.0,0.0,0.0,0.0,1.0,0.0,0.0,0.0,1.0
1463564112637052219,698,1463564112595101932,,25.7368927002,-0.870769381523,-172.695877075,0.010111999698,1.0,0.0,0.0,0.0,1.0,0.0,0.0,0.0,1.0,90.0609741211,8.65853691101,9.69512176514,1.0,0.0,0.0,0.0,1.0,0.0,0.0,0.0,1.0,0.124498486328,-4.01747038574,-9.06444748535,1.0,0.0,0.0,0.0,1.0,0.0,0.0,0.0,1.0
1463564112637121436,699,1463564112604590289,,26.6118907928,-0.814855992794,-172.597961426,0.0100840004161,1.0,0.0,0.0,0.0,1.0,0.0,0.0,0.0,1.0,88.9634170532,8.35365867615,11.2804880142,1.0,0.0,0.0,0.0,1.0,0.0,0.0,0.0,1.0,0.0574608398438,-4.0557776123,-8.81066210937,1.0,0.0,0.0,0.0,1.0,0.0,0.0,0.0,1.0
1463564112637159299,700,1463564112614621703,,27.4810943604,-0.752603709698,-172.494552612,0.0101279998198,1.0,0.0,0.0,0.0,1.0,0.0,0.0,0.0,1.0,89.3902435303,8.5365858078,11.6463422775,1.0,0.0,0.0,0.0,1.0,0.0,0.0,0.0,1.0,0.196324536133,-3.97916315918,-8.85375773926,1.0,0.0,0.0,0.0,1.0,0.0,0.0,0.0,1.0
1463564112844566067,701,1463564112624872850,,28.3416442871,-0.703729212284,-172.379852295,0.0100940000266,1.0,0.0,0.0,0.0,1.0,0.0,0.0,0.0,1.0,90.792678833,7.92682981491,13.1707324982,1.0,0.0,0.0,0.0,1.0,0.0,0.0,0.0,1.0,0.220266552734,-3.73016618652,-8.75320126953,1.0,0.0,0.0,0.0,1.0,0.0,0.0,0.0,1.0
1463564112844617524,702,1463564112634827860,,29.2273368835,-0.645821392536,-172.268981934,0.0100779999048,1.0,0.0,0.0,0.0,1.0,0.0,0.0,0.0,1.0,92.9878005981,7.31707334518,13.048781395,1.0,0.0,0.0,0.0,1.0,0.0,0.0,0.0,1.0,0.488417138672,-3.91691391602,-8.64785698101,1.0,0.0,0.0,0.0,1.0,0.0,0.0,0.0,1.0
1463564112844863662,703,1463564112644696518,,30.1331272125,-0.60251480341,-172.16116333,0.0100870002061,1.0,0.0,0.0,0.0,1.0,0.0,0.0,0.0,1.0,94.8780517578,5.67073154449,13.5975618362,1.0,0.0,0.0,0.0,1.0,0.0,0.0,0.0,1.0,0.555454785156,-3.96479794922,-8.39885883931,1.0,0.0,0.0,0.0,1.0,0.0,0.0,0.0,1.0
1463564112845178653,704,1463564112657002394,,31.1009521484,-0.566232740879,-172.066635132,0.0102129997686,1.0,0.0,0.0,0.0,1.0,0.0,0.0,0.0,1.0,97.7439041138,4.14634132385,12.8658542633,1.0,0.0,0.0,0.0,1.0,0.0,0.0,0.0,1.0,0.627280834961,-4.42927307129,-8.23126530762,1.0,0.0,0.0,0.0,1.0,0.0,0.0,0.0,1.0
1463564112845434062,705,1463564112668367205,,32.1614646912,-0.550176978111,-171.965133667,0.0112450001761,1.0,0.0,0.0,0.0,1.0,0.0,0.0,0.0,1.0,96.9512252808,1.76829278469,14.0853662491,1.0,0.0,0.0,0.0,1.0,0.0,0.0,0.0,1.0,0.785298144531,-4.83149924246,-8.50899328472,1.0,0.0,0.0,0.0,1.0,0.0,0.0,0.0,1.0
1463564112849301757,706,1463564112676791115,,33.0862350464,-0.57012796402,-171.879074097,0.00963700003922,1.0,0.0,0.0,0.0,1.0,0.0,0.0,0.0,1.0,96.4024429321,0.548780500889,14.8780498505,1.0,0.0,0.0,0.0,1.0,0.0,0.0,0.0,1.0,0.45489831543,-5.26245524902,-8.14028564453,1.0,0.0,0.0,0.0,1.0,0.0,0.0,0.0,1.0
1463564112850616560,707,1463564112687809791,,33.9688873291,-0.617927968502,-171.807434082,0.00936099980026,1.0,0.0,0.0,0.0,1.0,0.0,0.0,0.0,1.0,95.4268341064,-1.40243899822,14.7560987473,1.0,0.0,0.0,0.0,1.0,0.0,0.0,0.0,1.0,0.220266552734,-5.26245524902,-8.07324799805,1.0,0.0,0.0,0.0,1.0,0.0,0.0,0.0,1.0
1463564112853126432,708,1463564112698251921,,34.8951263428,-0.674755990505,-171.741287231,0.0100619997829,1.0,0.0,0.0,0.0,1.0,0.0,0.0,0.0,1.0,95.0609817505,-1.8902438879,13.9024391174,1.0,0.0,0.0,0.0,1.0,0.0,0.0,0.0,1.0,0.129286889648,-5.23851323242,-8.35576320942,1.0,0.0,0.0,0.0,1.0,0.0,0.0,0.0,1.0
1463564112853289448,709,1463564112713687233,,36.2514343262,-0.796681523323,-171.660385132,0.0148329995573,1.0,0.0,0.0,0.0,1.0,0.0,0.0,0.0,1.0,94.6951293945,-3.29268312454,13.7195129395,1.0,0.0,0.0,0.0,1.0,0.0,0.0,0.0,1.0,-0.119710083008,-5.05655390625,-7.85776984863,1.0,0.0,0.0,0.0,1.0,0.0,0.0,0.0,1.0
1463564112853543867,710,1463564112718058298,,36.7514419556,-0.832946121693,-171.631500244,0.00543599994853,1.0,0.0,0.0,0.0,1.0,0.0,0.0,0.0,1.0,95.0,-3.23170733452,13.658536911,1.0,0.0,0.0,0.0,1.0,0.0,0.0,0.0,1.0,0.114921679688,-5.23851323242,-7.6614453125,1.0,0.0,0.0,0.0,1.0,0.0,0.0,0.0,1.0
1463564112853835421,711,1463564112727014849,,37.7142601013,-0.907080709934,-171.580276489,0.0100549999624,1.0,0.0,0.0,0.0,1.0,0.0,0.0,0.0,1.0,98.414642334,-4.14634132385,14.2073173523,1.0,0.0,0.0,0.0,1.0,0.0,0.0,0.0,1.0,0.177170922852,-5.31991608887,-7.53215842285,1.0,0.0,0.0,0.0,1.0,0.0,0.0,0.0,1.0
1463564112854087705,712,1463564112736922516,,38.760307312,-0.975838720798,-171.529571533,0.0108639998361,1.0,0.0,0.0,0.0,1.0,0.0,0.0,0.0,1.0,98.9634170532,-3.96341490746,13.7195129395,1.0,0.0,0.0,0.0,1.0,0.0,0.0,0.0,1.0,0.287304199219,-5.64073911133,-7.71411774902,1.0,0.0,0.0,0.0,1.0,0.0,0.0,0.0,1.0
1463564112854249367,713,1463564112749266256,,39.6735877991,-1.04650330544,-171.493682861,0.00933500006795,1.0,0.0,0.0,0.0,1.0,0.0,0.0,0.0,1.0,98.9024353027,-5.48780488968,14.1463422775,1.0,0.0,0.0,0.0,1.0,0.0,0.0,0.0,1.0,0.320823022461,-5.93762011719,-7.37414111328,1.0,0.0,0.0,0.0,1.0,0.0,0.0,0.0,1.0
1463564112858063365,714,1463564112758718156,,40.8382263184,-1.15366697311,-171.458007812,0.0119089996442,1.0,0.0,0.0,0.0,1.0,0.0,0.0,0.0,1.0,99.7560958862,-6.52439069748,14.1463422775,1.0,0.0,0.0,0.0,1.0,0.0,0.0,0.0,1.0,0.215478149414,-5.99986936035,-7.45075556641,1.0,0.0,0.0,0.0,1.0,0.0,0.0,0.0,1.0
1463564112858609026,715,1463564112766328810,,41.6682853699,-1.24135541916,-171.440200806,0.00834000017494,1.0,0.0,0.0,0.0,1.0,0.0,0.0,0.0,1.0,99.5121994019,-7.86585378647,14.5121955872,1.0,0.0,0.0,0.0,1.0,0.0,0.0,0.0,1.0,0.15801730957,-6.30632717285,-7.00543405762,1.0,0.0,0.0,0.0,1.0,0.0,0.0,0.0,1.0
1463564112858664857,716,1463564112779135348,,42.8781585693,-1.39068388939,-171.428878784,0.0124450000003,1.0,0.0,0.0,0.0,1.0,0.0,0.0,0.0,1.0,98.1707305908,-8.35365867615,13.5975618362,1.0,0.0,0.0,0.0,1.0,0.0,0.0,0.0,1.0,-0.143652099609,-6.44040246582,-7.19697019043,1.0,0.0,0.0,0.0,1.0,0.0,0.0,0.0,1.0
1463564112861971996,717,1463564112789782785,,43.7936439514,-1.52270519733,-171.424026489,0.00947999954224,1.0,0.0,0.0,0.0,1.0,0.0,0.0,0.0,1.0,96.7682952881,-9.26829242706,14.2682924271,1.0,0.0,0.0,0.0,1.0,0.0,0.0,0.0,1.0,-0.296881024126,-6.54095893555,-6.82347473145,1.0,0.0,0.0,0.0,1.0,0.0,0.0,0.0,1.0
1463564112862775253,718,1463564112798637307,,44.6199073792,-1.64017403126,-171.416595459,0.00848199985921,1.0,0.0,0.0,0.0,1.0,0.0,0.0,0.0,1.0,96.7682952881,-8.35365867615,14.2073173523,1.0,0.0,0.0,0.0,1.0,0.0,0.0,0.0,1.0,-0.440533105469,-7.06289489746,-6.92403120117,1.0,0.0,0.0,0.0,1.0,0.0,0.0,0.0,1.0
1463564112862837960,719,1463564112806482746,,45.5936851501,-1.76766657829,-171.406555176,0.00997000001371,1.0,0.0,0.0,0.0,1.0,0.0,0.0,0.0,1.0,95.0609817505,-7.68292665482,14.0853662491,1.0,0.0,0.0,0.0,1.0,0.0,0.0,0.0,1.0,-0.368707055664,-7.35977590332,-6.53617053223,1.0,0.0,0.0,0.0,1.0,0.0,0.0,0.0,1.0
1463564112862878115,720,1463564112817091955,,46.5467681885,-1.89055430889,-171.403152466,0.0100859999657,1.0,0.0,0.0,0.0,1.0,0.0,0.0,0.0,1.0,92.0121994019,-7.25609779358,12.9878053665,1.0,0.0,0.0,0.0,1.0,0.0,0.0,0.0,1.0,-0.507570751953,-8.02057556152,-6.91924279785,1.0,0.0,0.0,0.0,1.0,0.0,0.0,0.0,1.0
1463564112863211230,721,1463564112826782077,,47.4571113586,-2.00462555885,-171.395996094,0.0100769996643,1.0,0.0,0.0,0.0,1.0,0.0,0.0,0.0,1.0,86.6463470459,-7.01219511032,13.5975618362,1.0,0.0,0.0,0.0,1.0,0.0,0.0,0.0,1.0,-0.31124621582,-8.18338127441,-6.53138212891,1.0,0.0,0.0,0.0,1.0,0.0,0.0,0.0,1.0
1463564112863456795,722,1463564112840035892,,48.2964401245,-2.10392427444,-171.378158569,0.0101460004225,1.0,0.0,0.0,0.0,1.0,0.0,0.0,0.0,1.0,78.9634170532,-4.69512224197,12.8658542633,1.0,0.0,0.0,0.0,1.0,0.0,0.0,0.0,1.0,-0.45489831543,-8.71489404297,-6.70376464844,1.0,0.0,0.0,0.0,1.0,0.0,0.0,0.0,1.0
1463564112863505231,723,1463564112847023805,,49.0928993225,-2.2091562748,-171.364318848,0.0100490003824,1.0,0.0,0.0,0.0,1.0,0.0,0.0,0.0,1.0,75.3048782349,-5.42682933807,13.3536586761,1.0,0.0,0.0,0.0,1.0,0.0,0.0,0.0,1.0,-0.435744702148,-8.80587370605,-6.52659372559,1.0,0.0,0.0,0.0,1.0,0.0,0.0,0.0,1.0
1463564112863789545,724,1463564112857525569,,49.9886665344,-2.34660434723,-171.343765259,0.0103150000796,1.0,0.0,0.0,0.0,1.0,0.0,0.0,0.0,1.0,75.7926864624,-4.02439022064,13.3536586761,1.0,0.0,0.0,0.0,1.0,0.0,0.0,0.0,1.0,-1.09175595703,-8.9591026123,-4.84586416016,1.0,0.0,0.0,0.0,1.0,0.0,0.0,0.0,1.0
1463564113246724799,725,1463564112868383416,,50.6545257568,-2.45229268074,-171.323257446,0.00988799985498,1.0,0.0,0.0,0.0,1.0,0.0,0.0,0.0,1.0,63.2317123413,-4.81707286835,14.2073173523,1.0,0.0,0.0,0.0,1.0,0.0,0.0,0.0,1.0,-0.469263525391,-9.11711992188,-6.30153876953,1.0,0.0,0.0,0.0,1.0,0.0,0.0,0.0,1.0
1463564113246760475,726,1463564112877202679,,51.2613563538,-2.50975036621,-171.318481445,0.0101009998471,1.0,0.0,0.0,0.0,1.0,0.0,0.0,0.0,1.0,60.9146347046,-3.7804877758,10.2439022064,1.0,0.0,0.0,0.0,1.0,0.0,0.0,0.0,1.0,-0.234631762695,-8.44674287251,-6.85220515137,1.0,0.0,0.0,0.0,1.0,0.0,0.0,0.0,1.0
1463564113246790683,727,1463564112889002894,,51.8728408813,-2.57871484756,-171.356063843,0.0101159997284,1.0,0.0,0.0,0.0,1.0,0.0,0.0,0.0,1.0,59.4512176514,-7.01219511032,7.86585378647,1.0,0.0,0.0,0.0,1.0,0.0,0.0,0.0,1.0,-0.426167895508,-8.53293530132,-6.37815322266,1.0,0.0,0.0,0.0,1.0,0.0,0.0,0.0,1.0
1463564113246878597,728,1463564112898286518,,52.4799041748,-2.60128283501,-171.383377075,0.0105879995972,1.0,0.0,0.0,0.0,1.0,0.0,0.0,0.0,1.0,56.4634132385,-4.51219558716,6.58536624908,1.0,0.0,0.0,0.0,1.0,0.0,0.0,0.0,1.0,-0.0430956298828,-8.53772370464,-6.25844313965,1.0,0.0,0.0,0.0,1.0,0.0,0.0,0.0,1.0
1463564113246924168,729,1463564112909051867,,52.9945678711,-2.64721488953,-171.438934326,0.00962300039828,1.0,0.0,0.0,0.0,1.0,0.0,0.0,0.0,1.0,53.2926864624,-7.13414621353,4.81707286835,1.0,0.0,0.0,0.0,1.0,0.0,0.0,0.0,1.0,-0.521935925381,-8.66222219097,-6.40209523926,1.0,0.0,0.0,0.0,1.0,0.0,0.0,0.0,1.0
1463564113246967604,730,1463564112920881091,,53.5053939819,-2.66412639618,-171.498260498,0.0100790001452,1.0,0.0,0.0,0.0,1.0,0.0,0.0,0.0,1.0,48.2317085266,-6.28048801422,3.71951246262,1.0,0.0,0.0,0.0,1.0,0.0,0.0,0.0,1.0,-0.220266552734,-9.15542714844,-6.10042583008,1.0,0.0,0.0,0.0,1.0,0.0,0.0,0.0,1.0
1463564113247044842,731,1463564112929831027,,54.0365142822,-2.70524811745,-171.570220947,0.0116520002484,1.0,0.0,0.0,0.0,1.0,0.0,0.0,0.0,1.0,43.3536567688,-6.34146356583,3.35365867615,1.0,0.0,0.0,0.0,1.0,0.0,0.0,0.0,1.0,-0.665588061523,-9.50019277202,-6.26323154297,1.0,0.0,0.0,0.0,1.0,0.0,0.0,0.0,1.0
1463564113247081403,732,1463564112939085746,,54.3828964233,-2.72097563744,-171.617630005,0.00856999959797,1.0,0.0,0.0,0.0,1.0,0.0,0.0,0.0,1.0,37.134147644,-4.93902444839,2.62195134163,1.0,0.0,0.0,0.0,1.0,0.0,0.0,0.0,1.0,-0.612915625,-9.48103915874,-5.8705824707,1.0,0.0,0.0,0.0,1.0,0.0,0.0,0.0,1.0
1463564113247118589,733,1463564112951610418,,54.699836731,-2.74881768227,-171.675430298,0.0101340003312,1.0,0.0,0.0,0.0,1.0,0.0,0.0,0.0,1.0,31.0975627899,-5.06097555161,2.25609779358,1.0,0.0,0.0,0.0,1.0,0.0,0.0,0.0,1.0,-0.833182177734,-9.02135185547,-6.21534750977,1.0,0.0,0.0,0.0,1.0,0.0,0.0,0.0,1.0
1463564113249236234,734,1463564112957969755,,54.986240387,-2.72209882736,-171.739807129,0.0100680002943,1.0,0.0,0.0,0.0,1.0,0.0,0.0,0.0,1.0,26.2195129395,-3.29268312454,-1.2804877758,1.0,0.0,0.0,0.0,1.0,0.0,0.0,0.0,1.0,-0.588973571866,-9.84495722656,-6.2009822998,1.0,0.0,0.0,0.0,1.0,0.0,0.0,0.0,1.0
1463564113249277430,735,1463564112970228862,,55.2388687134,-2.7141919136,-171.815155029,0.0108650000766,1.0,0.0,0.0,0.0,1.0,0.0,0.0,0.0,1.0,19.0853652954,-4.57317066193,-0.243902444839,1.0,0.0,0.0,0.0,1.0,0.0,0.0,0.0,1.0,-0.670376464844,-10.2471831055,-5.90888969727,1.0,0.0,0.0,0.0,1.0,0.0,0.0,0.0,1.0
1463564113249317012,736,1463564112978371427,,55.3643074036,-2.67546010017,-171.845199585,0.00935200043023,1.0,0.0,0.0,0.0,1.0,0.0,0.0,0.0,1.0,9.51219558716,-0.304878056049,0.0609756112099,1.0,0.0,0.0,0.0,1.0,0.0,0.0,0.0,1.0,-0.383072265625,-9.5193463853,-5.45399138184,1.0,0.0,0.0,0.0,1.0,0.0,0.0,0.0,1.0
1463564113249356386,737,1463564112988306021,,55.4252891541,-2.62596058846,-171.922058105,0.0101180002093,1.0,0.0,0.0,0.0,1.0,0.0,0.0,0.0,1.0,4.02439022064,-3.53658556938,-3.10975623131,1.0,0.0,0.0,0.0,1.0,0.0,0.0,0.0,1.0,-0.421379492187,-10.2184526855,-6.33505759277,1.0,0.0,0.0,0.0,1.0,0.0,0.0,0.0,1.0
1463564113257748163,738,1463564112998701330,,55.4223632812,-2.5518887043,-171.96005249,0.0100899999961,1.0,0.0,0.0,0.0,1.0,0.0,0.0,0.0,1.0,-4.32926845551,-0.426829278469,-0.731707334518,1.0,0.0,0.0,0.0,1.0,0.0,0.0,0.0,1.0,0.148440512063,-10.1945106689,-5.76523759766,1.0,0.0,0.0,0.0,1.0,0.0,0.0,0.0,1.0
1463564113258128204,739,1463564113010504982,,55.3212165833,-2.46837902069,-172.005584717,0.0101300003007,1.0,0.0,0.0,0.0,1.0,0.0,0.0,0.0,1.0,-11.1585359573,0.12195122242,-3.04878044128,1.0,0.0,0.0,0.0,1.0,0.0,0.0,0.0,1.0,-0.110133276367,-9.95509050293,-6.32069238281,1.0,0.0,0.0,0.0,1.0,0.0,0.0,0.0,1.0
1463564113258175338,740,1463564113018620361,,55.1665458679,-2.40001487732,-172.082290649,0.0100290002301,1.0,0.0,0.0,0.0,1.0,0.0,0.0,0.0,1.0,-17.134147644,-3.47560977936,-3.29268312454,1.0,0.0,0.0,0.0,1.0,0.0,0.0,0.0,1.0,-0.00478840332031,-9.46667277974,-5.93762011719,1.0,0.0,0.0,0.0,1.0,0.0,0.0,0.0,1.0
1463564113258214347,741,1463564113029139938,,54.9418296814,-2.29958438873,-172.158493042,0.0101070003584,1.0,0.0,0.0,0.0,1.0,0.0,0.0,0.0,1.0,-22.9268302917,-1.76829278469,-5.60975599289,1.0,0.0,0.0,0.0,1.0,0.0,0.0,0.0,1.0,0.0622492431641,-9.44751916645,-6.19619389648,1.0,0.0,0.0,0.0,1.0,0.0,0.0,0.0,1.0
1463564113258643084,742,1463564113038662045,,54.6756286621,-2.21102023125,-172.267745972,0.0100929997861,1.0,0.0,0.0,0.0,1.0,0.0,0.0,0.0,1.0,-27.8658542633,-5.0,-6.58536624908,1.0,0.0,0.0,0.0,1.0,0.0,0.0,0.0,1.0,0.067037651051,-9.43794235981,-6.0812722168,1.0,0.0,0.0,0.0,1.0,0.0,0.0,0.0,1.0
1463564113258685010,743,1463564113049357137,,54.3410224915,-2.09543895721,-172.376556396,0.0101330000907,1.0,0.0,0.0,0.0,1.0,0.0,0.0,0.0,1.0,-34.6951217651,-3.29268312454,-8.78048801422,1.0,0.0,0.0,0.0,1.0,0.0,0.0,0.0,1.0,0.067037651051,-9.43315395649,-6.09084902344,1.0,0.0,0.0,0.0,1.0,0.0,0.0,0.0,1.0
1463564113258892087,744,1463564113061538643,,53.9229621887,-1.99290823936,-172.510131836,0.0101490002126,1.0,0.0,0.0,0.0,1.0,0.0,0.0,0.0,1.0,-42.134147644,-5.18292713165,-10.2439022064,1.0,0.0,0.0,0.0,1.0,0.0,0.0,0.0,1.0,-0.172382519531,-9.36132790669,-6.31111557617,1.0,0.0,0.0,0.0,1.0,0.0,0.0,0.0,1.0
1463564113258932606,745,1463564113069098935,,53.4546394348,-1.87340390682,-172.641845703,0.0100739998743,1.0,0.0,0.0,0.0,1.0,0.0,0.0,0.0,1.0,-47.9268302917,-4.69512224197,-10.6097564697,1.0,0.0,0.0,0.0,1.0,0.0,0.0,0.0,1.0,0.100556469727,-9.20809958496,-6.18182868652,1.0,0.0,0.0,0.0,1.0,0.0,0.0,0.0,1.0
1463564113259100518,746,1463564113081531266,,52.8757400513,-1.7615377903,-172.785568237,0.0106140002608,1.0,0.0,0.0,0.0,1.0,0.0,0.0,0.0,1.0,-55.0609779358,-4.63414621353,-11.4024391174,1.0,0.0,0.0,0.0,1.0,0.0,0.0,0.0,1.0,-0.244208569336,-9.09796630859,-6.43082565918,1.0,0.0,0.0,0.0,1.0,0.0,0.0,0.0,1.0
1463564113265998277,747,1463564113091364666,,52.317855835,-1.65482449532,-172.924560547,0.00964799989015,1.0,0.0,0.0,0.0,1.0,0.0,0.0,0.0,1.0,-60.0000038147,-5.06097555161,-12.0121955872,1.0,0.0,0.0,0.0,1.0,0.0,0.0,0.0,1.0,-0.138863696289,-9.28471345356,-6.30153876953,1.0,0.0,0.0,0.0,1.0,0.0,0.0,0.0,1.0
1463564113293229275,748,1463564113100151952,,51.6628646851,-1.54078125954,-173.061889648,0.00998899992555,1.0,0.0,0.0,0.0,1.0,0.0,0.0,0.0,1.0,-67.4390258789,-4.02439022064,-12.1341466904,1.0,0.0,0.0,0.0,1.0,0.0,0.0,0.0,1.0,-0.162805712891,-9.22246479492,-6.45476767578,1.0,0.0,0.0,0.0,1.0,0.0,0.0,0.0,1.0
1463564113294621733,749,1463564113109382505,,50.9300460815,-1.42544269562,-173.20173645,0.0100940000266,1.0,0.0,0.0,0.0,1.0,0.0,0.0,0.0,1.0,-74.5121917725,-3.90243911743,-12.2560977936,1.0,0.0,0.0,0.0,1.0,0.0,0.0,0.0,1.0,-0.138863696289,-9.11233151855,-6.51701691895,1.0,0.0,0.0,0.0,1.0,0.0,0.0,0.0,1.0
1463564113294703449,750,1463564113123380258,,49.9751396179,-1.28606307507,-173.354309082,0.0115729998797,1.0,0.0,0.0,0.0,1.0,0.0,0.0,0.0,1.0,-83.2926864624,-3.17073178291,-11.8902444839,1.0,0.0,0.0,0.0,1.0,0.0,0.0,0.0,1.0,0.00957680664062,-8.82981572266,-6.75164868164,1.0,0.0,0.0,0.0,1.0,0.0,0.0,0.0,1.0
1463564113295152862,751,1463564113130540301,,49.2113647461,-1.18341553211,-173.474151611,0.00865599978715,1.0,0.0,0.0,0.0,1.0,0.0,0.0,0.0,1.0,-87.9268341064,-3.35365867615,-12.5,1.0,0.0,0.0,0.0,1.0,0.0,0.0,0.0,1.0,-0.0287304199219,-8.51378168804,-7.00543405762,1.0,0.0,0.0,0.0,1.0,0.0,0.0,0.0,1.0
1463564113295308483,752,1463564113140729576,,48.2626686096,-1.06423974037,-173.622436523,0.0101039996371,1.0,0.0,0.0,0.0,1.0,0.0,0.0,0.0,1.0,-92.4390258789,-3.84146332741,-12.9878053665,1.0,0.0,0.0,0.0,1.0,0.0,0.0,0.0,1.0,0.00957680664062,-8.04930598145,-7.08683691406,1.0,0.0,0.0,0.0,1.0,0.0,0.0,0.0,1.0
1463564113295641493,753,1463564113149888985,,47.2825965881,-0.950791478157,-173.773239136,0.0101150004193,1.0,0.0,0.0,0.0,1.0,0.0,0.0,0.0,1.0,-96.2195205688,-3.41463422775,-13.5365858078,1.0,0.0,0.0,0.0,1.0,0.0,0.0,0.0,1.0,-0.15801730957,-7.85776984863,-6.95276162109,1.0,0.0,0.0,0.0,1.0,0.0,0.0,0.0,1.0
1463564113295933880,754,1463564113160510590,,46.271194458,-0.840013921261,-173.934173584,0.0100790001452,1.0,0.0,0.0,0.0,1.0,0.0,0.0,0.0,1.0,-99.207321167,-4.14634132385,-14.0243902206,1.0,0.0,0.0,0.0,1.0,0.0,0.0,0.0,1.0,-0.105344873047,-7.76200178223,-7.22570061035,1.0,0.0,0.0,0.0,1.0,0.0,0.0,0.0,1.0
1463564113296398502,755,1463564113170291648,,45.2355995178,-0.734677195549,-174.094955444,0.0100899999961,1.0,0.0,0.0,0.0,1.0,0.0,0.0,0.0,1.0,-102.500007629,-3.53658556938,-14.3292694092,1.0,0.0,0.0,0.0,1.0,0.0,0.0,0.0,1.0,-0.248996972656,-7.59919606934,-7.06768330078,1.0,0.0,0.0,0.0,1.0,0.0,0.0,0.0,1.0
1463564113297029108,756,1463564113181808590,,44.1476325989,-0.650190889835,-174.257034302,0.0101190004498,1.0,0.0,0.0,0.0,1.0,0.0,0.0,0.0,1.0,-106.463417053,-3.65853667259,-14.0853662491,1.0,0.0,0.0,0.0,1.0,0.0,0.0,0.0,1.0,-0.517147558594,-7.44117875977,-7.40765993652,1.0,0.0,0.0,0.0,1.0,0.0,0.0,0.0,1.0
1463564113297602528,757,1463564113194357689,,42.8967056274,-0.545671224594,-174.42527771,0.0110999997705,1.0,0.0,0.0,0.0,1.0,0.0,0.0,0.0,1.0,-110.975616455,-2.62195134163,-13.5975618362,1.0,0.0,0.0,0.0,1.0,0.0,0.0,0.0,1.0,-0.316034619141,-7.13472094727,-7.54652363281,1.0,0.0,0.0,0.0,1.0,0.0,0.0,0.0,1.0
1463564113297857832,758,1463564113202385883,,41.8389053345,-0.465969592333,-174.557800293,0.00911699980497,1.0,0.0,0.0,0.0,1.0,0.0,0.0,0.0,1.0,-114.329277039,-2.19512200356,-12.8658542633,1.0,0.0,0.0,0.0,1.0,0.0,0.0,0.0,1.0,-0.330399829102,-6.95276162109,-7.67102211914,1.0,0.0,0.0,0.0,1.0,0.0,0.0,0.0,1.0
1463564113298137824,759,1463564113212084912,,40.6147499084,-0.372067242861,-174.692855835,0.0101650003344,1.0,0.0,0.0,0.0,1.0,0.0,0.0,0.0,1.0,-119.512199402,-1.03658533096,-11.9512195587,1.0,0.0,0.0,0.0,1.0,0.0,0.0,0.0,1.0,-0.220266552734,-6.90487758789,-7.6853873291,1.0,0.0,0.0,0.0,1.0,0.0,0.0,0.0,1.0
1463564113298558384,760,1463564113221691496,,39.2986869812,-0.281776309013,-174.83215332,0.0104780001566,1.0,0.0,0.0,0.0,1.0,0.0,0.0,0.0,1.0,-124.451217651,-1.2195122242,-11.5243911743,1.0,0.0,0.0,0.0,1.0,0.0,0.0,0.0,1.0,-0.186747729492,-6.70376464844,-7.85298144531,1.0,0.0,0.0,0.0,1.0,0.0,0.0,0.0,1.0
1463564113298607393,761,1463564113232077327,,38.039264679,-0.188982069492,-174.960464478,0.00966100022197,1.0,0.0,0.0,0.0,1.0,0.0,0.0,0.0,1.0,-127.804885864,-0.487804889679,-11.8292684555,1.0,0.0,0.0,0.0,1.0,0.0,0.0,0.0,1.0,-0.0718260498047,-6.10042583008,-7.87692346191,1.0,0.0,0.0,0.0,1.0,0.0,0.0,0.0,1.0
1463564113298645986,762,1463564113240880081,,36.71434021,-0.0959003865719,-175.097839355,0.0100760003552,1.0,0.0,0.0,0.0,1.0,0.0,0.0,0.0,1.0,-128.414627075,-0.548780500889,-11.9512195587,1.0,0.0,0.0,0.0,1.0,0.0,0.0,0.0,1.0,-0.0718260498047,-5.86100566406,-8.07324799805,1.0,0.0,0.0,0.0,1.0,0.0,0.0,0.0,1.0
1463564113298918738,763,1463564113250997899,,35.3653297424,-0.000591771851759,-175.243911743,0.0101600000635,1.0,0.0,0.0,0.0,1.0,0.0,0.0,0.0,1.0,-129.329269409,-0.426829278469,-12.6829271317,1.0,0.0,0.0,0.0,1.0,0.0,0.0,0.0,1.0,-0.067037651051,-5.59285507812,-8.2025348877,1.0,0.0,0.0,0.0,1.0,0.0,0.0,0.0,1.0
1463564114353200447,764,1463564113262101469,,33.9671783447,0.0879573971033,-175.401428223,0.0104289995506,1.0,0.0,0.0,0.0,1.0,0.0,0.0,0.0,1.0,-130.121948242,-0.853658556938,-12.9878053665,1.0,0.0,0.0,0.0,1.0,0.0,0.0,0.0,1.0,-0.114921679688,-5.33428129883,-8.38928203267,1.0,0.0,0.0,0.0,1.0,0.0,0.0,0.0,1.0
1463564114353488199,765,1463564113272289285,,32.6240119934,0.169171974063,-175.562530518,0.00998099986464,1.0,0.0,0.0,0.0,1.0,0.0,0.0,0.0,1.0,-131.341461182,-1.40243899822,-13.5975618362,1.0,0.0,0.0,0.0,1.0,0.0,0.0,0.0,1.0,-0.076614453125,-5.24809003906,-8.47068488911,1.0,0.0,0.0,0.0,1.0,0.0,0.0,0.0,1.0
1463564114353767930,766,1463564113282228879,,31.2750701904,0.243310317397,-175.733932495,0.00995299965143,1.0,0.0,0.0,0.0,1.0,0.0,0.0,0.0,1.0,-132.804870605,-2.07317066193,-14.2073173523,1.0,0.0,0.0,0.0,1.0,0.0,0.0,0.0,1.0,-0.0718260498047,-5.00388146973,-8.34139799946,1.0,0.0,0.0,0.0,1.0,0.0,0.0,0.0,1.0
1463564114354089222,767,1463564113291514275,,29.9098644257,0.304909288883,-175.906387329,0.00998399965465,1.0,0.0,0.0,0.0,1.0,0.0,0.0,0.0,1.0,-134.878051758,-2.43902444839,-13.841463089,1.0,0.0,0.0,0.0,1.0,0.0,0.0,0.0,1.0,-0.124498486328,-5.01345827637,-8.51378168804,1.0,0.0,0.0,0.0,1.0,0.0,0.0,0.0,1.0
1463564114354393640,768,1463564113302393737,,28.500585556,0.357544273138,-176.083572388,0.0101650003344,1.0,0.0,0.0,0.0,1.0,0.0,0.0,0.0,1.0,-137.560974121,-2.43902444839,-13.841463089,1.0,0.0,0.0,0.0,1.0,0.0,0.0,0.0,1.0,-0.210689746094,-4.8554409668,-8.43716606587,1.0,0.0,0.0,0.0,1.0,0.0,0.0,0.0,1.0
1463564114355818337,769,1463564113312835295,,27.0654773712,0.399263858795,-176.260757446,0.0100530004129,1.0,0.0,0.0,0.0,1.0,0.0,0.0,0.0,1.0,-139.939025879,-2.5,-13.841463089,1.0,0.0,0.0,0.0,1.0,0.0,0.0,0.0,1.0,-0.292092584273,-4.34308181152,-8.61433815776,1.0,0.0,0.0,0.0,1.0,0.0,0.0,0.0,1.0
1463564114356162024,770,1463564113322067515,,25.6185836792,0.457145035267,-176.444976807,0.0100880004466,1.0,0.0,0.0,0.0,1.0,0.0,0.0,0.0,1.0,-140.487808228,-1.58536589146,-14.8170728683,1.0,0.0,0.0,0.0,1.0,0.0,0.0,0.0,1.0,-0.15322890625,-4.13718046875,-8.79150849609,1.0,0.0,0.0,0.0,1.0,0.0,0.0,0.0,1.0
1463564114356435037,771,1463564113332399546,,24.129114151,0.519044041634,-176.639312744,0.0101819997653,1.0,0.0,0.0,0.0,1.0,0.0,0.0,0.0,1.0,-141.402435303,-0.731707334518,-15.9146347046,1.0,0.0,0.0,0.0,1.0,0.0,0.0,0.0,1.0,-0.210689746094,-3.50989963379,-8.77714328613,1.0,0.0,0.0,0.0,1.0,0.0,0.0,0.0,1.0
1463564114356693623,772,1463564113342667724,,22.6489868164,0.598856031895,-176.856109619,0.0100339995697,1.0,0.0,0.0,0.0,1.0,0.0,0.0,0.0,1.0,-140.365859985,-0.12195122242,-18.658536911,1.0,0.0,0.0,0.0,1.0,0.0,0.0,0.0,1.0,-0.0814028564453,-2.95923325195,-9.08360109863,1.0,0.0,0.0,0.0,1.0,0.0,0.0,0.0,1.0
1463564114356949709,773,1463564113352754553,,21.1984672546,0.684762477875,-177.076507568,0.0101199997589,1.0,0.0,0.0,0.0,1.0,0.0,0.0,0.0,1.0,-140.426834106,-0.18292683363,-18.5975627899,1.0,0.0,0.0,0.0,1.0,0.0,0.0,0.0,1.0,0.129286889648,-3.40934316406,-8.9351605957,1.0,0.0,0.0,0.0,1.0,0.0,0.0,0.0,1.0
1463564114357246939,774,1463564113362995701,,19.731338501,0.767276465893,-177.292953491,0.0100809996948,1.0,0.0,0.0,0.0,1.0,0.0,0.0,0.0,1.0,-143.841461182,0.731707334518,-18.4146347046,1.0,0.0,0.0,0.0,1.0,0.0,0.0,0.0,1.0,0.0526724365234,-3.3949779541,-8.99740983887,1.0,0.0,0.0,0.0,1.0,0.0,0.0,0.0,1.0
1463564114357562867,775,1463564113373048261,,18.2147388458,0.848154246807,-177.504470825,0.0101070003584,1.0,0.0,0.0,0.0,1.0,0.0,0.0,0.0,1.0,-147.682922363,0.975609779358,-17.6829280853,1.0,0.0,0.0,0.0,1.0,0.0,0.0,0.0,1.0,0.129286889648,-2.9927520752,-8.93037219238,1.0,0.0,0.0,0.0,1.0,0.0,0.0,0.0,1.0
1463564114358763039,776,1463564113383353261,,16.6583614349,0.933288872242,-177.714111328,0.0100840004161,1.0,0.0,0.0,0.0,1.0,0.0,0.0,0.0,1.0,-150.487808228,1.64634156227,-17.5000019073,1.0,0.0,0.0,0.0,1.0,0.0,0.0,0.0,1.0,0.210689746094,-2.50433493652,-9.01656345215,1.0,0.0,0.0,0.0,1.0,0.0,0.0,0.0,1.0
1463564114359235629,777,1463564113393264263,,15.0606498718,1.01727831364,-177.918151855,0.0100870002061,1.0,0.0,0.0,0.0,1.0,0.0,0.0,0.0,1.0,-151.585372925,2.5,-16.8902435303,1.0,0.0,0.0,0.0,1.0,0.0,0.0,0.0,1.0,0.191536132812,-1.78128603516,-9.18415756836,1.0,0.0,0.0,0.0,1.0,0.0,0.0,0.0,1.0
1463564114360281847,778,1463564113403324114,,13.4534273148,1.08920955658,-178.132446289,0.0101410001516,1.0,0.0,0.0,0.0,1.0,0.0,0.0,0.0,1.0,-149.939025879,3.17073178291,-17.7439022064,1.0,0.0,0.0,0.0,1.0,0.0,0.0,0.0,1.0,-0.0478840332031,-1.24498486328,-9.28471345356,1.0,0.0,0.0,0.0,1.0,0.0,0.0,0.0,1.0
1463564114360626941,779,1463564113413049548,,11.8794126511,1.16981375217,-178.336273193,0.0100739998743,1.0,0.0,0.0,0.0,1.0,0.0,0.0,0.0,1.0,-147.743911743,4.02439022064,-16.7682933807,1.0,0.0,0.0,0.0,1.0,0.0,0.0,0.0,1.0,0.105344873047,-0.962469067383,-9.03092866211,1.0,0.0,0.0,0.0,1.0,0.0,0.0,0.0,1.0
1463564114361752011,780,1463564113423241583,,10.2967071533,1.24176716805,-178.54246521,0.0102150002494,1.0,0.0,0.0,0.0,1.0,0.0,0.0,0.0,1.0,-146.707321167,3.90243911743,-16.4634151459,1.0,0.0,0.0,0.0,1.0,0.0,0.0,0.0,1.0,0.0861912597656,-0.794874951172,-9.4954043687,1.0,0.0,0.0,0.0,1.0,0.0,0.0,0.0,1.0
1463564114362694795,781,1463564113433454242,,8.7655210495,1.317953825,-178.726379395,0.0099950004369,1.0,0.0,0.0,0.0,1.0,0.0,0.0,0.0,1.0,-146.524383545,3.84146332741,-14.4512205124,1.0,0.0,0.0,0.0,1.0,0.0,0.0,0.0,1.0,0.344765039063,-0.77093293457,-9.2416184082,1.0,0.0,0.0,0.0,1.0,0.0,0.0,0.0,1.0
1463564114363128688,782,1463564113442907914,,7.22211933136,1.38584887981,-178.900970459,0.0100819999352,1.0,0.0,0.0,0.0,1.0,0.0,0.0,0.0,1.0,-146.89024353,4.08536577225,-13.2317075729,1.0,0.0,0.0,0.0,1.0,0.0,0.0,0.0,1.0,0.287304199219,-0.612915625,-9.47624958638,1.0,0.0,0.0,0.0,1.0,0.0,0.0,0.0,1.0
1463564114363443418,783,1463564113453546602,,5.61890602112,1.44836604595,-179.070587158,0.0104580000043,1.0,0.0,0.0,0.0,1.0,0.0,0.0,0.0,1.0,-145.914642334,3.29268312454,-11.8292684555,1.0,0.0,0.0,0.0,1.0,0.0,0.0,0.0,1.0,0.392649072266,-0.148440512063,-9.11711992188,1.0,0.0,0.0,0.0,1.0,0.0,0.0,0.0,1.0
1463564114363719504,784,1463564113464386325,,4.13208627701,1.49208819866,-179.225509644,0.00976399984211,1.0,0.0,0.0,0.0,1.0,0.0,0.0,0.0,1.0,-143.475601196,2.86585378647,-11.2804880142,1.0,0.0,0.0,0.0,1.0,0.0,0.0,0.0,1.0,0.320823022461,0.354341845703,-9.54807680523,1.0,0.0,0.0,0.0,1.0,0.0,0.0,0.0,1.0
1463564114363976788,785,1463564113473516465,,2.6266746521,1.52209079266,-179.376556396,0.0100999996066,1.0,0.0,0.0,0.0,1.0,0.0,0.0,0.0,1.0,-139.939025879,1.64634156227,-10.1829271317,1.0,0.0,0.0,0.0,1.0,0.0,0.0,0.0,1.0,0.339976635742,0.622492431641,-9.03571706543,1.0,0.0,0.0,0.0,1.0,0.0,0.0,0.0,1.0
1463564114364261310,786,1463564113483741832,,1.13341832161,1.53460597992,-179.529434204,0.0101279998198,1.0,0.0,0.0,0.0,1.0,0.0,0.0,0.0,1.0,-136.89024353,1.70731711388,-10.2439022064,1.0,0.0,0.0,0.0,1.0,0.0,0.0,0.0,1.0,0.124498486328,1.1540052002,-9.50019277202,1.0,0.0,0.0,0.0,1.0,0.0,0.0,0.0,1.0
1463564114364560468,787,1463564113494877119,,-0.311050713062,1.52781450748,-179.659042358,0.0100969998166,1.0,0.0,0.0,0.0,1.0,0.0,0.0,0.0,1.0,-132.621948242,-0.487804889679,-7.92682981491,1.0,0.0,0.0,0.0,1.0,0.0,0.0,0.0,1.0,0.234631762695,1.35032973633,-9.18415756836,1.0,0.0,0.0,0.0,1.0,0.0,0.0,0.0,1.0
1463564114365219875,788,1463564113504048820,,-1.7081798315,1.52247977257,-179.768783569,0.0100870002061,1.0,0.0,0.0,0.0,1.0,0.0,0.0,0.0,1.0,-129.512207031,-0.853658556938,-6.0365858078,1.0,0.0,0.0,0.0,1.0,0.0,0.0,0.0,1.0,0.378283862305,1.41257897949,-9.55765361187,1.0,0.0,0.0,0.0,1.0,0.0,0.0,0.0,1.0
1463564114366010476,789,1463564113514582824,,-3.06512570381,1.48963880539,-179.842269897,0.0100899999961,1.0,0.0,0.0,0.0,1.0,0.0,0.0,0.0,1.0,-126.341461182,-3.41463422775,-2.62195134163,1.0,0.0,0.0,0.0,1.0,0.0,0.0,0.0,1.0,0.354341845703,1.4604630127,-9.18894597168,1.0,0.0,0.0,0.0,1.0,0.0,0.0,0.0,1.0
1463564114366432547,790,1463564113524351174,,-4.38751316071,1.45504617691,-179.889465332,0.0100969998166,1.0,0.0,0.0,0.0,1.0,0.0,0.0,0.0,1.0,-122.682922363,-4.57317066193,-0.18292683363,1.0,0.0,0.0,0.0,1.0,0.0,0.0,0.0,1.0,0.531512805087,1.78128603516,-9.4954043687,1.0,0.0,0.0,0.0,1.0,0.0,0.0,0.0,1.0
1463564114366786807,791,1463564113533681203,,-5.6566195488,1.40456807613,-179.899261475,0.0100889997557,1.0,0.0,0.0,0.0,1.0,0.0,0.0,0.0,1.0,-118.292678833,-6.15853643417,3.23170733452,1.0,0.0,0.0,0.0,1.0,0.0,0.0,0.0,1.0,0.478840332031,1.83395847168,-9.22725319824,1.0,0.0,0.0,0.0,1.0,0.0,0.0,0.0,1.0
1463564114367048101,792,1463564113543957506,,-6.89503097534,1.33419167995,-179.866867065,0.0101880002767,1.0,0.0,0.0,0.0,1.0,0.0,0.0,0.0,1.0,-115.121955872,-7.25609779358,7.07317113876,1.0,0.0,0.0,0.0,1.0,0.0,0.0,0.0,1.0,0.272938989258,1.91536132812,-9.39005832661,1.0,0.0,0.0,0.0,1.0,0.0,0.0,0.0,1.0
1463564114367314083,793,1463564113554092407,,-8.08107757568,1.2552665472,-179.78843689,0.0100060002878,1.0,0.0,0.0,0.0,1.0,0.0,0.0,0.0,1.0,-114.207321167,-8.71951198578,11.341463089,1.0,0.0,0.0,0.0,1.0,0.0,0.0,0.0,1.0,0.229843359375,1.74776721191,-9.22246479492,1.0,0.0,0.0,0.0,1.0,0.0,0.0,0.0,1.0
1463564114367589335,794,1463564113564328295,,-9.26567554474,1.16857349873,-179.663024902,0.0101269995794,1.0,0.0,0.0,0.0,1.0,0.0,0.0,0.0,1.0,-113.597564697,-8.96341514587,15.6707315445,1.0,0.0,0.0,0.0,1.0,0.0,0.0,0.0,1.0,0.00957680664062,1.78607443848,-9.15063874512,1.0,0.0,0.0,0.0,1.0,0.0,0.0,0.0,1.0
1463564114368538785,795,1463564113574129196,,-10.4307804108,1.07104837894,-179.493759155,0.0100769996643,1.0,0.0,0.0,0.0,1.0,0.0,0.0,0.0,1.0,-112.926826477,-10.0609760284,19.7560977936,1.0,0.0,0.0,0.0,1.0,0.0,0.0,0.0,1.0,-0.167594116211,1.87226569824,-9.11233151855,1.0,0.0,0.0,0.0,1.0,0.0,0.0,0.0,1.0
1463564114369075384,796,1463564113584249722,,-11.5754919052,0.983471870422,-179.301727295,0.0101020000875,1.0,0.0,0.0,0.0,1.0,0.0,0.0,0.0,1.0,-110.304878235,-9.51219558716,21.9512195587,1.0,0.0,0.0,0.0,1.0,0.0,0.0,0.0,1.0,-0.239420166016,2.18351191406,-9.37090471333,1.0,0.0,0.0,0.0,1.0,0.0,0.0,0.0,1.0
1463564114369395270,797,1463564113595039708,,-12.6794395447,0.898172616959,-179.070541382,0.0101129999384,1.0,0.0,0.0,0.0,1.0,0.0,0.0,0.0,1.0,-106.097564697,-10.1219511032,25.6097564697,1.0,0.0,0.0,0.0,1.0,0.0,0.0,0.0,1.0,-0.316034619141,2.4516625,-9.58159562847,1.0,0.0,0.0,0.0,1.0,0.0,0.0,0.0,1.0
1463564114369835986,798,1463564113605020186,,-13.730471611,0.8261282444,-178.820983887,0.0102279996499,1.0,0.0,0.0,0.0,1.0,0.0,0.0,0.0,1.0,-103.10975647,-9.63414573669,27.1341457367,1.0,0.0,0.0,0.0,1.0,0.0,0.0,0.0,1.0,-0.301669427446,2.02070620117,-9.50976957866,1.0,0.0,0.0,0.0,1.0,0.0,0.0,0.0,1.0
1463564114370266337,799,1463564113615479661,,-14.7417345047,0.764604747295,-178.550933838,0.0100130001083,1.0,0.0,0.0,0.0,1.0,0.0,0.0,0.0,1.0,-101.158538818,-9.14634132385,29.8170719147,1.0,0.0,0.0,0.0,1.0,0.0,0.0,0.0,1.0,-0.435744702148,2.26012636719,-9.60074924175,1.0,0.0,0.0,0.0,1.0,0.0,0.0,0.0,1.0
1463564114371032460,800,1463564113625481493,,-15.7283506393,0.721783101559,-178.289093018,0.0100929997861,1.0,0.0,0.0,0.0,1.0,0.0,0.0,0.0,1.0,-97.9878082275,-7.56097555161,29.1463413239,1.0,0.0,0.0,0.0,1.0,0.0,0.0,0.0,1.0,-0.435744702148,2.43250888672,-9.64863327495,1.0,0.0,0.0,0.0,1.0,0.0,0.0,0.0,1.0
1463564114372245079,801,1463564113635002506,,-16.6941356659,0.684710860252,-178.018127441,0.0101340003312,1.0,0.0,0.0,0.0,1.0,0.0,0.0,0.0,1.0,-95.4268341064,-7.19512224197,30.0609760284,1.0,0.0,0.0,0.0,1.0,0.0,0.0,0.0,1.0,-0.512359155273,2.55221896973,-9.36611631001,1.0,0.0,0.0,0.0,1.0,0.0,0.0,0.0,1.0
1463564114373339265,802,1463564113644860124,,-17.6253547668,0.670275092125,-177.76625061,0.0100330002606,1.0,0.0,0.0,0.0,1.0,0.0,0.0,0.0,1.0,-94.207321167,-6.0365858078,28.7195110321,1.0,0.0,0.0,0.0,1.0,0.0,0.0,0.0,1.0,-0.335188232422,2.4995465332,-9.39484672993,1.0,0.0,0.0,0.0,1.0,0.0,0.0,0.0,1.0
1463564114373784095,803,1463564113655198040,,-18.5786304474,0.658852994442,-177.51512146,0.0101009998471,1.0,0.0,0.0,0.0,1.0,0.0,0.0,0.0,1.0,-92.2560958862,-6.40243911743,28.4146347046,1.0,0.0,0.0,0.0,1.0,0.0,0.0,0.0,1.0,-0.282515795898,3.26569106445,-9.28471345356,1.0,0.0,0.0,0.0,1.0,0.0,0.0,0.0,1.0
1463564114374076743,804,1463564113665446531,,-19.4729042053,0.637165188789,-177.294265747,0.0101159997284,1.0,0.0,0.0,0.0,1.0,0.0,0.0,0.0,1.0,-88.4146347046,-6.52439069748,25.182926178,1.0,0.0,0.0,0.0,1.0,0.0,0.0,0.0,1.0,-0.325611425781,3.05500131836,-9.32780908345,1.0,0.0,0.0,0.0,1.0,0.0,0.0,0.0,1.0
1463564114374419701,805,1463564113675827883,,-20.3579998016,0.605769217014,-177.093460083,0.0101169999689,1.0,0.0,0.0,0.0,1.0,0.0,0.0,0.0,1.0,-84.5121917725,-7.25609779358,22.8658542633,1.0,0.0,0.0,0.0,1.0,0.0,0.0,0.0,1.0,-0.301669427446,3.73016618652,-9.22246479492,1.0,0.0,0.0,0.0,1.0,0.0,0.0,0.0,1.0
1463564114374759170,806,1463564113686080749,,-21.1930999756,0.55562710762,-176.933380127,0.0101650003344,1.0,0.0,0.0,0.0,1.0,0.0,0.0,0.0,1.0,-79.1463470459,-8.10975551605,18.1707305908,1.0,0.0,0.0,0.0,1.0,0.0,0.0,0.0,1.0,-0.244208569336,3.81635744629,-9.04050546875,1.0,0.0,0.0,0.0,1.0,0.0,0.0,0.0,1.0
1463564114375123690,807,1463564113696068415,,-21.9631767273,0.46740591526,-176.810394287,0.0100140003487,1.0,0.0,0.0,0.0,1.0,0.0,0.0,0.0,1.0,-74.1463394165,-8.29268264771,14.3292694092,1.0,0.0,0.0,0.0,1.0,0.0,0.0,0.0,1.0,-0.703895288086,3.9839515625,-9.19852277832,1.0,0.0,0.0,0.0,1.0,0.0,0.0,0.0,1.0
1463564114376265322,808,1463564113714463170,,-22.6682758331,0.368635118008,-176.771087646,0.0101150004193,1.0,0.0,0.0,0.0,1.0,0.0,0.0,0.0,1.0,-65.2439041138,-7.01219511032,5.79268312454,1.0,0.0,0.0,0.0,1.0,0.0,0.0,0.0,1.0,-0.569819995117,4.52982954102,-9.35653950337,1.0,0.0,0.0,0.0,1.0,0.0,0.0,0.0,1.0
