%time,field.header.seq,field.header.stamp,field.header.frame_id,field.orientation.x,field.orientation.y,field.orientation.z,field.orientation.w,field.orientation_covariance0,field.orientation_covariance1,field.orientation_covariance2,field.orientation_covariance3,field.orientation_covariance4,field.orientation_covariance5,field.orientation_covariance6,field.orientation_covariance7,field.orientation_covariance8,field.angular_velocity.x,field.angular_velocity.y,field.angular_velocity.z,field.angular_velocity_covariance0,field.angular_velocity_covariance1,field.angular_velocity_covariance2,field.angular_velocity_covariance3,field.angular_velocity_covariance4,field.angular_velocity_covariance5,field.angular_velocity_covariance6,field.angular_velocity_covariance7,field.angular_velocity_covariance8,field.linear_acceleration.x,field.linear_acceleration.y,field.linear_acceleration.z,field.linear_acceleration_covariance0,field.linear_acceleration_covariance1,field.linear_acceleration_covariance2,field.linear_acceleration_covariance3,field.linear_acceleration_covariance4,field.linear_acceleration_covariance5,field.linear_acceleration_covariance6,field.linear_acceleration_covariance7,field.linear_acceleration_covariance8
1463563633629640388,441,1463563633626123845,,-17.4344501495,-2.37778925896,130.677734375,0.0100929997861,1.0,0.0,0.0,0.0,1.0,0.0,0.0,0.0,1.0,-150.487808228,17.8048782349,-61.8292655945,1.0,0.0,0.0,0.0,1.0,0.0,0.0,0.0,1.0,-0.215478149414,3.84508786621,-10.3812583984,1.0,0.0,0.0,0.0,1.0,0.0,0.0,0.0,1.0
1463563633640492775,442,1463563633638601536,,-18.9275913239,-2.35603761673,130.109222412,0.0101359998807,1.0,0.0,0.0,0.0,1.0,0.0,0.0,0.0,1.0,-140.304885864,14.3902444839,-54.7560997009,1.0,0.0,0.0,0.0,1.0,0.0,0.0,0.0,1.0,0.205901342773,4.83149924246,-10.2423947021,1.0,0.0,0.0,0.0,1.0,0.0,0.0,0.0,1.0
1463563633655147902,443,1463563633646314930,,-20.2991275787,-2.37533736229,129.582061768,0.0100959995762,1.0,0.0,0.0,0.0,1.0,0.0,0.0,0.0,1.0,-132.317077637,12.0731716156,-51.4024391174,1.0,0.0,0.0,0.0,1.0,0.0,0.0,0.0,1.0,-0.114921679688,4.51546433105,-10.6111017578,1.0,0.0,0.0,0.0,1.0,0.0,0.0,0.0,1.0
1463563633664781025,444,1463563633661113493,,-21.5850334167,-2.42930865288,129.096435547,0.0105189997703,1.0,0.0,0.0,0.0,1.0,0.0,0.0,0.0,1.0,-119.268287659,6.89024400711,-47.0121994019,1.0,0.0,0.0,0.0,1.0,0.0,0.0,0.0,1.0,0.134075302102,4.56813676758,-10.4387192383,1.0,0.0,0.0,0.0,1.0,0.0,0.0,0.0,1.0
1463563633673374987,445,1463563633669831153,,-22.7330226898,-2.49473834038,128.714553833,0.00963899958879,1.0,0.0,0.0,0.0,1.0,0.0,0.0,0.0,1.0,-111.402442932,3.96341490746,-41.5853652954,1.0,0.0,0.0,0.0,1.0,0.0,0.0,0.0,1.0,0.119710083008,5.516240625,-9.7587659668,1.0,0.0,0.0,0.0,1.0,0.0,0.0,0.0,1.0
1463563633680765363,446,1463563633676825541,,-23.8331203461,-2.57736301422,128.357147217,0.0101290000603,1.0,0.0,0.0,0.0,1.0,0.0,0.0,0.0,1.0,-104.695129395,1.95121955872,-37.8048782349,1.0,0.0,0.0,0.0,1.0,0.0,0.0,0.0,1.0,0.0574608398438,5.15711037598,-10.2807019287,1.0,0.0,0.0,0.0,1.0,0.0,0.0,0.0,1.0
1463563633690782703,447,1463563633688216519,,-24.8189792633,-2.68500876427,128.044509888,0.0104259997606,1.0,0.0,0.0,0.0,1.0,0.0,0.0,0.0,1.0,-93.4146347046,-1.34146344662,-33.5975608826,1.0,0.0,0.0,0.0,1.0,0.0,0.0,0.0,1.0,-0.0143652099609,4.77882680593,-10.3668931885,1.0,0.0,0.0,0.0,1.0,0.0,0.0,0.0,1.0
1463563633700260618,448,1463563633697469072,,-25.5989379883,-2.85074210167,127.806129456,0.00990699976683,1.0,0.0,0.0,0.0,1.0,0.0,0.0,0.0,1.0,-76.7073135376,-8.10975551605,-30.5487804413,1.0,0.0,0.0,0.0,1.0,0.0,0.0,0.0,1.0,-0.191536132812,3.68707055664,-7.4268135498,1.0,0.0,0.0,0.0,1.0,0.0,0.0,0.0,1.0
1463563633709469577,449,1463563633707284485,,-26.4216556549,-2.95152425766,127.650131226,0.00994300004095,1.0,0.0,0.0,0.0,1.0,0.0,0.0,0.0,1.0,-81.341468811,-8.17073154449,-21.5243911743,1.0,0.0,0.0,0.0,1.0,0.0,0.0,0.0,1.0,0.301669427446,4.89374819336,-9.95030209961,1.0,0.0,0.0,0.0,1.0,0.0,0.0,0.0,1.0
1463563633718992597,450,1463563633717170003,,-27.1843509674,-3.07494664192,127.577476501,0.0101129999384,1.0,0.0,0.0,0.0,1.0,0.0,0.0,0.0,1.0,-75.1219558716,-13.2317075729,-14.7560987473,1.0,0.0,0.0,0.0,1.0,0.0,0.0,0.0,1.0,0.191536132812,4.49631071777,-9.43794235981,1.0,0.0,0.0,0.0,1.0,0.0,0.0,0.0,1.0
1463563633729537955,451,1463563633727293592,,-27.8941860199,-3.19330120087,127.566207886,0.0101410001516,1.0,0.0,0.0,0.0,1.0,0.0,0.0,0.0,1.0,-70.8536605835,-15.4878053665,-9.26829242706,1.0,0.0,0.0,0.0,1.0,0.0,0.0,0.0,1.0,0.181959326172,4.33350529714,-9.39963513325,1.0,0.0,0.0,0.0,1.0,0.0,0.0,0.0,1.0
1463563633746691088,452,1463563633737086871,,-28.5653553009,-3.32698822021,127.631469727,0.0100589999929,1.0,0.0,0.0,0.0,1.0,0.0,0.0,0.0,1.0,-67.1951217651,-19.6951236725,-3.17073178291,1.0,0.0,0.0,0.0,1.0,0.0,0.0,0.0,1.0,0.0143652099609,4.41011945801,-9.27992563477,1.0,0.0,0.0,0.0,1.0,0.0,0.0,0.0,1.0
1463563633754035578,453,1463563633747229418,,-29.201007843,-3.46913790703,127.747413635,0.0101009998471,1.0,0.0,0.0,0.0,1.0,0.0,0.0,0.0,1.0,-63.9024429321,-21.7073173523,1.2195122242,1.0,0.0,0.0,0.0,1.0,0.0,0.0,0.0,1.0,-0.234631762695,4.44363828125,-9.41400034321,1.0,0.0,0.0,0.0,1.0,0.0,0.0,0.0,1.0
1463563633788885227,454,1463563633757455038,,-29.797996521,-3.61760091782,127.917411804,0.0101049998775,1.0,0.0,0.0,0.0,1.0,0.0,0.0,0.0,1.0,-58.7804870605,-23.8414649963,5.85365867615,1.0,0.0,0.0,0.0,1.0,0.0,0.0,0.0,1.0,-0.493205541992,4.85065256348,-9.59117243511,1.0,0.0,0.0,0.0,1.0,0.0,0.0,0.0,1.0
1463563633788997779,455,1463563633767634148,,-30.3455734253,-3.7655646801,128.100906372,0.0101070003584,1.0,0.0,0.0,0.0,1.0,0.0,0.0,0.0,1.0,-54.207321167,-24.0243911743,7.13414621353,1.0,0.0,0.0,0.0,1.0,0.0,0.0,0.0,1.0,-0.622492431641,4.77403840261,-9.38526992329,1.0,0.0,0.0,0.0,1.0,0.0,0.0,0.0,1.0
1463563633798295696,456,1463563633778144246,,-30.8449840546,-3.90234661102,128.314193726,0.0100999996066,1.0,0.0,0.0,0.0,1.0,0.0,0.0,0.0,1.0,-49.3292694092,-24.817073822,9.93902492523,1.0,0.0,0.0,0.0,1.0,0.0,0.0,0.0,1.0,-0.603338854892,4.74530798269,-9.15063874512,1.0,0.0,0.0,0.0,1.0,0.0,0.0,0.0,1.0
1463563633798654287,457,1463563633788516531,,-31.3198318481,-4.03069639206,128.534698486,0.0102450000122,1.0,0.0,0.0,0.0,1.0,0.0,0.0,0.0,1.0,-47.2560958862,-24.5121955872,10.548781395,1.0,0.0,0.0,0.0,1.0,0.0,0.0,0.0,1.0,-0.555454785156,4.44842668457,-8.81066210937,1.0,0.0,0.0,0.0,1.0,0.0,0.0,0.0,1.0
1463563633804965502,458,1463563633798379810,,-31.7646560669,-4.16717863083,128.759735107,0.0100180003792,1.0,0.0,0.0,0.0,1.0,0.0,0.0,0.0,1.0,-45.182926178,-24.5121955872,11.5243911743,1.0,0.0,0.0,0.0,1.0,0.0,0.0,0.0,1.0,-0.885854614258,4.50109912109,-8.73404765625,1.0,0.0,0.0,0.0,1.0,0.0,0.0,0.0,1.0
1463563633813828630,459,1463563633808684283,,-32.1941223145,-4.31079053879,128.96282959,0.0100459996611,1.0,0.0,0.0,0.0,1.0,0.0,0.0,0.0,1.0,-43.4146347046,-23.4146347046,9.45121955872,1.0,0.0,0.0,0.0,1.0,0.0,0.0,0.0,1.0,-1.02950671387,4.61123239746,-8.69574042969,1.0,0.0,0.0,0.0,1.0,0.0,0.0,0.0,1.0
1463563633819852346,460,1463563633818417354,,-32.5909614563,-4.4566950798,129.142272949,0.0100870002061,1.0,0.0,0.0,0.0,1.0,0.0,0.0,0.0,1.0,-40.5487823486,-21.0365848541,8.04878044128,1.0,0.0,0.0,0.0,1.0,0.0,0.0,0.0,1.0,-1.36469494629,4.73094218821,-8.92079538574,1.0,0.0,0.0,0.0,1.0,0.0,0.0,0.0,1.0
1463563633836339233,461,1463563633828913233,,-32.9491615295,-4.59140491486,129.280731201,0.0101169999689,1.0,0.0,0.0,0.0,1.0,0.0,0.0,0.0,1.0,-37.682926178,-18.7195110321,4.69512224197,1.0,0.0,0.0,0.0,1.0,0.0,0.0,0.0,1.0,-1.21625444336,4.63038601074,-8.88248815918,1.0,0.0,0.0,0.0,1.0,0.0,0.0,0.0,1.0
1463563633857776926,462,1463563633838768594,,-33.2877616882,-4.724796772,129.382781982,0.0100990002975,1.0,0.0,0.0,0.0,1.0,0.0,0.0,0.0,1.0,-35.7317085266,-16.4634151459,1.8292683363,1.0,0.0,0.0,0.0,1.0,0.0,0.0,0.0,1.0,-1.28808049316,4.71657697825,-8.78672009277,1.0,0.0,0.0,0.0,1.0,0.0,0.0,0.0,1.0
1463563633858050466,463,1463563633849041662,,-33.6153259277,-4.85878801346,129.437530518,0.010161999613,1.0,0.0,0.0,0.0,1.0,0.0,0.0,0.0,1.0,-34.5731735229,-13.4756097794,-1.8902438879,1.0,0.0,0.0,0.0,1.0,0.0,0.0,0.0,1.0,-1.36469494629,4.69263496165,-8.53772370464,1.0,0.0,0.0,0.0,1.0,0.0,0.0,0.0,1.0
1463563633904512654,464,1463563633858941138,,-33.9214477539,-4.98130607605,129.462295532,0.0100389998406,1.0,0.0,0.0,0.0,1.0,0.0,0.0,0.0,1.0,-34.1463432312,-10.9146347046,-3.59756112099,1.0,0.0,0.0,0.0,1.0,0.0,0.0,0.0,1.0,-1.37906015625,4.42448466797,-8.31745598286,1.0,0.0,0.0,0.0,1.0,0.0,0.0,0.0,1.0
1463563633905611554,465,1463563633868972905,,-34.241859436,-5.09101676941,129.435455322,0.010108999908,1.0,0.0,0.0,0.0,1.0,0.0,0.0,0.0,1.0,-35.3658561707,-6.58536624908,-6.89024400711,1.0,0.0,0.0,0.0,1.0,0.0,0.0,0.0,1.0,-1.47003981934,4.53940634766,-8.2743609375,1.0,0.0,0.0,0.0,1.0,0.0,0.0,0.0,1.0
1463563633906051760,466,1463563633878970661,,-34.6015510559,-5.20563554764,129.403503418,0.0101319998503,1.0,0.0,0.0,0.0,1.0,0.0,0.0,0.0,1.0,-36.4024391174,-5.12195110321,-6.82926845551,1.0,0.0,0.0,0.0,1.0,0.0,0.0,0.0,1.0,-1.62805712891,4.56813676758,-7.32146867676,1.0,0.0,0.0,0.0,1.0,0.0,0.0,0.0,1.0
1463563633906105926,467,1463563633889910340,,-34.9613189697,-5.2832698822,129.315856934,0.0101479999721,1.0,0.0,0.0,0.0,1.0,0.0,0.0,0.0,1.0,-35.6707344055,-0.975609779358,-10.7317075729,1.0,0.0,0.0,0.0,1.0,0.0,0.0,0.0,1.0,-1.41257897949,5.37737692871,-8.10676682129,1.0,0.0,0.0,0.0,1.0,0.0,0.0,0.0,1.0
1463563633906616392,468,1463563633899593515,,-35.2476959229,-5.33847093582,129.222824097,0.00999800022691,1.0,0.0,0.0,0.0,1.0,0.0,0.0,0.0,1.0,-32.7439041138,-0.0609756112099,-10.4878053665,1.0,0.0,0.0,0.0,1.0,0.0,0.0,0.0,1.0,-1.16837033709,4.75009638601,-8.22168850098,1.0,0.0,0.0,0.0,1.0,0.0,0.0,0.0,1.0
1463563633987424587,469,1463563633909279242,,-36.033744812,-5.45155143738,129.140350342,0.0103860003874,1.0,0.0,0.0,0.0,1.0,0.0,0.0,0.0,1.0,-36.5243911743,-1.2804877758,-14.7560987473,1.0,0.0,0.0,0.0,1.0,0.0,0.0,0.0,1.0,-1.64242233887,12.2008516602,-2.50912333984,1.0,0.0,0.0,0.0,1.0,0.0,0.0,0.0,1.0
1463563633987702866,470,1463563633919527831,,-36.3507804871,-5.54256534576,128.985626221,0.00982000026852,1.0,0.0,0.0,0.0,1.0,0.0,0.0,0.0,1.0,-35.6097564697,2.92682933807,-16.4634151459,1.0,0.0,0.0,0.0,1.0,0.0,0.0,0.0,1.0,-1.838746875,5.80354482422,-9.09796630859,1.0,0.0,0.0,0.0,1.0,0.0,0.0,0.0,1.0
1463563633988014375,471,1463563633929812304,,-36.6718902588,-5.48988771439,128.825576782,0.0101129999384,1.0,0.0,0.0,0.0,1.0,0.0,0.0,0.0,1.0,-27.6219520569,9.63414573669,-12.5,1.0,0.0,0.0,0.0,1.0,0.0,0.0,0.0,1.0,-0.517147558594,6.69897624512,-7.84819304199,1.0,0.0,0.0,0.0,1.0,0.0,0.0,0.0,1.0
1463563633988617132,472,1463563633939926883,,-36.8500900269,-5.49619054794,128.676742554,0.0101129999384,1.0,0.0,0.0,0.0,1.0,0.0,0.0,0.0,1.0,-17.8658542633,8.10975551605,-11.7073173523,1.0,0.0,0.0,0.0,1.0,0.0,0.0,0.0,1.0,-1.34554133301,5.73171877441,-7.81946262207,1.0,0.0,0.0,0.0,1.0,0.0,0.0,0.0,1.0
1463563633996139173,473,1463563633950292138,,-37.0256614685,-5.44259929657,128.548370361,0.0102509995922,1.0,0.0,0.0,0.0,1.0,0.0,0.0,0.0,1.0,-16.341463089,7.37804937363,-9.63414573669,1.0,0.0,0.0,0.0,1.0,0.0,0.0,0.0,1.0,-0.450109912109,5.96156213379,-7.83861623535,1.0,0.0,0.0,0.0,1.0,0.0,0.0,0.0,1.0
1463563633996512713,474,1463563633960080625,,-37.1256523132,-5.37352514267,128.420806885,0.009990000166,1.0,0.0,0.0,0.0,1.0,0.0,0.0,0.0,1.0,-11.4634151459,9.75609779358,-7.86585378647,1.0,0.0,0.0,0.0,1.0,0.0,0.0,0.0,1.0,-0.632069238281,5.45399138184,-7.74284816895,1.0,0.0,0.0,0.0,1.0,0.0,0.0,0.0,1.0
1463563633996818909,475,1463563633970080986,,-37.1892471313,-5.3023519516,128.319580078,0.0100520001724,1.0,0.0,0.0,0.0,1.0,0.0,0.0,0.0,1.0,-8.35365867615,8.96341514587,-5.0,1.0,0.0,0.0,0.0,1.0,0.0,0.0,0.0,1.0,-0.775721337891,5.35822331543,-7.82425102539,1.0,0.0,0.0,0.0,1.0,0.0,0.0,0.0,1.0
1463563633997130678,476,1463563633980074576,,-37.2499809265,-5.19427108765,128.237045288,0.010169999674,1.0,0.0,0.0,0.0,1.0,0.0,0.0,0.0,1.0,-4.93902444839,9.5731716156,-2.43902444839,1.0,0.0,0.0,0.0,1.0,0.0,0.0,0.0,1.0,-0.507570751953,5.74129558105,-7.51300480957,1.0,0.0,0.0,0.0,1.0,0.0,0.0,0.0,1.0
1463563633997392552,477,1463563633991569980,,-37.2588653564,-5.06525039673,128.189041138,0.0100130001083,1.0,0.0,0.0,0.0,1.0,0.0,0.0,0.0,1.0,1.34146344662,9.14634132385,1.2804877758,1.0,0.0,0.0,0.0,1.0,0.0,0.0,0.0,1.0,-0.445321508789,6.05254179687,-7.65186850586,1.0,0.0,0.0,0.0,1.0,0.0,0.0,0.0,1.0
1463563634028228629,478,1463563634000178734,,-37.2113609314,-4.93394470215,128.175262451,0.0101110003889,1.0,0.0,0.0,0.0,1.0,0.0,0.0,0.0,1.0,6.70731735229,7.62195110321,4.45121955872,1.0,0.0,0.0,0.0,1.0,0.0,0.0,0.0,1.0,-0.531512805087,6.00944616699,-7.74284816895,1.0,0.0,0.0,0.0,1.0,0.0,0.0,0.0,1.0
1463563634028526336,479,1463563634011815648,,-37.078754425,-4.7763209343,128.189498901,0.0100940000266,1.0,0.0,0.0,0.0,1.0,0.0,0.0,0.0,1.0,15.0609760284,7.31707334518,7.68292665482,1.0,0.0,0.0,0.0,1.0,0.0,0.0,0.0,1.0,-0.344765039063,5.86579406738,-7.6614453125,1.0,0.0,0.0,0.0,1.0,0.0,0.0,0.0,1.0
1463563634034850728,480,1463563634020256591,,-36.8738937378,-4.62205123901,128.229949951,0.0100940000266,1.0,0.0,0.0,0.0,1.0,0.0,0.0,0.0,1.0,20.7317085266,5.85365867615,9.93902492523,1.0,0.0,0.0,0.0,1.0,0.0,0.0,0.0,1.0,-0.411802685547,5.68383474121,-7.9439611084,1.0,0.0,0.0,0.0,1.0,0.0,0.0,0.0,1.0
1463563634035175518,481,1463563634030559398,,-36.6095123291,-4.45389652252,128.310333252,0.0101100001484,1.0,0.0,0.0,0.0,1.0,0.0,0.0,0.0,1.0,28.0487804413,4.14634132385,13.3536586761,1.0,0.0,0.0,0.0,1.0,0.0,0.0,0.0,1.0,-0.268150604204,5.83706364746,-7.87213505859,1.0,0.0,0.0,0.0,1.0,0.0,0.0,0.0,1.0
1463563634236640850,482,1463563634040898454,,-36.2733345032,-4.27934646606,128.422668457,0.0103139998391,1.0,0.0,0.0,0.0,1.0,0.0,0.0,0.0,1.0,34.6951217651,3.71951246262,16.5853652954,1.0,0.0,0.0,0.0,1.0,0.0,0.0,0.0,1.0,-0.450109912109,5.73171877441,-7.80509741211,1.0,0.0,0.0,0.0,1.0,0.0,0.0,0.0,1.0
1463563634236930328,483,1463563634051585113,,-35.8919487,-4.10645198822,128.564910889,0.00988600030541,1.0,0.0,0.0,0.0,1.0,0.0,0.0,0.0,1.0,40.3048782349,2.25609779358,19.7560977936,1.0,0.0,0.0,0.0,1.0,0.0,0.0,0.0,1.0,-0.426167895508,5.54975944824,-7.82425102539,1.0,0.0,0.0,0.0,1.0,0.0,0.0,0.0,1.0
1463563634237203295,484,1463563634061516672,,-35.4579391479,-3.92459988594,128.740188599,0.0101279998198,1.0,0.0,0.0,0.0,1.0,0.0,0.0,0.0,1.0,44.390247345,1.34146344662,22.5609760284,1.0,0.0,0.0,0.0,1.0,0.0,0.0,0.0,1.0,-0.440533105469,5.30076247559,-7.68059892578,1.0,0.0,0.0,0.0,1.0,0.0,0.0,0.0,1.0
1463563634237520220,485,1463563634070820162,,-34.9985923767,-3.73672056198,128.940673828,0.0100750001147,1.0,0.0,0.0,0.0,1.0,0.0,0.0,0.0,1.0,46.7682952881,0.243902444839,24.817073822,1.0,0.0,0.0,0.0,1.0,0.0,0.0,0.0,1.0,-0.339976635742,5.15232197266,-7.72848295898,1.0,0.0,0.0,0.0,1.0,0.0,0.0,0.0,1.0
1463563634237838760,486,1463563634080924533,,-34.5118179321,-3.5544629097,129.161895752,0.0101150004193,1.0,0.0,0.0,0.0,1.0,0.0,0.0,0.0,1.0,48.5975608826,-0.0609756112099,26.8902454376,1.0,0.0,0.0,0.0,1.0,0.0,0.0,0.0,1.0,-0.531512805087,4.91769020996,-7.7332713623,1.0,0.0,0.0,0.0,1.0,0.0,0.0,0.0,1.0
1463563634238167716,487,1463563634092067283,,-34.0195465088,-3.3711977005,129.40322876,0.0100809996948,1.0,0.0,0.0,0.0,1.0,0.0,0.0,0.0,1.0,49.634147644,-0.548780500889,28.8414649963,1.0,0.0,0.0,0.0,1.0,0.0,0.0,0.0,1.0,-0.550666381836,4.8171340325,-7.6375032959,1.0,0.0,0.0,0.0,1.0,0.0,0.0,0.0,1.0
1463563634238454329,488,1463563634101334002,,-33.5180625916,-3.18432188034,129.660018921,0.010108999908,1.0,0.0,0.0,0.0,1.0,0.0,0.0,0.0,1.0,50.5487785339,-1.03658533096,30.0609760284,1.0,0.0,0.0,0.0,1.0,0.0,0.0,0.0,1.0,-0.483628735352,4.77403840261,-7.67581052246,1.0,0.0,0.0,0.0,1.0,0.0,0.0,0.0,1.0
1463563634238770161,489,1463563634111967588,,-32.9935722351,-3.00352525711,129.929916382,0.0101549997926,1.0,0.0,0.0,0.0,1.0,0.0,0.0,0.0,1.0,52.3780517578,-2.68292689323,30.1829280853,1.0,0.0,0.0,0.0,1.0,0.0,0.0,0.0,1.0,-0.320823022461,4.72615378489,-7.80988581543,1.0,0.0,0.0,0.0,1.0,0.0,0.0,0.0,1.0
1463563634239041930,490,1463563634121362171,,-32.4610023499,-2.84662866592,130.193344116,0.0100859999657,1.0,0.0,0.0,0.0,1.0,0.0,0.0,0.0,1.0,53.3536605835,-2.80487799644,29.3902435303,1.0,0.0,0.0,0.0,1.0,0.0,0.0,0.0,1.0,-0.521935925381,4.58250197754,-7.75721337891,1.0,0.0,0.0,0.0,1.0,0.0,0.0,0.0,1.0
1463563634239289533,491,1463563634132429662,,-31.911315918,-2.70232701302,130.452514648,0.0100720003247,1.0,0.0,0.0,0.0,1.0,0.0,0.0,0.0,1.0,55.0609779358,-3.53658556938,28.2926845551,1.0,0.0,0.0,0.0,1.0,0.0,0.0,0.0,1.0,-0.450109912109,4.40054265137,-7.60398447266,1.0,0.0,0.0,0.0,1.0,0.0,0.0,0.0,1.0
1463563634239866353,492,1463563634141487423,,-31.3529968262,-2.58239889145,130.70249939,0.0100849997252,1.0,0.0,0.0,0.0,1.0,0.0,0.0,0.0,1.0,58.1097564697,-3.84146332741,26.7073173523,1.0,0.0,0.0,0.0,1.0,0.0,0.0,0.0,1.0,-0.627280834961,4.86980617676,-7.82425102539,1.0,0.0,0.0,0.0,1.0,0.0,0.0,0.0,1.0
1463563634240156976,493,1463563634153082932,,-30.680223465,-2.47443985939,130.947174072,0.010924000293,1.0,0.0,0.0,0.0,1.0,0.0,0.0,0.0,1.0,66.2804946899,-3.35365867615,23.9634151459,1.0,0.0,0.0,0.0,1.0,0.0,0.0,0.0,1.0,-0.751779321289,5.23851323242,-7.92480749512,1.0,0.0,0.0,0.0,1.0,0.0,0.0,0.0,1.0
1463563634240640932,494,1463563634163759226,,-30.0202503204,-2.38328504562,131.141601562,0.00929899979383,1.0,0.0,0.0,0.0,1.0,0.0,0.0,0.0,1.0,73.3536605835,-3.04878044128,22.3780498505,1.0,0.0,0.0,0.0,1.0,0.0,0.0,0.0,1.0,-0.603338854892,4.75488478933,-8.05888278809,1.0,0.0,0.0,0.0,1.0,0.0,0.0,0.0,1.0
1463563634241011607,495,1463563634177095662,,-29.1982536316,-2.27057528496,131.35295105,0.0104419998825,1.0,0.0,0.0,0.0,1.0,0.0,0.0,0.0,1.0,78.1097640991,-3.35365867615,21.4024391174,1.0,0.0,0.0,0.0,1.0,0.0,0.0,0.0,1.0,-0.248996972656,4.12760366211,-8.13070883789,1.0,0.0,0.0,0.0,1.0,0.0,0.0,0.0,1.0
1463563634241061867,496,1463563634188760388,,-28.1699905396,-2.15909838676,131.619155884,0.0125500001013,1.0,0.0,0.0,0.0,1.0,0.0,0.0,0.0,1.0,79.634147644,-4.93902444839,21.5243911743,1.0,0.0,0.0,0.0,1.0,0.0,0.0,0.0,1.0,-0.268150604204,3.7253777832,-8.22168850098,1.0,0.0,0.0,0.0,1.0,0.0,0.0,0.0,1.0
1463563634241458636,497,1463563634193414737,,-27.5788764954,-2.09973883629,131.778427124,0.00728499982506,1.0,0.0,0.0,0.0,1.0,0.0,0.0,0.0,1.0,79.1463470459,-5.12195110321,22.0121955872,1.0,0.0,0.0,0.0,1.0,0.0,0.0,0.0,1.0,-0.325611425781,3.57214887695,-8.15465085449,1.0,0.0,0.0,0.0,1.0,0.0,0.0,0.0,1.0
1463563634241510719,498,1463563634201849013,,-26.7651176453,-2.02030611038,132.004440308,0.0101030003279,1.0,0.0,0.0,0.0,1.0,0.0,0.0,0.0,1.0,74.8170776367,-6.28048801422,22.0121955872,1.0,0.0,0.0,0.0,1.0,0.0,0.0,0.0,1.0,-0.15322890625,2.90656081543,-8.31266757954,1.0,0.0,0.0,0.0,1.0,0.0,0.0,0.0,1.0
1463563634241858685,499,1463563634213009420,,-25.9729175568,-1.96424508095,132.240539551,0.0105870002881,1.0,0.0,0.0,0.0,1.0,0.0,0.0,0.0,1.0,70.0000076294,-7.07317113876,21.4024391174,1.0,0.0,0.0,0.0,1.0,0.0,0.0,0.0,1.0,-0.349553442383,3.0166940918,-8.56645412456,1.0,0.0,0.0,0.0,1.0,0.0,0.0,0.0,1.0
1463563634242190090,500,1463563634223082801,,-25.2955436707,-1.909252882,132.449829102,0.00962200015783,1.0,0.0,0.0,0.0,1.0,0.0,0.0,0.0,1.0,67.2560958862,-7.74390268326,20.3048782349,1.0,0.0,0.0,0.0,1.0,0.0,0.0,0.0,1.0,-0.0622492431641,3.57214887695,-9.62469125835,1.0,0.0,0.0,0.0,1.0,0.0,0.0,0.0,1.0
1463563634242499046,501,1463563634232884361,,-24.6120166779,-1.91585874557,132.653945923,0.0101199997589,1.0,0.0,0.0,0.0,1.0,0.0,0.0,0.0,1.0,67.6829299927,-7.01219511032,18.7804889679,1.0,0.0,0.0,0.0,1.0,0.0,0.0,0.0,1.0,-1.05823706072,3.63918652344,-8.5520889146,1.0,0.0,0.0,0.0,1.0,0.0,0.0,0.0,1.0
1463563634261979875,502,1463563634243279823,,-23.956905365,-1.91269171238,132.83404541,0.0100710000843,1.0,0.0,0.0,0.0,1.0,0.0,0.0,0.0,1.0,70.8536605835,-6.28048801422,16.341463089,1.0,0.0,0.0,0.0,1.0,0.0,0.0,0.0,1.0,-0.837970581055,4.58250197754,-8.54730051128,1.0,0.0,0.0,0.0,1.0,0.0,0.0,0.0,1.0
1463563634262298259,503,1463563634253395600,,-23.2034568787,-1.88706696033,133.008285522,0.0104329995811,1.0,0.0,0.0,0.0,1.0,0.0,0.0,0.0,1.0,79.9390258789,-4.87804889679,15.548781395,1.0,0.0,0.0,0.0,1.0,0.0,0.0,0.0,1.0,-0.60812722168,4.87459458008,-8.60954975444,1.0,0.0,0.0,0.0,1.0,0.0,0.0,0.0,1.0
1463563634306272128,504,1463563634264151061,,-22.3637332916,-1.8584228754,133.176834106,0.00978800002486,1.0,0.0,0.0,0.0,1.0,0.0,0.0,0.0,1.0,88.1097640991,-4.51219558716,16.4024391174,1.0,0.0,0.0,0.0,1.0,0.0,0.0,0.0,1.0,-0.579396801758,3.77326181641,-8.77714328613,1.0,0.0,0.0,0.0,1.0,0.0,0.0,0.0,1.0
1463563634306569626,505,1463563634272849241,,-21.4526615143,-1.78859531879,133.365264893,0.0101039996371,1.0,0.0,0.0,0.0,1.0,0.0,0.0,0.0,1.0,92.2560958862,-4.14634132385,17.9878044128,1.0,0.0,0.0,0.0,1.0,0.0,0.0,0.0,1.0,-0.0143652099609,3.55299526367,-8.72925925293,1.0,0.0,0.0,0.0,1.0,0.0,0.0,0.0,1.0
1463563634306850197,506,1463563634284390479,,-20.5046386719,-1.73685050011,133.577804565,0.0101290000603,1.0,0.0,0.0,0.0,1.0,0.0,0.0,0.0,1.0,96.2804870605,-5.91463422775,19.6951236725,1.0,0.0,0.0,0.0,1.0,0.0,0.0,0.0,1.0,-0.0814028564453,3.56257207031,-8.91600698242,1.0,0.0,0.0,0.0,1.0,0.0,0.0,0.0,1.0
1463563634307127071,507,1463563634294199122,,-19.5008029938,-1.73074626923,133.797821045,0.0103550003842,1.0,0.0,0.0,0.0,1.0,0.0,0.0,0.0,1.0,100.853660583,-8.10975551605,19.0853652954,1.0,0.0,0.0,0.0,1.0,0.0,0.0,0.0,1.0,-0.411802685547,3.77326181641,-9.30865547017,1.0,0.0,0.0,0.0,1.0,0.0,0.0,0.0,1.0
1463563634307507069,508,1463563634303649798,,-18.5013370514,-1.75007176399,133.999633789,0.00982599984854,1.0,0.0,0.0,0.0,1.0,0.0,0.0,0.0,1.0,105.365859985,-7.92682981491,18.4146347046,1.0,0.0,0.0,0.0,1.0,0.0,0.0,0.0,1.0,-0.818816967773,3.69185895996,-9.71567033691,1.0,0.0,0.0,0.0,1.0,0.0,0.0,0.0,1.0
1463563634315807491,509,1463563634313800627,,-17.428352356,-1.77998304367,134.187149048,0.0103559996933,1.0,0.0,0.0,0.0,1.0,0.0,0.0,0.0,1.0,108.048782349,-7.31707334518,16.0365848541,1.0,0.0,0.0,0.0,1.0,0.0,0.0,0.0,1.0,-0.938527050781,3.84508786621,-10.1945106689,1.0,0.0,0.0,0.0,1.0,0.0,0.0,0.0,1.0
1463563634338245751,510,1463563634325380198,,-16.3530368805,-1.79925572872,134.365142822,0.00997599959373,1.0,0.0,0.0,0.0,1.0,0.0,0.0,0.0,1.0,114.024391174,-5.24390268326,16.341463089,1.0,0.0,0.0,0.0,1.0,0.0,0.0,0.0,1.0,-1.01992990723,3.70622416992,-9.45230756977,1.0,0.0,0.0,0.0,1.0,0.0,0.0,0.0,1.0
1463563634338697571,511,1463563634335268476,,-15.2316217422,-1.78841853142,134.560577393,0.0101290000603,1.0,0.0,0.0,0.0,1.0,0.0,0.0,0.0,1.0,116.524398804,-2.5,18.5975627899,1.0,0.0,0.0,0.0,1.0,0.0,0.0,0.0,1.0,-0.981622680664,3.35667072754,-9.29907866352,1.0,0.0,0.0,0.0,1.0,0.0,0.0,0.0,1.0
1463563634345323003,512,1463563634343528846,,-14.0960063934,-1.75507903099,134.789672852,0.00993799977005,1.0,0.0,0.0,0.0,1.0,0.0,0.0,0.0,1.0,116.585365295,-1.70731711388,22.682926178,1.0,0.0,0.0,0.0,1.0,0.0,0.0,0.0,1.0,-0.780509741211,2.41814367676,-8.99262143555,1.0,0.0,0.0,0.0,1.0,0.0,0.0,0.0,1.0
1463563634355525342,513,1463563634353654727,,-12.9857645035,-1.67358779907,135.075057983,0.0100659998134,1.0,0.0,0.0,0.0,1.0,0.0,0.0,0.0,1.0,111.341468811,-0.243902444839,28.3536586761,1.0,0.0,0.0,0.0,1.0,0.0,0.0,0.0,1.0,-0.359130249023,1.94409174805,-8.77714328613,1.0,0.0,0.0,0.0,1.0,0.0,0.0,0.0,1.0
1463563634383188729,514,1463563634363587120,,-11.9173030853,-1.59307920933,135.412780762,0.0101209999993,1.0,0.0,0.0,0.0,1.0,0.0,0.0,0.0,1.0,106.036590576,-0.12195122242,33.3536605835,1.0,0.0,0.0,0.0,1.0,0.0,0.0,0.0,1.0,-0.488417138672,1.71903679199,-9.11233151855,1.0,0.0,0.0,0.0,1.0,0.0,0.0,0.0,1.0
1463563634383584300,515,1463563634373790917,,-10.91335392,-1.50914049149,135.785308838,0.0100940000266,1.0,0.0,0.0,0.0,1.0,0.0,0.0,0.0,1.0,100.67073822,0.243902444839,36.8292694092,1.0,0.0,0.0,0.0,1.0,0.0,0.0,0.0,1.0,-0.497993945312,1.69030637207,-9.28950185688,1.0,0.0,0.0,0.0,1.0,0.0,0.0,0.0,1.0
1463563634387970213,516,1463563634384012474,,-9.89082527161,-1.44361031055,136.183914185,0.0102030001581,1.0,0.0,0.0,0.0,1.0,0.0,0.0,0.0,1.0,100.426826477,0.0,38.8414649963,1.0,0.0,0.0,0.0,1.0,0.0,0.0,0.0,1.0,-0.718260498047,1.36948334961,-9.41878874653,1.0,0.0,0.0,0.0,1.0,0.0,0.0,0.0,1.0
1463563634397698179,517,1463563634394067262,,-8.96518611908,-1.38322222233,136.564300537,0.0100419996306,1.0,0.0,0.0,0.0,1.0,0.0,0.0,0.0,1.0,96.9512252808,-0.243902444839,37.317073822,1.0,0.0,0.0,0.0,1.0,0.0,0.0,0.0,1.0,-0.641646044922,2.17872351074,-10.2950671387,1.0,0.0,0.0,0.0,1.0,0.0,0.0,0.0,1.0
1463563634408431817,518,1463563634405949539,,-8.00102615356,-1.35031592846,136.915649414,0.0101190004498,1.0,0.0,0.0,0.0,1.0,0.0,0.0,0.0,1.0,102.743904114,-0.609756112099,33.9024391174,1.0,0.0,0.0,0.0,1.0,0.0,0.0,0.0,1.0,-0.866701000977,2.51870014648,-10.2136642822,1.0,0.0,0.0,0.0,1.0,0.0,0.0,0.0,1.0
1463563634418542438,519,1463563634414985374,,-7.00777292252,-1.32583081722,137.252578735,0.0101479999721,1.0,0.0,0.0,0.0,1.0,0.0,0.0,0.0,1.0,101.585365295,1.2195122242,32.6219520569,1.0,0.0,0.0,0.0,1.0,0.0,0.0,0.0,1.0,-1.1875240965,1.62805712891,-10.1322614258,1.0,0.0,0.0,0.0,1.0,0.0,0.0,0.0,1.0
1463563634427186243,520,1463563634424160687,,-6.05577230453,-1.29463875294,137.556259155,0.0100670000538,1.0,0.0,0.0,0.0,1.0,0.0,0.0,0.0,1.0,103.536590576,1.8292683363,29.3902435303,1.0,0.0,0.0,0.0,1.0,0.0,0.0,0.0,1.0,-1.02950671387,2.48996972656,-10.3190091553,1.0,0.0,0.0,0.0,1.0,0.0,0.0,0.0,1.0
1463563634438668002,521,1463563634434215006,,-5.03453636169,-1.25442409515,137.85168457,0.010098000057,1.0,0.0,0.0,0.0,1.0,0.0,0.0,0.0,1.0,107.195121765,2.37804889679,28.475610733,1.0,0.0,0.0,0.0,1.0,0.0,0.0,0.0,1.0,-0.804451757813,1.69509477539,-9.94072529297,1.0,0.0,0.0,0.0,1.0,0.0,0.0,0.0,1.0
1463563634447980971,522,1463563634444680729,,-4.0244679451,-1.1941742897,138.154891968,0.0100149996579,1.0,0.0,0.0,0.0,1.0,0.0,0.0,0.0,1.0,108.414642334,3.23170733452,29.3902435303,1.0,0.0,0.0,0.0,1.0,0.0,0.0,0.0,1.0,-0.497993945312,1.75255561523,-9.77313117676,1.0,0.0,0.0,0.0,1.0,0.0,0.0,0.0,1.0
1463563634458270236,523,1463563634455699834,,-2.9758951664,-1.14858198166,138.463088989,0.0101640000939,1.0,0.0,0.0,0.0,1.0,0.0,0.0,0.0,1.0,109.085372925,2.86585378647,29.3292694092,1.0,0.0,0.0,0.0,1.0,0.0,0.0,0.0,1.0,-0.603338854892,1.31202250977,-9.95030209961,1.0,0.0,0.0,0.0,1.0,0.0,0.0,0.0,1.0
1463563634470310273,524,1463563634464391504,,-1.93621623516,-1.11482834816,138.779541016,0.0100619997829,1.0,0.0,0.0,0.0,1.0,0.0,0.0,0.0,1.0,108.902442932,2.01219511032,30.3048782349,1.0,0.0,0.0,0.0,1.0,0.0,0.0,0.0,1.0,-0.574608398438,1.10612116699,-10.3477395752,1.0,0.0,0.0,0.0,1.0,0.0,0.0,0.0,1.0
1463563634477118100,525,1463563634475802951,,-0.888850688934,-1.07986903191,139.093795776,0.0101359998807,1.0,0.0,0.0,0.0,1.0,0.0,0.0,0.0,1.0,109.329269409,2.07317066193,29.7560997009,1.0,0.0,0.0,0.0,1.0,0.0,0.0,0.0,1.0,-0.45968671875,1.01035310059,-10.4770264648,1.0,0.0,0.0,0.0,1.0,0.0,0.0,0.0,1.0
1463563634487592573,526,1463563634485818416,,0.187817618251,-1.06864488125,139.412109375,0.0103270001709,1.0,0.0,0.0,0.0,1.0,0.0,0.0,0.0,1.0,109.878051758,1.58536589146,29.5121974945,1.0,0.0,0.0,0.0,1.0,0.0,0.0,0.0,1.0,-0.723048901367,0.780509741211,-10.912771167,1.0,0.0,0.0,0.0,1.0,0.0,0.0,0.0,1.0
1463563634498186628,527,1463563634495266800,,1.23088300228,-1.04934108257,139.718383789,0.00985900033265,1.0,0.0,0.0,0.0,1.0,0.0,0.0,0.0,1.0,110.121955872,2.31707310677,29.6951236725,1.0,0.0,0.0,0.0,1.0,0.0,0.0,0.0,1.0,-0.569819995117,0.316034619141,-10.6829278076,1.0,0.0,0.0,0.0,1.0,0.0,0.0,0.0,1.0
1463563634517540322,528,1463563634505387734,,2.29604291916,-1.04687607288,140.038894653,0.010153000243,1.0,0.0,0.0,0.0,1.0,0.0,0.0,0.0,1.0,107.865852356,1.52439022064,30.1829280853,1.0,0.0,0.0,0.0,1.0,0.0,0.0,0.0,1.0,-0.632069238281,-0.138863696289,-10.7164466309,1.0,0.0,0.0,0.0,1.0,0.0,0.0,0.0,1.0
1463563634519709320,529,1463563634515116950,,3.32183885574,-1.03830420971,140.361129761,0.0100309997797,1.0,0.0,0.0,0.0,1.0,0.0,0.0,0.0,1.0,105.426834106,1.70731711388,30.6707305908,1.0,0.0,0.0,0.0,1.0,0.0,0.0,0.0,1.0,-0.430956298828,-0.296881024126,-10.5727945312,1.0,0.0,0.0,0.0,1.0,0.0,0.0,0.0,1.0
1463563634548729262,530,1463563634525396320,,4.32140398026,-1.04749333858,140.690292358,0.0101100001484,1.0,0.0,0.0,0.0,1.0,0.0,0.0,0.0,1.0,103.353660583,1.03658533096,31.0975627899,1.0,0.0,0.0,0.0,1.0,0.0,0.0,0.0,1.0,-0.517147558594,-0.239420166016,-10.4626612549,1.0,0.0,0.0,0.0,1.0,0.0,0.0,0.0,1.0
1463563634549112854,531,1463563634536346467,,5.37251377106,-1.06298387051,141.013870239,0.0101669998839,1.0,0.0,0.0,0.0,1.0,0.0,0.0,0.0,1.0,105.792686462,0.609756112099,30.4268321991,1.0,0.0,0.0,0.0,1.0,0.0,0.0,0.0,1.0,-0.440533105469,-0.775721337891,-10.0508585693,1.0,0.0,0.0,0.0,1.0,0.0,0.0,0.0,1.0
1463563634549971599,532,1463563634545966517,,6.43326044083,-1.12089955807,141.295761108,0.0100849997252,1.0,0.0,0.0,0.0,1.0,0.0,0.0,0.0,1.0,106.829269409,-0.426829278469,26.7073173523,1.0,0.0,0.0,0.0,1.0,0.0,0.0,0.0,1.0,-1.02950671387,-1.14442839355,-10.553640918,1.0,0.0,0.0,0.0,1.0,0.0,0.0,0.0,1.0
1463563634563069078,533,1463563634555737244,,7.42401599884,-1.16135656834,141.578582764,0.0100680002943,1.0,0.0,0.0,0.0,1.0,0.0,0.0,0.0,1.0,106.463417053,-0.792682945728,26.7682933807,1.0,0.0,0.0,0.0,1.0,0.0,0.0,0.0,1.0,-0.560243188477,-0.148440512063,-10.8122146973,1.0,0.0,0.0,0.0,1.0,0.0,0.0,0.0,1.0
1463563634568938472,534,1463563634565552814,,8.46010398865,-1.19472527504,141.84312439,0.0100849997252,1.0,0.0,0.0,0.0,1.0,0.0,0.0,0.0,1.0,109.573173523,0.731707334518,24.7560977936,1.0,0.0,0.0,0.0,1.0,0.0,0.0,0.0,1.0,-0.684741674805,-0.569819995117,-10.8696755371,1.0,0.0,0.0,0.0,1.0,0.0,0.0,0.0,1.0
1463563634588942892,535,1463563634575827548,,9.50537586212,-1.23321175575,142.0887146,0.010219999589,1.0,0.0,0.0,0.0,1.0,0.0,0.0,0.0,1.0,110.853660583,0.487804889679,22.5609760284,1.0,0.0,0.0,0.0,1.0,0.0,0.0,0.0,1.0,-0.675164868164,-0.407014282227,-10.3860468018,1.0,0.0,0.0,0.0,1.0,0.0,0.0,0.0,1.0
1463563634588999350,536,1463563634586525301,,10.5648403168,-1.27377700806,142.312576294,0.00999800022691,1.0,0.0,0.0,0.0,1.0,0.0,0.0,0.0,1.0,115.182929993,0.853658556938,20.8536586761,1.0,0.0,0.0,0.0,1.0,0.0,0.0,0.0,1.0,-0.76614453125,-0.469263525391,-10.2471831055,1.0,0.0,0.0,0.0,1.0,0.0,0.0,0.0,1.0
1463563634597783780,537,1463563634596091393,,11.6681041718,-1.29968857765,142.515884399,0.0100689996034,1.0,0.0,0.0,0.0,1.0,0.0,0.0,0.0,1.0,118.78049469,2.31707310677,18.3536586761,1.0,0.0,0.0,0.0,1.0,0.0,0.0,0.0,1.0,-0.756567724609,-0.636857641602,-9.97424411621,1.0,0.0,0.0,0.0,1.0,0.0,0.0,0.0,1.0
1463563634607827734,538,1463563634605782433,,12.8187227249,-1.32874286175,142.723297119,0.0100859999657,1.0,0.0,0.0,0.0,1.0,0.0,0.0,0.0,1.0,122.560974121,2.13414645195,18.7804889679,1.0,0.0,0.0,0.0,1.0,0.0,0.0,0.0,1.0,-0.684741674805,-0.943315454102,-9.74918916016,1.0,0.0,0.0,0.0,1.0,0.0,0.0,0.0,1.0
1463563634619212045,539,1463563634616412946,,14.0369529724,-1.34492325783,142.927368164,0.010216999799,1.0,0.0,0.0,0.0,1.0,0.0,0.0,0.0,1.0,126.28049469,2.80487799644,18.0487823486,1.0,0.0,0.0,0.0,1.0,0.0,0.0,0.0,1.0,-0.550666381836,-1.43173259277,-9.99339772949,1.0,0.0,0.0,0.0,1.0,0.0,0.0,0.0,1.0
1463563634630228963,540,1463563634626640389,,15.3214693069,-1.37985801697,143.138244629,0.0102310003713,1.0,0.0,0.0,0.0,1.0,0.0,0.0,0.0,1.0,130.121948242,1.58536589146,19.0853652954,1.0,0.0,0.0,0.0,1.0,0.0,0.0,0.0,1.0,-0.536301208408,-2.04464821777,-9.69172832031,1.0,0.0,0.0,0.0,1.0,0.0,0.0,0.0,1.0
1463563634640276042,541,1463563634636927259,,16.5871295929,-1.38593661785,143.303421021,0.0100520001724,1.0,0.0,0.0,0.0,1.0,0.0,0.0,0.0,1.0,134.207321167,1.76829278469,14.6341466904,1.0,0.0,0.0,0.0,1.0,0.0,0.0,0.0,1.0,-0.225054956055,-1.68551796875,-10.2471831055,1.0,0.0,0.0,0.0,1.0,0.0,0.0,0.0,1.0
1463563634649151618,542,1463563634646980484,,17.8692417145,-1.4395147562,143.460098267,0.0100440001115,1.0,0.0,0.0,0.0,1.0,0.0,0.0,0.0,1.0,135.304870605,-0.426829278469,14.5121955872,1.0,0.0,0.0,0.0,1.0,0.0,0.0,0.0,1.0,-0.641646044922,-1.99676418457,-10.046070166,1.0,0.0,0.0,0.0,1.0,0.0,0.0,0.0,1.0
1463563634658520992,543,1463563634656509024,,19.1668395996,-1.46921944618,143.590911865,0.0100969998166,1.0,0.0,0.0,0.0,1.0,0.0,0.0,0.0,1.0,135.914642334,0.792682945728,11.4024391174,1.0,0.0,0.0,0.0,1.0,0.0,0.0,0.0,1.0,-0.536301208408,-2.22660754395,-9.8545340332,1.0,0.0,0.0,0.0,1.0,0.0,0.0,0.0,1.0
1463563634671153005,544,1463563634666832300,,20.4912204742,-1.52291965485,143.703536987,0.0101650003344,1.0,0.0,0.0,0.0,1.0,0.0,0.0,0.0,1.0,138.658538818,-0.243902444839,9.81707286835,1.0,0.0,0.0,0.0,1.0,0.0,0.0,0.0,1.0,-0.814028564453,-2.22660754395,-9.64863327495,1.0,0.0,0.0,0.0,1.0,0.0,0.0,0.0,1.0
1463563634680206600,545,1463563634676954066,,21.8459396362,-1.54894173145,143.789016724,0.010045000352,1.0,0.0,0.0,0.0,1.0,0.0,0.0,0.0,1.0,141.280487061,0.792682945728,6.7682929039,1.0,0.0,0.0,0.0,1.0,0.0,0.0,0.0,1.0,-0.660799658203,-2.7341782959,-9.37569311665,1.0,0.0,0.0,0.0,1.0,0.0,0.0,0.0,1.0
1463563634689379466,546,1463563634687630778,,23.2436065674,-1.5997941494,143.886474609,0.0102559998631,1.0,0.0,0.0,0.0,1.0,0.0,0.0,0.0,1.0,142.134140015,-1.2804877758,8.71951198578,1.0,0.0,0.0,0.0,1.0,0.0,0.0,0.0,1.0,-0.584185168546,-3.07894333496,-9.35175110005,1.0,0.0,0.0,0.0,1.0,0.0,0.0,0.0,1.0
1463563634699723783,547,1463563634697165308,,24.6040630341,-1.6409548521,143.988067627,0.00999800022691,1.0,0.0,0.0,0.0,1.0,0.0,0.0,0.0,1.0,139.085357666,-1.52439022064,9.69512176514,1.0,0.0,0.0,0.0,1.0,0.0,0.0,0.0,1.0,-0.3064578125,-3.85466467285,-9.28950185688,1.0,0.0,0.0,0.0,1.0,0.0,0.0,0.0,1.0
1463563634709803935,548,1463563634707435250,,25.905248642,-1.72158491611,144.102386475,0.00998300034553,1.0,0.0,0.0,0.0,1.0,0.0,0.0,0.0,1.0,133.597564697,-3.04878044128,11.9512195587,1.0,0.0,0.0,0.0,1.0,0.0,0.0,0.0,1.0,-0.550666381836,-3.97437475586,-9.05487067871,1.0,0.0,0.0,0.0,1.0,0.0,0.0,0.0,1.0
1463563634719293621,549,1463563634717255352,,27.148229599,-1.81322014332,144.220809937,0.0100330002606,1.0,0.0,0.0,0.0,1.0,0.0,0.0,0.0,1.0,129.085372925,-3.7804877758,12.8048782349,1.0,0.0,0.0,0.0,1.0,0.0,0.0,0.0,1.0,-0.521935925381,-3.85945307617,-9.06444748535,1.0,0.0,0.0,0.0,1.0,0.0,0.0,0.0,1.0
1463563634729567470,550,1463563634727244462,,28.389667511,-1.94538795948,144.345870972,0.0101669998839,1.0,0.0,0.0,0.0,1.0,0.0,0.0,0.0,1.0,126.951217651,-5.42682933807,14.4512205124,1.0,0.0,0.0,0.0,1.0,0.0,0.0,0.0,1.0,-0.76614453125,-4.03662399902,-8.77714328613,1.0,0.0,0.0,0.0,1.0,0.0,0.0,0.0,1.0
1463563634739699080,551,1463563634737407739,,29.6422290802,-2.09957480431,144.461990356,0.0100389998406,1.0,0.0,0.0,0.0,1.0,0.0,0.0,0.0,1.0,125.60975647,-5.48780488968,14.0853662491,1.0,0.0,0.0,0.0,1.0,0.0,0.0,0.0,1.0,-1.25456166992,-5.17626398926,-8.9591026123,1.0,0.0,0.0,0.0,1.0,0.0,0.0,0.0,1.0
1463563634749872930,552,1463563634747303257,,30.7996273041,-2.20757579803,144.572494507,0.0100859999657,1.0,0.0,0.0,0.0,1.0,0.0,0.0,0.0,1.0,118.658546448,-6.89024400711,14.2682924271,1.0,0.0,0.0,0.0,1.0,0.0,0.0,0.0,1.0,-0.148440512063,-4.98951625977,-9.31823227681,1.0,0.0,0.0,0.0,1.0,0.0,0.0,0.0,1.0
1463563634760112820,553,1463563634757546637,,31.898645401,-2.32259726524,144.670471191,0.0102099999785,1.0,0.0,0.0,0.0,1.0,0.0,0.0,0.0,1.0,111.341468811,-6.70731735229,12.8658542633,1.0,0.0,0.0,0.0,1.0,0.0,0.0,0.0,1.0,-0.392649072266,-5.12837995605,-9.06444748535,1.0,0.0,0.0,0.0,1.0,0.0,0.0,0.0,1.0
1463563634770869635,554,1463563634767560591,,32.9008369446,-2.46104979515,144.748306274,0.010006999597,1.0,0.0,0.0,0.0,1.0,0.0,0.0,0.0,1.0,105.670730591,-9.63414573669,12.7439022064,1.0,0.0,0.0,0.0,1.0,0.0,0.0,0.0,1.0,-0.411802685547,-4.99430466309,-9.1219083252,1.0,0.0,0.0,0.0,1.0,0.0,0.0,0.0,1.0
1463563634781613325,555,1463563634777792044,,33.8596687317,-2.59808683395,144.794876099,0.0101659996435,1.0,0.0,0.0,0.0,1.0,0.0,0.0,0.0,1.0,99.0853652954,-11.341463089,10.3658542633,1.0,0.0,0.0,0.0,1.0,0.0,0.0,0.0,1.0,-0.335188232422,-5.36780012207,-9.1697923584,1.0,0.0,0.0,0.0,1.0,0.0,0.0,0.0,1.0
1463563634791322542,556,1463563634788708963,,34.7688331604,-2.76140356064,144.821044922,0.010277999565,1.0,0.0,0.0,0.0,1.0,0.0,0.0,0.0,1.0,91.8292694092,-13.7804880142,9.93902492523,1.0,0.0,0.0,0.0,1.0,0.0,0.0,0.0,1.0,-0.45968671875,-5.62637390137,-8.78672009277,1.0,0.0,0.0,0.0,1.0,0.0,0.0,0.0,1.0
1463563634801171653,557,1463563634797815943,,35.5697441101,-2.92459082603,144.82800293,0.00986700039357,1.0,0.0,0.0,0.0,1.0,0.0,0.0,0.0,1.0,84.5121917725,-14.8170728683,8.71951198578,1.0,0.0,0.0,0.0,1.0,0.0,0.0,0.0,1.0,-0.579396801758,-5.78439121094,-8.74362446289,1.0,0.0,0.0,0.0,1.0,0.0,0.0,0.0,1.0
1463563634811150973,558,1463563634807974740,,36.3128204346,-3.10746979713,144.821960449,0.0100790001452,1.0,0.0,0.0,0.0,1.0,0.0,0.0,0.0,1.0,77.4390258789,-16.5243911743,8.59756088257,1.0,0.0,0.0,0.0,1.0,0.0,0.0,0.0,1.0,-0.651222851562,-5.73171877441,-8.54730051128,1.0,0.0,0.0,0.0,1.0,0.0,0.0,0.0,1.0
1463563634824738397,559,1463563634818179006,,36.9947738647,-3.30210161209,144.801559448,0.0101690003648,1.0,0.0,0.0,0.0,1.0,0.0,0.0,0.0,1.0,69.3902435303,-17.0731716156,7.62195110321,1.0,0.0,0.0,0.0,1.0,0.0,0.0,0.0,1.0,-0.91458503418,-6.17225187988,-8.52335849468,1.0,0.0,0.0,0.0,1.0,0.0,0.0,0.0,1.0
1463563634833930793,560,1463563634831790441,,37.6108703613,-3.47731566429,144.765579224,0.0101209999993,1.0,0.0,0.0,0.0,1.0,0.0,0.0,0.0,1.0,60.9756088257,-16.7682933807,5.85365867615,1.0,0.0,0.0,0.0,1.0,0.0,0.0,0.0,1.0,-0.823605371094,-6.31111557617,-7.86255825195,1.0,0.0,0.0,0.0,1.0,0.0,0.0,0.0,1.0
1463563634851067416,561,1463563634845881143,,38.070098877,-3.60328984261,144.695571899,0.0104050002992,1.0,0.0,0.0,0.0,1.0,0.0,0.0,0.0,1.0,47.317073822,-16.0365848541,1.2195122242,1.0,0.0,0.0,0.0,1.0,0.0,0.0,0.0,1.0,-0.574608398438,-6.28238515625,-8.63349177105,1.0,0.0,0.0,0.0,1.0,0.0,0.0,0.0,1.0
1463563634858504354,562,1463563634853588704,,38.4604377747,-3.73457217216,144.583145142,0.0105969998986,1.0,0.0,0.0,0.0,1.0,0.0,0.0,0.0,1.0,40.4878044128,-18.475610733,-1.70731711388,1.0,0.0,0.0,0.0,1.0,0.0,0.0,0.0,1.0,-0.651222851562,-6.32069238281,-8.77714328613,1.0,0.0,0.0,0.0,1.0,0.0,0.0,0.0,1.0
1463563634876719252,563,1463563634860620592,,38.8074302673,-3.83794975281,144.444595337,0.0111210001633,1.0,0.0,0.0,0.0,1.0,0.0,0.0,0.0,1.0,35.3048782349,-18.5365848541,-3.96341490746,1.0,0.0,0.0,0.0,1.0,0.0,0.0,0.0,1.0,-0.359130249023,-6.29675036621,-8.81066210937,1.0,0.0,0.0,0.0,1.0,0.0,0.0,0.0,1.0
1463563634877094927,564,1463563634873556041,,39.0268363953,-3.92279267311,144.286346436,0.00899999961257,1.0,0.0,0.0,0.0,1.0,0.0,0.0,0.0,1.0,27.7439041138,-21.5243911743,-7.98780536652,1.0,0.0,0.0,0.0,1.0,0.0,0.0,0.0,1.0,-0.45968671875,-6.44519086914,-8.78193168945,1.0,0.0,0.0,0.0,1.0,0.0,0.0,0.0,1.0
1463563634888735747,565,1463563634884297335,,39.2747039795,-4.0476808548,144.007019043,0.0136909997091,1.0,0.0,0.0,0.0,1.0,0.0,0.0,0.0,1.0,20.7926826477,-21.9512195587,-11.1585359573,1.0,0.0,0.0,0.0,1.0,0.0,0.0,0.0,1.0,-0.727837304687,-6.32069238281,-8.40364724263,1.0,0.0,0.0,0.0,1.0,0.0,0.0,0.0,1.0
1463563634896878514,566,1463563634893959677,,39.4086494446,-4.13151979446,143.783966064,0.00973699986935,1.0,0.0,0.0,0.0,1.0,0.0,0.0,0.0,1.0,16.341463089,-22.5,-13.9024391174,1.0,0.0,0.0,0.0,1.0,0.0,0.0,0.0,1.0,-0.952892260742,-6.60799658203,-8.74362446289,1.0,0.0,0.0,0.0,1.0,0.0,0.0,0.0,1.0
1463563634906059349,567,1463563634902291297,,39.4672050476,-4.16761016846,143.622329712,0.00708900019526,1.0,0.0,0.0,0.0,1.0,0.0,0.0,0.0,1.0,11.0975618362,-20.4268302917,-15.4878053665,1.0,0.0,0.0,0.0,1.0,0.0,0.0,0.0,1.0,-0.76614453125,-6.31590397949,-8.39885883931,1.0,0.0,0.0,0.0,1.0,0.0,0.0,0.0,1.0
1463563634913853159,568,1463563634911681088,,39.5157814026,-4.22319984436,143.388366699,0.00968199968338,1.0,0.0,0.0,0.0,1.0,0.0,0.0,0.0,1.0,6.70731735229,-21.4634151459,-16.2804889679,1.0,0.0,0.0,0.0,1.0,0.0,0.0,0.0,1.0,-0.837970581055,-6.43082565918,-8.21690009766,1.0,0.0,0.0,0.0,1.0,0.0,0.0,0.0,1.0
1463563634924550078,569,1463563634920870984,,39.5083770752,-4.24373865128,143.162033081,0.0095349997282,1.0,0.0,0.0,0.0,1.0,0.0,0.0,0.0,1.0,-0.304878056049,-18.9634151459,-17.6829280853,1.0,0.0,0.0,0.0,1.0,0.0,0.0,0.0,1.0,-0.718260498047,-6.71334145508,-8.18816967773,1.0,0.0,0.0,0.0,1.0,0.0,0.0,0.0,1.0
1463563634934089869,570,1463563634932248056,,39.4183692932,-4.26567029953,142.888778687,0.0107720000669,1.0,0.0,0.0,0.0,1.0,0.0,0.0,0.0,1.0,-7.80487823486,-20.1219520569,-18.841463089,1.0,0.0,0.0,0.0,1.0,0.0,0.0,0.0,1.0,-0.665588061523,-6.66545742187,-8.19295808105,1.0,0.0,0.0,0.0,1.0,0.0,0.0,0.0,1.0
1463563634949623063,571,1463563634947355107,,39.0927085876,-4.26702976227,142.454711914,0.0162959992886,1.0,0.0,0.0,0.0,1.0,0.0,0.0,0.0,1.0,-19.9390239716,-20.4268302917,-20.1829280853,1.0,0.0,0.0,0.0,1.0,0.0,0.0,0.0,1.0,-0.402225878906,-6.69897624512,-8.14028564453,1.0,0.0,0.0,0.0,1.0,0.0,0.0,0.0,1.0
1463563634955936674,572,1463563634953452677,,38.9043273926,-4.2657327652,142.247787476,0.00738599989563,1.0,0.0,0.0,0.0,1.0,0.0,0.0,0.0,1.0,-25.6707324982,-20.7317085266,-21.7073173523,1.0,0.0,0.0,0.0,1.0,0.0,0.0,0.0,1.0,-0.483628735352,-6.90487758789,-8.45631967915,1.0,0.0,0.0,0.0,1.0,0.0,0.0,0.0,1.0
1463563634970415708,573,1463563634961955026,,38.7185745239,-4.25515413284,142.076553345,0.00581699982285,1.0,0.0,0.0,0.0,1.0,0.0,0.0,0.0,1.0,-31.158536911,-20.9146347046,-23.475610733,1.0,0.0,0.0,0.0,1.0,0.0,0.0,0.0,1.0,-0.320823022461,-6.42124885254,-8.22168850098,1.0,0.0,0.0,0.0,1.0,0.0,0.0,0.0,1.0
1463563634980426277,574,1463563634972720747,,38.2629585266,-4.23823738098,141.698730469,0.0118479998782,1.0,0.0,0.0,0.0,1.0,0.0,0.0,0.0,1.0,-36.5243911743,-21.0975627899,-26.5853652954,1.0,0.0,0.0,0.0,1.0,0.0,0.0,0.0,1.0,-0.694318481445,-6.22492431641,-8.42758925923,1.0,0.0,0.0,0.0,1.0,0.0,0.0,0.0,1.0
1463563636052560493,575,1463563634980261538,,37.917881012,-4.22952222824,141.41947937,0.00853899959475,1.0,0.0,0.0,0.0,1.0,0.0,0.0,0.0,1.0,-39.1463432312,-20.5487823486,-27.9878063202,1.0,0.0,0.0,0.0,1.0,0.0,0.0,0.0,1.0,-0.952892260742,-6.15788666992,-8.28872556294,1.0,0.0,0.0,0.0,1.0,0.0,0.0,0.0,1.0
1463563636055296155,576,1463563634989894245,,37.470954895,-4.20789384842,141.072616577,0.0101049998775,1.0,0.0,0.0,0.0,1.0,0.0,0.0,0.0,1.0,-42.3780517578,-20.1829280853,-30.3658542633,1.0,0.0,0.0,0.0,1.0,0.0,0.0,0.0,1.0,-1.02950671387,-6.03338818359,-8.44195446919,1.0,0.0,0.0,0.0,1.0,0.0,0.0,0.0,1.0
1463563636055585997,577,1463563635000370019,,37.0000610352,-4.15776395798,140.731933594,0.0100440001115,1.0,0.0,0.0,0.0,1.0,0.0,0.0,0.0,1.0,-45.4878082275,-17.2560977936,-32.0121955872,1.0,0.0,0.0,0.0,1.0,0.0,0.0,0.0,1.0,-1.04387185076,-5.93762011719,-8.28872556294,1.0,0.0,0.0,0.0,1.0,0.0,0.0,0.0,1.0
1463563636055895058,578,1463563635010036997,,36.498134613,-4.09364509583,140.373779297,0.0100999996066,1.0,0.0,0.0,0.0,1.0,0.0,0.0,0.0,1.0,-47.9268302917,-16.7682933807,-34.2682952881,1.0,0.0,0.0,0.0,1.0,0.0,0.0,0.0,1.0,-1.0534486574,-5.80833322754,-8.39407043599,1.0,0.0,0.0,0.0,1.0,0.0,0.0,0.0,1.0
1463563636056184692,579,1463563635022110002,,35.9868507385,-3.99625849724,140.01550293,0.0102040003985,1.0,0.0,0.0,0.0,1.0,0.0,0.0,0.0,1.0,-52.2560997009,-14.3292694092,-35.1829299927,1.0,0.0,0.0,0.0,1.0,0.0,0.0,0.0,1.0,-0.837970581055,-6.15788666992,-7.81467421875,1.0,0.0,0.0,0.0,1.0,0.0,0.0,0.0,1.0
1463563636056485419,580,1463563635030935994,,35.4339256287,-3.88151597977,139.661499023,0.00999299995601,1.0,0.0,0.0,0.0,1.0,0.0,0.0,0.0,1.0,-57.9878082275,-13.5365858078,-35.9756088257,1.0,0.0,0.0,0.0,1.0,0.0,0.0,0.0,1.0,-0.641646044922,-6.4116720459,-8.12592043457,1.0,0.0,0.0,0.0,1.0,0.0,0.0,0.0,1.0
1463563636057597288,581,1463563635041464269,,34.7976036072,-3.75860095024,139.29208374,0.010095000267,1.0,0.0,0.0,0.0,1.0,0.0,0.0,0.0,1.0,-64.1463394165,-13.4756097794,-37.4390220642,1.0,0.0,0.0,0.0,1.0,0.0,0.0,0.0,1.0,-0.560243188477,-5.78917961426,-7.92480749512,1.0,0.0,0.0,0.0,1.0,0.0,0.0,0.0,1.0
1463563636057655361,582,1463563635052097699,,34.0913619995,-3.63350343704,138.908935547,0.0101680001244,1.0,0.0,0.0,0.0,1.0,0.0,0.0,0.0,1.0,-69.7560958862,-13.048781395,-38.9634132385,1.0,0.0,0.0,0.0,1.0,0.0,0.0,0.0,1.0,-0.665588061523,-5.68383474121,-8.21211169434,1.0,0.0,0.0,0.0,1.0,0.0,0.0,0.0,1.0
1463563636057693485,583,1463563635062264465,,33.3419342041,-3.51237106323,138.511688232,0.0101129999384,1.0,0.0,0.0,0.0,1.0,0.0,0.0,0.0,1.0,-73.0487823486,-14.1463422775,-40.0609741211,1.0,0.0,0.0,0.0,1.0,0.0,0.0,0.0,1.0,-0.550666381836,-5.2576668457,-8.2264769043,1.0,0.0,0.0,0.0,1.0,0.0,0.0,0.0,1.0
1463563636057731037,584,1463563635071479674,,32.5805206299,-3.39318752289,138.106338501,0.0100180003792,1.0,0.0,0.0,0.0,1.0,0.0,0.0,0.0,1.0,-75.7926864624,-13.7804880142,-41.4634170532,1.0,0.0,0.0,0.0,1.0,0.0,0.0,0.0,1.0,-0.646434448242,-5.32949289551,-8.3030907729,1.0,0.0,0.0,0.0,1.0,0.0,0.0,0.0,1.0
1463563636060032795,585,1463563635081958990,,31.7688694,-3.28543329239,137.691345215,0.0101239997894,1.0,0.0,0.0,0.0,1.0,0.0,0.0,0.0,1.0,-78.9634170532,-14.3902444839,-41.5853652954,1.0,0.0,0.0,0.0,1.0,0.0,0.0,0.0,1.0,-0.660799658203,-5.01345827637,-8.35576320942,1.0,0.0,0.0,0.0,1.0,0.0,0.0,0.0,1.0
1463563636060714666,586,1463563635092660285,,30.9250488281,-3.18288373947,137.282684326,0.0101549997926,1.0,0.0,0.0,0.0,1.0,0.0,0.0,0.0,1.0,-81.8292770386,-13.658536911,-40.9756088257,1.0,0.0,0.0,0.0,1.0,0.0,0.0,0.0,1.0,-0.670376464844,-4.78361520925,-8.21690009766,1.0,0.0,0.0,0.0,1.0,0.0,0.0,0.0,1.0
1463563636061362371,587,1463563635103294809,,30.0889930725,-3.09624505043,136.882385254,0.0100349998102,1.0,0.0,0.0,0.0,1.0,0.0,0.0,0.0,1.0,-85.0609817505,-13.4756097794,-40.3048782349,1.0,0.0,0.0,0.0,1.0,0.0,0.0,0.0,1.0,-0.76614453125,-5.08528432617,-7.98226833496,1.0,0.0,0.0,0.0,1.0,0.0,0.0,0.0,1.0
1463563636062088096,588,1463563635111290910,,29.208070755,-3.01515769958,136.487564087,0.0101209999993,1.0,0.0,0.0,0.0,1.0,0.0,0.0,0.0,1.0,-88.841468811,-12.8048782349,-39.5121955872,1.0,0.0,0.0,0.0,1.0,0.0,0.0,0.0,1.0,-0.77093293457,-4.88417138672,-7.87213505859,1.0,0.0,0.0,0.0,1.0,0.0,0.0,0.0,1.0
1463563636062554448,589,1463563635122849335,,28.275560379,-2.93343544006,136.090988159,0.0100750001147,1.0,0.0,0.0,0.0,1.0,0.0,0.0,0.0,1.0,-93.4146347046,-12.9878053665,-39.6951217651,1.0,0.0,0.0,0.0,1.0,0.0,0.0,0.0,1.0,-0.636857641602,-4.69263496165,-8.12592043457,1.0,0.0,0.0,0.0,1.0,0.0,0.0,0.0,1.0
1463563636062873248,590,1463563635131308090,,27.3003139496,-2.85441184044,135.678207397,0.0100870002061,1.0,0.0,0.0,0.0,1.0,0.0,0.0,0.0,1.0,-96.6463394165,-13.9024391174,-40.8536605835,1.0,0.0,0.0,0.0,1.0,0.0,0.0,0.0,1.0,-0.517147558594,-4.42927307129,-8.28393774414,1.0,0.0,0.0,0.0,1.0,0.0,0.0,0.0,1.0
1463563636063236319,591,1463563635142756099,,26.2486934662,-2.781863451,135.223190308,0.0104139996693,1.0,0.0,0.0,0.0,1.0,0.0,0.0,0.0,1.0,-99.5731735229,-14.9390249252,-43.3536567688,1.0,0.0,0.0,0.0,1.0,0.0,0.0,0.0,1.0,-0.560243188477,-4.0557776123,-8.43716606587,1.0,0.0,0.0,0.0,1.0,0.0,0.0,0.0,1.0
1463563636063305589,592,1463563635152816459,,25.1931610107,-2.72333216667,134.743026733,0.0102620003745,1.0,0.0,0.0,0.0,1.0,0.0,0.0,0.0,1.0,-98.841468811,-15.7317075729,-46.4024391174,1.0,0.0,0.0,0.0,1.0,0.0,0.0,0.0,1.0,-0.718260498047,-3.45243879395,-8.60476135112,1.0,0.0,0.0,0.0,1.0,0.0,0.0,0.0,1.0
1463563636063343662,593,1463563635163304109,,24.2249279022,-2.67833352089,134.269363403,0.00965099968016,1.0,0.0,0.0,0.0,1.0,0.0,0.0,0.0,1.0,-96.0365829468,-16.0365848541,-48.6585388184,1.0,0.0,0.0,0.0,1.0,0.0,0.0,0.0,1.0,-0.871489404297,-3.30399829102,-8.8633345459,1.0,0.0,0.0,0.0,1.0,0.0,0.0,0.0,1.0
1463563636063383193,594,1463563635172858378,,23.2437782288,-2.61986088753,133.759216309,0.0101140001789,1.0,0.0,0.0,0.0,1.0,0.0,0.0,0.0,1.0,-94.3292694092,-15.975610733,-49.9390258789,1.0,0.0,0.0,0.0,1.0,0.0,0.0,0.0,1.0,-0.632069238281,-3.40455476074,-8.82502731934,1.0,0.0,0.0,0.0,1.0,0.0,0.0,0.0,1.0
1463563636063445849,595,1463563635182590355,,22.2692012787,-2.56780433655,133.225860596,0.0103599997237,1.0,0.0,0.0,0.0,1.0,0.0,0.0,0.0,1.0,-93.7195129395,-16.341463089,-50.6707344055,1.0,0.0,0.0,0.0,1.0,0.0,0.0,0.0,1.0,-0.603338854892,-3.65834013672,-8.84418093262,1.0,0.0,0.0,0.0,1.0,0.0,0.0,0.0,1.0
1463563636063865482,596,1463563635192789569,,21.3395385742,-2.53646278381,132.72467041,0.00989099964499,1.0,0.0,0.0,0.0,1.0,0.0,0.0,0.0,1.0,-94.5731735229,-16.7073173523,-49.5121955872,1.0,0.0,0.0,0.0,1.0,0.0,0.0,0.0,1.0,-0.61770402832,-3.57214887695,-8.61912656108,1.0,0.0,0.0,0.0,1.0,0.0,0.0,0.0,1.0
1463563636063911419,597,1463563635203072845,,20.3911514282,-2.51966238022,132.223220825,0.0100589999929,1.0,0.0,0.0,0.0,1.0,0.0,0.0,0.0,1.0,-96.5853729248,-16.5853652954,-48.5365867615,1.0,0.0,0.0,0.0,1.0,0.0,0.0,0.0,1.0,-0.703895288086,-3.80678063965,-8.80587370605,1.0,0.0,0.0,0.0,1.0,0.0,0.0,0.0,1.0
1463563636064193970,598,1463563635212854353,,19.3914890289,-2.51322555542,131.730819702,0.0100959995762,1.0,0.0,0.0,0.0,1.0,0.0,0.0,0.0,1.0,-100.365852356,-16.7682933807,-47.317073822,1.0,0.0,0.0,0.0,1.0,0.0,0.0,0.0,1.0,-0.622492431641,-3.45722719727,-8.77235488281,1.0,0.0,0.0,0.0,1.0,0.0,0.0,0.0,1.0
1463563636067324421,599,1463563635223227784,,18.3516864777,-2.52400422096,131.239013672,0.0101150004193,1.0,0.0,0.0,0.0,1.0,0.0,0.0,0.0,1.0,-102.012199402,-17.0731716156,-47.134147644,1.0,0.0,0.0,0.0,1.0,0.0,0.0,0.0,1.0,-0.732625708008,-3.0885201416,-9.31823227681,1.0,0.0,0.0,0.0,1.0,0.0,0.0,0.0,1.0
1463563636068068636,600,1463563635232690752,,17.3079166412,-2.5477180481,130.739379883,0.0100659998134,1.0,0.0,0.0,0.0,1.0,0.0,0.0,0.0,1.0,-102.256095886,-17.9878044128,-47.9268302917,1.0,0.0,0.0,0.0,1.0,0.0,0.0,0.0,1.0,-0.699106884766,-2.81079274902,-9.44751916645,1.0,0.0,0.0,0.0,1.0,0.0,0.0,0.0,1.0
1463563636068531185,601,1463563635242886216,,16.2562637329,-2.57057404518,130.230453491,0.0101789999753,1.0,0.0,0.0,0.0,1.0,0.0,0.0,0.0,1.0,-101.829269409,-17.5000019073,-48.4756126404,1.0,0.0,0.0,0.0,1.0,0.0,0.0,0.0,1.0,-0.651222851562,-2.69108266602,-9.74918916016,1.0,0.0,0.0,0.0,1.0,0.0,0.0,0.0,1.0
1463563636068584050,602,1463563635253099805,,15.1954050064,-2.60763454437,129.725799561,0.0101690003648,1.0,0.0,0.0,0.0,1.0,0.0,0.0,0.0,1.0,-100.975616455,-17.8658542633,-48.1097602844,1.0,0.0,0.0,0.0,1.0,0.0,0.0,0.0,1.0,-0.660799658203,-2.18830031738,-9.89284125977,1.0,0.0,0.0,0.0,1.0,0.0,0.0,0.0,1.0
1463563636069031287,603,1463563635262626522,,14.1958293915,-2.65406560898,129.247451782,0.00995299965143,1.0,0.0,0.0,0.0,1.0,0.0,0.0,0.0,1.0,-99.7560958862,-16.8292694092,-46.7073173523,1.0,0.0,0.0,0.0,1.0,0.0,0.0,0.0,1.0,-0.780509741211,-2.39420180629,-9.4954043687,1.0,0.0,0.0,0.0,1.0,0.0,0.0,0.0,1.0
1463563636069090713,604,1463563635272573186,,13.1896800995,-2.71745204926,128.790924072,0.0101549997926,1.0,0.0,0.0,0.0,1.0,0.0,0.0,0.0,1.0,-101.585365295,-16.6463413239,-43.4756126404,1.0,0.0,0.0,0.0,1.0,0.0,0.0,0.0,1.0,-0.823605371094,-2.81079274902,-9.50498117534,1.0,0.0,0.0,0.0,1.0,0.0,0.0,0.0,1.0
1463563636069141078,605,1463563635283055262,,12.1511230469,-2.79495835304,128.375396729,0.0101570002735,1.0,0.0,0.0,0.0,1.0,0.0,0.0,0.0,1.0,-105.365859985,-15.3658533096,-39.6951217651,1.0,0.0,0.0,0.0,1.0,0.0,0.0,0.0,1.0,-0.991199487305,-2.7102362793,-9.31344387349,1.0,0.0,0.0,0.0,1.0,0.0,0.0,0.0,1.0
1463563636069851542,606,1463563635292905520,,11.0771961212,-2.86706733704,128.006713867,0.00999199971557,1.0,0.0,0.0,0.0,1.0,0.0,0.0,0.0,1.0,-106.585372925,-14.3902444839,-36.0975646973,1.0,0.0,0.0,0.0,1.0,0.0,0.0,0.0,1.0,-0.833182177734,-1.86747729492,-9.39484672993,1.0,0.0,0.0,0.0,1.0,0.0,0.0,0.0,1.0
1463563636070425498,607,1463563635303296087,,9.992395401,-2.93904733658,127.647979736,0.010098000057,1.0,0.0,0.0,0.0,1.0,0.0,0.0,0.0,1.0,-104.085365295,-14.3292694092,-34.9390258789,1.0,0.0,0.0,0.0,1.0,0.0,0.0,0.0,1.0,-0.708683691406,-1.32638771973,-9.81143840332,1.0,0.0,0.0,0.0,1.0,0.0,0.0,0.0,1.0
1463563636071064713,608,1463563635312977908,,8.92424488068,-3.01549863815,127.29990387,0.0101399999112,1.0,0.0,0.0,0.0,1.0,0.0,0.0,0.0,1.0,-98.9024353027,-14.9390249252,-33.9024391174,1.0,0.0,0.0,0.0,1.0,0.0,0.0,0.0,1.0,-0.541089611728,-0.603338854892,-9.92636008301,1.0,0.0,0.0,0.0,1.0,0.0,0.0,0.0,1.0
1463563636071586429,609,1463563635323980346,,7.89153814316,-3.11748957634,126.931213379,0.0106899999082,1.0,0.0,0.0,0.0,1.0,0.0,0.0,0.0,1.0,-90.9146347046,-15.6097564697,-34.0853691101,1.0,0.0,0.0,0.0,1.0,0.0,0.0,0.0,1.0,-0.723048901367,-0.569819995117,-10.4961800781,1.0,0.0,0.0,0.0,1.0,0.0,0.0,0.0,1.0
1463563636072085228,610,1463563635333695813,,7.06220722198,-3.20443558693,126.618011475,0.00951899960637,1.0,0.0,0.0,0.0,1.0,0.0,0.0,0.0,1.0,-84.1463394165,-14.2073173523,-32.682926178,1.0,0.0,0.0,0.0,1.0,0.0,0.0,0.0,1.0,-0.77093293457,-0.871489404297,-10.2471831055,1.0,0.0,0.0,0.0,1.0,0.0,0.0,0.0,1.0
1463563636072132884,611,1463563635344001068,,6.24569034576,-3.30683422089,126.30783844,0.0101340003312,1.0,0.0,0.0,0.0,1.0,0.0,0.0,0.0,1.0,-77.7439041138,-14.7560987473,-30.4268321991,1.0,0.0,0.0,0.0,1.0,0.0,0.0,0.0,1.0,-0.732625708008,-0.76614453125,-10.285490332,1.0,0.0,0.0,0.0,1.0,0.0,0.0,0.0,1.0
1463563636074361257,612,1463563635353619399,,5.49979257584,-3.40806722641,126.035629272,0.0100600002334,1.0,0.0,0.0,0.0,1.0,0.0,0.0,0.0,1.0,-70.9756088257,-13.7195129395,-27.1341457367,1.0,0.0,0.0,0.0,1.0,0.0,0.0,0.0,1.0,-0.780509741211,-0.574608398438,-10.1226846191,1.0,0.0,0.0,0.0,1.0,0.0,0.0,0.0,1.0
1463563636074430215,613,1463563635364538401,,4.82881402969,-3.51559519768,125.79196167,0.0100589999929,1.0,0.0,0.0,0.0,1.0,0.0,0.0,0.0,1.0,-63.4146385193,-13.4146347046,-24.4512195587,1.0,0.0,0.0,0.0,1.0,0.0,0.0,0.0,1.0,-0.876277807617,-0.450109912109,-10.2950671387,1.0,0.0,0.0,0.0,1.0,0.0,0.0,0.0,1.0
1463563636075523907,614,1463563635373986577,,4.22454071045,-3.61294293404,125.585876465,0.0101020000875,1.0,0.0,0.0,0.0,1.0,0.0,0.0,0.0,1.0,-56.2195129395,-12.8658542633,-20.7926826477,1.0,0.0,0.0,0.0,1.0,0.0,0.0,0.0,1.0,-0.694318481445,-0.3064578125,-10.2040874756,1.0,0.0,0.0,0.0,1.0,0.0,0.0,0.0,1.0
1463563636075579063,615,1463563635384345686,,3.70456552505,-3.70598983765,125.40322113,0.0100919995457,1.0,0.0,0.0,0.0,1.0,0.0,0.0,0.0,1.0,-49.0243911743,-11.7682924271,-18.5975627899,1.0,0.0,0.0,0.0,1.0,0.0,0.0,0.0,1.0,-0.794874951172,-0.430956298828,-10.5153336914,1.0,0.0,0.0,0.0,1.0,0.0,0.0,0.0,1.0
1463563636075613281,616,1463563635394339849,,3.23506450653,-3.79793000221,125.255210876,0.010111999698,1.0,0.0,0.0,0.0,1.0,0.0,0.0,0.0,1.0,-45.9146347046,-10.2439022064,-15.1829271317,1.0,0.0,0.0,0.0,1.0,0.0,0.0,0.0,1.0,-0.986411083984,-0.727837304687,-10.3046439453,1.0,0.0,0.0,0.0,1.0,0.0,0.0,0.0,1.0
1463563636075644948,617,1463563635404501459,,2.8347017765,-3.86614108086,125.127372742,0.0101349996403,1.0,0.0,0.0,0.0,1.0,0.0,0.0,0.0,1.0,-39.9390258789,-10.8536586761,-13.1097564697,1.0,0.0,0.0,0.0,1.0,0.0,0.0,0.0,1.0,-0.426167895508,-0.852335791016,-10.4770264648,1.0,0.0,0.0,0.0,1.0,0.0,0.0,0.0,1.0
1463563636076148903,618,1463563635414758329,,2.47873520851,-3.95059013367,125.030982971,0.0101020000875,1.0,0.0,0.0,0.0,1.0,0.0,0.0,0.0,1.0,-34.7560997009,-9.20731735229,-10.2439022064,1.0,0.0,0.0,0.0,1.0,0.0,0.0,0.0,1.0,-1.01035310059,-0.646434448242,-10.5105452881,1.0,0.0,0.0,0.0,1.0,0.0,0.0,0.0,1.0
1463563636076452964,619,1463563635424680617,,2.16327381134,-4.01661539078,124.951713562,0.0101450001821,1.0,0.0,0.0,0.0,1.0,0.0,0.0,0.0,1.0,-30.6097583771,-9.51219558716,-8.5365858078,1.0,0.0,0.0,0.0,1.0,0.0,0.0,0.0,1.0,-0.598550451572,-0.598550451572,-10.4866032715,1.0,0.0,0.0,0.0,1.0,0.0,0.0,0.0,1.0
1463563636077105044,620,1463563635434332334,,1.90508913994,-4.07313251495,124.895103455,0.0101659996435,1.0,0.0,0.0,0.0,1.0,0.0,0.0,0.0,1.0,-26.5243911743,-9.39024448395,-6.21951246262,1.0,0.0,0.0,0.0,1.0,0.0,0.0,0.0,1.0,-0.426167895508,-0.852335791016,-10.2807019287,1.0,0.0,0.0,0.0,1.0,0.0,0.0,0.0,1.0
1463563636079965913,621,1463563635445359616,,1.69335091114,-4.14841079712,124.858535767,0.00997199956328,1.0,0.0,0.0,0.0,1.0,0.0,0.0,0.0,1.0,-22.8048782349,-9.14634132385,-4.32926845551,1.0,0.0,0.0,0.0,1.0,0.0,0.0,0.0,1.0,-0.861912597656,-0.948103857422,-10.6829278076,1.0,0.0,0.0,0.0,1.0,0.0,0.0,0.0,1.0
1463563636080046381,622,1463563635454930239,,1.50278103352,-4.24661493301,124.822486877,0.0100809996948,1.0,0.0,0.0,0.0,1.0,0.0,0.0,0.0,1.0,-21.8902435303,-11.5853662491,-4.08536577225,1.0,0.0,0.0,0.0,1.0,0.0,0.0,0.0,1.0,-0.818816967773,-1.16837033709,-10.5823713379,1.0,0.0,0.0,0.0,1.0,0.0,0.0,0.0,1.0
1463563636080782992,623,1463563635464393416,,1.32028198242,-4.33044815063,124.782455444,0.0101070003584,1.0,0.0,0.0,0.0,1.0,0.0,0.0,0.0,1.0,-20.4268302917,-10.1829271317,-4.57317066193,1.0,0.0,0.0,0.0,1.0,0.0,0.0,0.0,1.0,-0.833182177734,-1.01514150391,-10.6446205811,1.0,0.0,0.0,0.0,1.0,0.0,0.0,0.0,1.0
1463563636081613508,624,1463563635475575072,,1.15251839161,-4.44220161438,124.744400024,0.0102230003104,1.0,0.0,0.0,0.0,1.0,0.0,0.0,0.0,1.0,-18.841463089,-11.2195119858,-4.32926845551,1.0,0.0,0.0,0.0,1.0,0.0,0.0,0.0,1.0,-1.14921679688,-0.995987890625,-10.6350437744,1.0,0.0,0.0,0.0,1.0,0.0,0.0,0.0,1.0
1463563636081668195,625,1463563635485512673,,1.00622236729,-4.53719377518,124.700881958,0.0100250001997,1.0,0.0,0.0,0.0,1.0,0.0,0.0,0.0,1.0,-19.3902435303,-9.26829242706,-4.81707286835,1.0,0.0,0.0,0.0,1.0,0.0,0.0,0.0,1.0,-1.22583125,-1.36469494629,-10.2902787354,1.0,0.0,0.0,0.0,1.0,0.0,0.0,0.0,1.0
1463563636082425431,626,1463563635495795896,,0.849892139435,-4.60720443726,124.657821655,0.010050999932,1.0,0.0,0.0,0.0,1.0,0.0,0.0,0.0,1.0,-21.4024391174,-8.5365858078,-4.69512224197,1.0,0.0,0.0,0.0,1.0,0.0,0.0,0.0,1.0,-0.895431420898,-1.50355864258,-10.1035310059,1.0,0.0,0.0,0.0,1.0,0.0,0.0,0.0,1.0
1463563636082483764,627,1463563635505454124,,0.653805017471,-4.68394756317,124.606796265,0.0101129999384,1.0,0.0,0.0,0.0,1.0,0.0,0.0,0.0,1.0,-23.3536586761,-9.20731735229,-5.60975599289,1.0,0.0,0.0,0.0,1.0,0.0,0.0,0.0,1.0,-0.861912597656,-1.07260241682,-9.69172832031,1.0,0.0,0.0,0.0,1.0,0.0,0.0,0.0,1.0
1463563636082794856,628,1463563635515866826,,0.452421158552,-4.77538633347,124.543708801,0.0102000003681,1.0,0.0,0.0,0.0,1.0,0.0,0.0,0.0,1.0,-24.3902435303,-9.63414573669,-6.70731735229,1.0,0.0,0.0,0.0,1.0,0.0,0.0,0.0,1.0,-1.06781401349,-1.17315874041,-9.95987890625,1.0,0.0,0.0,0.0,1.0,0.0,0.0,0.0,1.0
1463563636083060375,629,1463563635525525314,,0.220070838928,-4.84888076782,124.462097168,0.0100880004466,1.0,0.0,0.0,0.0,1.0,0.0,0.0,0.0,1.0,-27.4390258789,-8.10975551605,-8.65853691101,1.0,0.0,0.0,0.0,1.0,0.0,0.0,0.0,1.0,-1.08696755371,-1.09654436035,-10.2759135254,1.0,0.0,0.0,0.0,1.0,0.0,0.0,0.0,1.0
1463563636083361623,630,1463563635535329894,,-0.0259657930583,-4.92610263824,124.353057861,0.0100250001997,1.0,0.0,0.0,0.0,1.0,0.0,0.0,0.0,1.0,-28.2317066193,-8.04878044128,-11.5243911743,1.0,0.0,0.0,0.0,1.0,0.0,0.0,0.0,1.0,-1.18273554705,-0.876277807617,-10.2759135254,1.0,0.0,0.0,0.0,1.0,0.0,0.0,0.0,1.0
1463563636083649122,631,1463563635545502546,,-0.27827629447,-5.00262928009,124.20741272,0.0100750001147,1.0,0.0,0.0,0.0,1.0,0.0,0.0,0.0,1.0,-28.7195110321,-7.98780536652,-15.1219511032,1.0,0.0,0.0,0.0,1.0,0.0,0.0,0.0,1.0,-1.1875240965,-0.775721337891,-10.3621047852,1.0,0.0,0.0,0.0,1.0,0.0,0.0,0.0,1.0
1463563636083957297,632,1463563635555739676,,-0.530912458897,-5.08088541031,124.022064209,0.0101220002398,1.0,0.0,0.0,0.0,1.0,0.0,0.0,0.0,1.0,-29.6951236725,-8.04878044128,-18.9024391174,1.0,0.0,0.0,0.0,1.0,0.0,0.0,0.0,1.0,-1.22104284668,-0.876277807617,-10.553640918,1.0,0.0,0.0,0.0,1.0,0.0,0.0,0.0,1.0
1463563636084897396,633,1463563635565555663,,-0.801793396473,-5.16130399704,123.803657532,0.0100919995457,1.0,0.0,0.0,0.0,1.0,0.0,0.0,0.0,1.0,-30.8536605835,-7.86585378647,-22.3170719147,1.0,0.0,0.0,0.0,1.0,0.0,0.0,0.0,1.0,-1.29286889648,-0.632069238281,-10.5632177246,1.0,0.0,0.0,0.0,1.0,0.0,0.0,0.0,1.0
1463563636087914879,634,1463563635576280447,,-1.06385755539,-5.23896694183,123.54397583,0.0101140001789,1.0,0.0,0.0,0.0,1.0,0.0,0.0,0.0,1.0,-32.9268302917,-7.74390268326,-26.0975627899,1.0,0.0,0.0,0.0,1.0,0.0,0.0,0.0,1.0,-1.24019645996,-1.07260241682,-10.5153336914,1.0,0.0,0.0,0.0,1.0,0.0,0.0,0.0,1.0
1463563636088537167,635,1463563635585977215,,-1.35287261009,-5.31361246109,123.254234314,0.0100800003856,1.0,0.0,0.0,0.0,1.0,0.0,0.0,0.0,1.0,-36.6463432312,-7.07317113876,-29.0853672028,1.0,0.0,0.0,0.0,1.0,0.0,0.0,0.0,1.0,-1.25935007324,-1.11569797363,-10.2280294922,1.0,0.0,0.0,0.0,1.0,0.0,0.0,0.0,1.0
1463563636088632896,636,1463563635596317053,,-1.69267737865,-5.38567590714,122.935813904,0.010106000118,1.0,0.0,0.0,0.0,1.0,0.0,0.0,0.0,1.0,-39.4512214661,-7.07317113876,-32.0731697083,1.0,0.0,0.0,0.0,1.0,0.0,0.0,0.0,1.0,-1.17315874041,-0.60812722168,-10.1753570557,1.0,0.0,0.0,0.0,1.0,0.0,0.0,0.0,1.0
1463563636088813989,637,1463563635606160696,,-2.05753445625,-5.45354270935,122.578681946,0.0101159997284,1.0,0.0,0.0,0.0,1.0,0.0,0.0,0.0,1.0,-40.5487823486,-7.37804937363,-36.0365867615,1.0,0.0,0.0,0.0,1.0,0.0,0.0,0.0,1.0,-1.00077629395,-0.229843359375,-10.2184526855,1.0,0.0,0.0,0.0,1.0,0.0,0.0,0.0,1.0
1463563636089119508,638,1463563635616721835,,-2.41801905632,-5.52998209,122.180557251,0.0102709997445,1.0,0.0,0.0,0.0,1.0,0.0,0.0,0.0,1.0,-40.7317085266,-7.98780536652,-39.4512214661,1.0,0.0,0.0,0.0,1.0,0.0,0.0,0.0,1.0,-0.972045874023,-0.3064578125,-10.2328178955,1.0,0.0,0.0,0.0,1.0,0.0,0.0,0.0,1.0
1463563636089939920,639,1463563635626401937,,-2.7739675045,-5.62115001678,121.767463684,0.00990900024772,1.0,0.0,0.0,0.0,1.0,0.0,0.0,0.0,1.0,-41.2195129395,-8.90243911743,-42.5,1.0,0.0,0.0,0.0,1.0,0.0,0.0,0.0,1.0,-1.08217922346,-0.119710083008,-10.3333743652,1.0,0.0,0.0,0.0,1.0,0.0,0.0,0.0,1.0
1463563636090509344,640,1463563635636722921,,-3.13615226746,-5.72123861313,121.318328857,0.0101939998567,1.0,0.0,0.0,0.0,1.0,0.0,0.0,0.0,1.0,-41.4024391174,-9.08536529541,-44.8780479431,1.0,0.0,0.0,0.0,1.0,0.0,0.0,0.0,1.0,-1.10612116699,-0.105344873047,-10.3094323486,1.0,0.0,0.0,0.0,1.0,0.0,0.0,0.0,1.0
1463563636091148298,641,1463563635646404586,,-3.49725246429,-5.80628395081,120.86517334,0.00999999977648,1.0,0.0,0.0,0.0,1.0,0.0,0.0,0.0,1.0,-43.1707305908,-8.47560977936,-46.0365867615,1.0,0.0,0.0,0.0,1.0,0.0,0.0,0.0,1.0,-0.928950244141,-0.220266552734,-10.285490332,1.0,0.0,0.0,0.0,1.0,0.0,0.0,0.0,1.0
1463563636091857201,642,1463563635656728695,,-3.87080097198,-5.90518093109,120.40184021,0.0101220002398,1.0,0.0,0.0,0.0,1.0,0.0,0.0,0.0,1.0,-42.0731697083,-8.84146404266,-46.7682952881,1.0,0.0,0.0,0.0,1.0,0.0,0.0,0.0,1.0,-1.03908344744,0.210689746094,-10.1705686523,1.0,0.0,0.0,0.0,1.0,0.0,0.0,0.0,1.0
1463563636091911575,643,1463563635666684785,,-4.24471282959,-6.01480579376,119.931495667,0.010098000057,1.0,0.0,0.0,0.0,1.0,0.0,0.0,0.0,1.0,-41.2195129395,-9.75609779358,-47.8048782349,1.0,0.0,0.0,0.0,1.0,0.0,0.0,0.0,1.0,-1.01035310059,0.478840332031,-10.0412817627,1.0,0.0,0.0,0.0,1.0,0.0,0.0,0.0,1.0
1463563636092273396,644,1463563635676788479,,-4.60773944855,-6.14720726013,119.459709167,0.0102089997381,1.0,0.0,0.0,0.0,1.0,0.0,0.0,0.0,1.0,-38.0487823486,-10.4268293381,-47.7439041138,1.0,0.0,0.0,0.0,1.0,0.0,0.0,0.0,1.0,-1.25456166992,0.871489404297,-10.1562034424,1.0,0.0,0.0,0.0,1.0,0.0,0.0,0.0,1.0
1463563636092332667,645,1463563635687260295,,-4.91722393036,-6.27123785019,118.998458862,0.0100029995665,1.0,0.0,0.0,0.0,1.0,0.0,0.0,0.0,1.0,-34.2682952881,-10.4268293381,-47.6219520569,1.0,0.0,0.0,0.0,1.0,0.0,0.0,0.0,1.0,-1.1540052002,0.818816967773,-10.4004120117,1.0,0.0,0.0,0.0,1.0,0.0,0.0,0.0,1.0
1463563636092369906,646,1463563635697098001,,-5.18973350525,-6.40310192108,118.546989441,0.0100800003856,1.0,0.0,0.0,0.0,1.0,0.0,0.0,0.0,1.0,-28.475610733,-11.341463089,-46.6463432312,1.0,0.0,0.0,0.0,1.0,0.0,0.0,0.0,1.0,-1.11569797363,1.22583125,-10.4435076416,1.0,0.0,0.0,0.0,1.0,0.0,0.0,0.0,1.0
1463563636092879799,647,1463563635706791436,,-5.41062259674,-6.51912784576,118.110862732,0.0101169999689,1.0,0.0,0.0,0.0,1.0,0.0,0.0,0.0,1.0,-21.4634151459,-11.5853662491,-45.2439041138,1.0,0.0,0.0,0.0,1.0,0.0,0.0,0.0,1.0,-0.794874951172,1.62326872559,-10.5919481445,1.0,0.0,0.0,0.0,1.0,0.0,0.0,0.0,1.0
1463563636092929486,648,1463563635717352002,,-5.54785728455,-6.65680646896,117.70124054,0.010095000267,1.0,0.0,0.0,0.0,1.0,0.0,0.0,0.0,1.0,-14.0853662491,-13.2317075729,-42.8048782349,1.0,0.0,0.0,0.0,1.0,0.0,0.0,0.0,1.0,-0.938527050781,1.46525141602,-10.6206785645,1.0,0.0,0.0,0.0,1.0,0.0,0.0,0.0,1.0
1463563636096051761,649,1463563635726995386,,-5.61715221405,-6.79471063614,117.317405701,0.0101049998775,1.0,0.0,0.0,0.0,1.0,0.0,0.0,0.0,1.0,-7.92682981491,-14.0853662491,-40.2439041138,1.0,0.0,0.0,0.0,1.0,0.0,0.0,0.0,1.0,-0.823605371094,1.31681091309,-10.4435076416,1.0,0.0,0.0,0.0,1.0,0.0,0.0,0.0,1.0
1463563636096108531,650,1463563635737105954,,-5.62584733963,-6.94795656204,116.975112915,0.0100899999961,1.0,0.0,0.0,0.0,1.0,0.0,0.0,0.0,1.0,-2.74390244484,-15.0000009537,-36.1585350037,1.0,0.0,0.0,0.0,1.0,0.0,0.0,0.0,1.0,-1.03908344744,1.10612116699,-10.4770264648,1.0,0.0,0.0,0.0,1.0,0.0,0.0,0.0,1.0
1463563636096151031,651,1463563635747469282,,-5.60084199905,-7.10615730286,116.670555115,0.0100990002975,1.0,0.0,0.0,0.0,1.0,0.0,0.0,0.0,1.0,0.853658556938,-15.4878053665,-32.4390220642,1.0,0.0,0.0,0.0,1.0,0.0,0.0,0.0,1.0,-1.11569797363,1.06781401349,-10.2950671387,1.0,0.0,0.0,0.0,1.0,0.0,0.0,0.0,1.0
1463563636096184989,652,1463563635757460111,,-5.55841398239,-7.26010560989,116.414619446,0.0101030003279,1.0,0.0,0.0,0.0,1.0,0.0,0.0,0.0,1.0,3.29268312454,-15.1219511032,-27.6219520569,1.0,0.0,0.0,0.0,1.0,0.0,0.0,0.0,1.0,-1.22583125,1.10133276367,-10.314220752,1.0,0.0,0.0,0.0,1.0,0.0,0.0,0.0,1.0
1463563636096265301,653,1463563635768776246,,-5.47027492523,-7.42519855499,116.179618835,0.0113180000335,1.0,0.0,0.0,0.0,1.0,0.0,0.0,0.0,1.0,4.87804889679,-14.5731706619,-22.682926178,1.0,0.0,0.0,0.0,1.0,0.0,0.0,0.0,1.0,-1.30723410645,0.61770402832,-10.1945106689,1.0,0.0,0.0,0.0,1.0,0.0,0.0,0.0,1.0
1463563636096401863,654,1463563635778241870,,-5.40890645981,-7.54139328003,116.027328491,0.00890699960291,1.0,0.0,0.0,0.0,1.0,0.0,0.0,0.0,1.0,4.32926845551,-13.4756097794,-18.9024391174,1.0,0.0,0.0,0.0,1.0,0.0,0.0,0.0,1.0,-1.30723410645,0.579396801758,-10.0556469727,1.0,0.0,0.0,0.0,1.0,0.0,0.0,0.0,1.0
1463563636096439258,655,1463563635788090357,,-5.35455846786,-7.65725374222,115.893356323,0.0100769996643,1.0,0.0,0.0,0.0,1.0,0.0,0.0,0.0,1.0,3.53658556938,-12.6219520569,-15.0609760284,1.0,0.0,0.0,0.0,1.0,0.0,0.0,0.0,1.0,-1.2737152832,0.612915625,-10.0795889893,1.0,0.0,0.0,0.0,1.0,0.0,0.0,0.0,1.0
1463563636096733476,656,1463563635798009676,,-5.30826950073,-7.76666116714,115.789871216,0.0101570002735,1.0,0.0,0.0,0.0,1.0,0.0,0.0,0.0,1.0,2.5,-12.6829271317,-11.8902444839,1.0,0.0,0.0,0.0,1.0,0.0,0.0,0.0,1.0,-1.1875240965,0.488417138672,-9.92157167969,1.0,0.0,0.0,0.0,1.0,0.0,0.0,0.0,1.0
1463563636097115505,657,1463563635808101443,,-5.28853082657,-7.87061929703,115.714607239,0.0100490003824,1.0,0.0,0.0,0.0,1.0,0.0,0.0,0.0,1.0,0.792682945728,-11.9512195587,-9.20731735229,1.0,0.0,0.0,0.0,1.0,0.0,0.0,0.0,1.0,-1.33596452637,0.588973571866,-10.1418382324,1.0,0.0,0.0,0.0,1.0,0.0,0.0,0.0,1.0
1463563636097162952,658,1463563635818152012,,-5.28172302246,-7.98535585403,115.649627686,0.0100940000266,1.0,0.0,0.0,0.0,1.0,0.0,0.0,0.0,1.0,-0.853658556938,-11.5243911743,-8.04878044128,1.0,0.0,0.0,0.0,1.0,0.0,0.0,0.0,1.0,-1.68072956543,0.507570751953,-10.405200415,1.0,0.0,0.0,0.0,1.0,0.0,0.0,0.0,1.0
1463563636097452378,659,1463563635828351903,,-5.2936205864,-8.09380149841,115.586662292,0.010111999698,1.0,0.0,0.0,0.0,1.0,0.0,0.0,0.0,1.0,-3.35365867615,-10.9146347046,-7.68292665482,1.0,0.0,0.0,0.0,1.0,0.0,0.0,0.0,1.0,-1.70945998535,0.383072265625,-10.4626612549,1.0,0.0,0.0,0.0,1.0,0.0,0.0,0.0,1.0
1463563636097541856,660,1463563635838254503,,-5.33048725128,-8.18574523926,115.517349243,0.0100830001757,1.0,0.0,0.0,0.0,1.0,0.0,0.0,0.0,1.0,-5.79268312454,-9.08536529541,-8.17073154449,1.0,0.0,0.0,0.0,1.0,0.0,0.0,0.0,1.0,-1.78128603516,0.416591088867,-10.5775829346,1.0,0.0,0.0,0.0,1.0,0.0,0.0,0.0,1.0
1463563636101235586,661,1463563635848262312,,-5.38777017593,-8.27282142639,115.440422058,0.0101039996371,1.0,0.0,0.0,0.0,1.0,0.0,0.0,0.0,1.0,-9.02439117432,-8.17073154449,-8.65853691101,1.0,0.0,0.0,0.0,1.0,0.0,0.0,0.0,1.0,-1.90099611816,0.215478149414,-10.7834842773,1.0,0.0,0.0,0.0,1.0,0.0,0.0,0.0,1.0
1463563636101716625,662,1463563635858333245,,-5.49645423889,-8.35085296631,115.344558716,0.0101009998471,1.0,0.0,0.0,0.0,1.0,0.0,0.0,0.0,1.0,-12.6219520569,-7.01219511032,-10.6707315445,1.0,0.0,0.0,0.0,1.0,0.0,0.0,0.0,1.0,-1.95366855469,0.579396801758,-10.8888291504,1.0,0.0,0.0,0.0,1.0,0.0,0.0,0.0,1.0
1463563636104610723,663,1463563635868437460,,-5.62746429443,-8.41202259064,115.226425171,0.0100959995762,1.0,0.0,0.0,0.0,1.0,0.0,0.0,0.0,1.0,-16.2804889679,-4.93902444839,-12.5,1.0,0.0,0.0,0.0,1.0,0.0,0.0,0.0,1.0,-1.99197578125,0.378283862305,-10.8170031006,1.0,0.0,0.0,0.0,1.0,0.0,0.0,0.0,1.0
1463563636104672598,664,1463563635879268805,,-5.8156914711,-8.45793914795,115.085342407,0.010150000453,1.0,0.0,0.0,0.0,1.0,0.0,0.0,0.0,1.0,-21.6463432312,-3.65853667259,-14.6341466904,1.0,0.0,0.0,0.0,1.0,0.0,0.0,0.0,1.0,-1.91536132812,0.512359155273,-10.8696755371,1.0,0.0,0.0,0.0,1.0,0.0,0.0,0.0,1.0
1463563636105382177,665,1463563635888849794,,-6.05352544785,-8.48151493073,114.93270874,0.0100649995729,1.0,0.0,0.0,0.0,1.0,0.0,0.0,0.0,1.0,-25.7926845551,-2.19512200356,-15.9146347046,1.0,0.0,0.0,0.0,1.0,0.0,0.0,0.0,1.0,-1.70945998535,0.756567724609,-10.6254669678,1.0,0.0,0.0,0.0,1.0,0.0,0.0,0.0,1.0
1463563636105715977,666,1463563635898981716,,-6.34555530548,-8.50109863281,114.76424408,0.0101450001821,1.0,0.0,0.0,0.0,1.0,0.0,0.0,0.0,1.0,-31.341463089,-2.13414645195,-17.317073822,1.0,0.0,0.0,0.0,1.0,0.0,0.0,0.0,1.0,-1.61848032227,0.775721337891,-10.7212350342,1.0,0.0,0.0,0.0,1.0,0.0,0.0,0.0,1.0
1463563636106165142,667,1463563635909245617,,-6.67676734924,-8.52498817444,114.585189819,0.0100899999961,1.0,0.0,0.0,0.0,1.0,0.0,0.0,0.0,1.0,-36.0975646973,-1.95121955872,-18.3536586761,1.0,0.0,0.0,0.0,1.0,0.0,0.0,0.0,1.0,-1.72861359863,0.737414111328,-10.8936175537,1.0,0.0,0.0,0.0,1.0,0.0,0.0,0.0,1.0
1463563636106219933,668,1463563635919363842,,-7.055788517,-8.54516983032,114.392570496,0.0100710000843,1.0,0.0,0.0,0.0,1.0,0.0,0.0,0.0,1.0,-42.1951255798,-1.46341466904,-19.5121955872,1.0,0.0,0.0,0.0,1.0,0.0,0.0,0.0,1.0,-1.70467158203,0.588973571866,-10.8888291504,1.0,0.0,0.0,0.0,1.0,0.0,0.0,0.0,1.0
1463563636106258839,669,1463563635929143839,,-7.49502801895,-8.56649780273,114.189498901,0.0101169999689,1.0,0.0,0.0,0.0,1.0,0.0,0.0,0.0,1.0,-47.2560958862,-1.09756100178,-20.5487823486,1.0,0.0,0.0,0.0,1.0,0.0,0.0,0.0,1.0,-1.76213242187,0.837970581055,-10.9462899902,1.0,0.0,0.0,0.0,1.0,0.0,0.0,0.0,1.0
1463563636106557223,670,1463563635939259304,,-7.98513746262,-8.58673763275,113.976509094,0.0100739998743,1.0,0.0,0.0,0.0,1.0,0.0,0.0,0.0,1.0,-51.4634170532,-1.2804877758,-21.8292694092,1.0,0.0,0.0,0.0,1.0,0.0,0.0,0.0,1.0,-1.66636435547,1.17315874041,-11.04684646,1.0,0.0,0.0,0.0,1.0,0.0,0.0,0.0,1.0
1463563636106839148,671,1463563635949365393,,-8.54239749908,-8.63323497772,113.753227234,0.0100969998166,1.0,0.0,0.0,0.0,1.0,0.0,0.0,0.0,1.0,-52.5609779358,-1.52439022064,-23.7195129395,1.0,0.0,0.0,0.0,1.0,0.0,0.0,0.0,1.0,-2.09732050817,2.43729729004,-11.1090957031,1.0,0.0,0.0,0.0,1.0,0.0,0.0,0.0,1.0
1463563636107723779,672,1463563635959627523,,-9.05588817596,-8.65485858917,113.511825562,0.0101250000298,1.0,0.0,0.0,0.0,1.0,0.0,0.0,0.0,1.0,-52.134147644,-1.95121955872,-24.9390239716,1.0,0.0,0.0,0.0,1.0,0.0,0.0,0.0,1.0,-1.37906015625,1.70945998535,-10.793061084,1.0,0.0,0.0,0.0,1.0,0.0,0.0,0.0,1.0
1463563636107785289,673,1463563635969607467,,-9.56414890289,-8.69383335114,113.262931824,0.0101039996371,1.0,0.0,0.0,0.0,1.0,0.0,0.0,0.0,1.0,-51.5853691101,-2.62195134163,-25.9146347046,1.0,0.0,0.0,0.0,1.0,0.0,0.0,0.0,1.0,-1.45567460937,1.78128603516,-10.3190091553,1.0,0.0,0.0,0.0,1.0,0.0,0.0,0.0,1.0
1463563636107826278,674,1463563635980281991,,-10.0691452026,-8.73990154266,113.004333496,0.0100830001757,1.0,0.0,0.0,0.0,1.0,0.0,0.0,0.0,1.0,-49.3292694092,-4.08536577225,-27.5609760284,1.0,0.0,0.0,0.0,1.0,0.0,0.0,0.0,1.0,-1.26413847656,2.3415290775,-10.4961800781,1.0,0.0,0.0,0.0,1.0,0.0,0.0,0.0,1.0
1463563636108270755,675,1463563635990132665,,-10.5187187195,-8.80953788757,112.729400635,0.0101100001484,1.0,0.0,0.0,0.0,1.0,0.0,0.0,0.0,1.0,-46.1585388184,-5.18292713165,-29.0243911743,1.0,0.0,0.0,0.0,1.0,0.0,0.0,0.0,1.0,-1.40779057617,2.00155258789,-10.4578728516,1.0,0.0,0.0,0.0,1.0,0.0,0.0,0.0,1.0
1463563636108645544,676,1463563636000779533,,-10.9572315216,-8.89611721039,112.452018738,0.0101100001484,1.0,0.0,0.0,0.0,1.0,0.0,0.0,0.0,1.0,-43.5365867615,-6.09756088257,-29.7560997009,1.0,0.0,0.0,0.0,1.0,0.0,0.0,0.0,1.0,-1.51792385254,2.40856701625,-10.4818148682,1.0,0.0,0.0,0.0,1.0,0.0,0.0,0.0,1.0
1463563636108971428,677,1463563636010211147,,-11.3768911362,-8.9876499176,112.166969299,0.0100910002366,1.0,0.0,0.0,0.0,1.0,0.0,0.0,0.0,1.0,-41.4024391174,-6.7682929039,-30.8536605835,1.0,0.0,0.0,0.0,1.0,0.0,0.0,0.0,1.0,-1.40300217285,2.54743056641,-10.285490332,1.0,0.0,0.0,0.0,1.0,0.0,0.0,0.0,1.0
1463563636110030276,678,1463563636020990409,,-11.7385892868,-9.09242153168,111.876480103,0.0101140001789,1.0,0.0,0.0,0.0,1.0,0.0,0.0,0.0,1.0,-36.0975646973,-7.98780536652,-31.5853652954,1.0,0.0,0.0,0.0,1.0,0.0,0.0,0.0,1.0,-1.38384855957,2.56658417969,-10.3573163818,1.0,0.0,0.0,0.0,1.0,0.0,0.0,0.0,1.0
1463563636110730272,679,1463563636030978999,,-12.0605688095,-9.19794178009,111.587043762,0.0100889997557,1.0,0.0,0.0,0.0,1.0,0.0,0.0,0.0,1.0,-32.7439041138,-9.32926845551,-31.8292694092,1.0,0.0,0.0,0.0,1.0,0.0,0.0,0.0,1.0,-1.13485158691,2.55700737305,-10.4004120117,1.0,0.0,0.0,0.0,1.0,0.0,0.0,0.0,1.0
1463563636111554955,680,1463563636041169359,,-12.351392746,-9.33179664612,111.290786743,0.0101250000298,1.0,0.0,0.0,0.0,1.0,0.0,0.0,0.0,1.0,-30.975610733,-11.2804880142,-32.682926178,1.0,0.0,0.0,0.0,1.0,0.0,0.0,0.0,1.0,-1.25935007324,2.38462499965,-10.4722380615,1.0,0.0,0.0,0.0,1.0,0.0,0.0,0.0,1.0
1463563636114144524,681,1463563636051355240,,-12.6168937683,-9.49336719513,110.998321533,0.0101849995553,1.0,0.0,0.0,0.0,1.0,0.0,0.0,0.0,1.0,-29.6951236725,-13.1097564697,-32.3780517578,1.0,0.0,0.0,0.0,1.0,0.0,0.0,0.0,1.0,-1.43173259277,2.1691467041,-10.4866032715,1.0,0.0,0.0,0.0,1.0,0.0,0.0,0.0,1.0
1463563636114762281,682,1463563636061175653,,-12.8745689392,-9.6557636261,110.708702087,0.00999800022691,1.0,0.0,0.0,0.0,1.0,0.0,0.0,0.0,1.0,-30.975610733,-12.8048782349,-32.3780517578,1.0,0.0,0.0,0.0,1.0,0.0,0.0,0.0,1.0,-1.56101948242,1.93451494141,-10.4913916748,1.0,0.0,0.0,0.0,1.0,0.0,0.0,0.0,1.0
1463563636115093425,683,1463563636071253149,,-13.1626939774,-9.83134651184,110.417648315,0.0101950000972,1.0,0.0,0.0,0.0,1.0,0.0,0.0,0.0,1.0,-32.7439041138,-12.9878053665,-32.1951217651,1.0,0.0,0.0,0.0,1.0,0.0,0.0,0.0,1.0,-1.69509477539,2.07816689489,-10.2471831055,1.0,0.0,0.0,0.0,1.0,0.0,0.0,0.0,1.0
1463563636115406080,684,1463563636081163511,,-13.455988884,-9.99932193756,110.134376526,0.00999899953604,1.0,0.0,0.0,0.0,1.0,0.0,0.0,0.0,1.0,-34.0853691101,-12.5,-31.8902454376,1.0,0.0,0.0,0.0,1.0,0.0,0.0,0.0,1.0,-1.72382519531,2.08774370153,-10.2423947021,1.0,0.0,0.0,0.0,1.0,0.0,0.0,0.0,1.0
1463563636115710140,685,1463563636091373297,,-13.7776021957,-10.1660499573,109.844749451,0.010108999908,1.0,0.0,0.0,0.0,1.0,0.0,0.0,0.0,1.0,-36.2195129395,-12.5,-32.3780517578,1.0,0.0,0.0,0.0,1.0,0.0,0.0,0.0,1.0,-1.66636435547,2.25533796387,-10.3237975586,1.0,0.0,0.0,0.0,1.0,0.0,0.0,0.0,1.0
1463563636282076398,686,1463563636102468235,,-14.1590280533,-10.3681783676,109.513710022,0.0115250004455,1.0,0.0,0.0,0.0,1.0,0.0,0.0,0.0,1.0,-36.4634170532,-11.9512195587,-32.6219520569,1.0,0.0,0.0,0.0,1.0,0.0,0.0,0.0,1.0,-1.99197578125,2.57137258301,-10.4435076416,1.0,0.0,0.0,0.0,1.0,0.0,0.0,0.0,1.0
1463563636282249158,687,1463563636111727923,,-14.4421548843,-10.5142383575,109.261703491,0.00872000027448,1.0,0.0,0.0,0.0,1.0,0.0,0.0,0.0,1.0,-35.7317085266,-10.9756097794,-32.682926178,1.0,0.0,0.0,0.0,1.0,0.0,0.0,0.0,1.0,-2.01112939453,2.66235224609,-10.3333743652,1.0,0.0,0.0,0.0,1.0,0.0,0.0,0.0,1.0
1463563636282287959,688,1463563636121912710,,-14.7576036453,-10.6813726425,108.958702087,0.0100729996338,1.0,0.0,0.0,0.0,1.0,0.0,0.0,0.0,1.0,-34.3292694092,-9.20731735229,-33.5975608826,1.0,0.0,0.0,0.0,1.0,0.0,0.0,0.0,1.0,-2.3415290775,2.90656081543,-10.6206785645,1.0,0.0,0.0,0.0,1.0,0.0,0.0,0.0,1.0
1463563636282400042,689,1463563636132431297,,-15.0636587143,-10.8299665451,108.646858215,0.0101690003648,1.0,0.0,0.0,0.0,1.0,0.0,0.0,0.0,1.0,-31.9512214661,-7.31707334518,-34.0243911743,1.0,0.0,0.0,0.0,1.0,0.0,0.0,0.0,1.0,-2.29843359375,3.24174904785,-10.5775829346,1.0,0.0,0.0,0.0,1.0,0.0,0.0,0.0,1.0
1463563636282617541,690,1463563636142098899,,-15.3399581909,-10.9627542496,108.324157715,0.0101979998872,1.0,0.0,0.0,0.0,1.0,0.0,0.0,0.0,1.0,-29.5731697083,-5.06097555161,-34.3902435303,1.0,0.0,0.0,0.0,1.0,0.0,0.0,0.0,1.0,-2.38941340297,3.21780703125,-10.5488525146,1.0,0.0,0.0,0.0,1.0,0.0,0.0,0.0,1.0
1463563636282648739,691,1463563636152396498,,-15.5901679993,-11.0688552856,108.013755798,0.00996899977326,1.0,0.0,0.0,0.0,1.0,0.0,0.0,0.0,1.0,-27.8048782349,-2.74390244484,-33.2317085266,1.0,0.0,0.0,0.0,1.0,0.0,0.0,0.0,1.0,-2.3654710941,3.14598098145,-10.3094323486,1.0,0.0,0.0,0.0,1.0,0.0,0.0,0.0,1.0
1463563636282683791,692,1463563636161973528,,-15.8254537582,-11.1433296204,107.695167542,0.0100990002975,1.0,0.0,0.0,0.0,1.0,0.0,0.0,0.0,1.0,-25.6097564697,-0.12195122242,-33.0487823486,1.0,0.0,0.0,0.0,1.0,0.0,0.0,0.0,1.0,-2.21224233398,3.27526787109,-10.2232410889,1.0,0.0,0.0,0.0,1.0,0.0,0.0,0.0,1.0
1463563636282902435,693,1463563636172122429,,-16.0327167511,-11.1946926117,107.381706238,0.0101370001212,1.0,0.0,0.0,0.0,1.0,0.0,0.0,0.0,1.0,-23.0487823486,1.09756100178,-32.0121955872,1.0,0.0,0.0,0.0,1.0,0.0,0.0,0.0,1.0,-2.06380183105,3.28963308105,-10.3716815918,1.0,0.0,0.0,0.0,1.0,0.0,0.0,0.0,1.0
1463563636283202434,694,1463563636181981176,,-16.2078590393,-11.2286062241,107.081695557,0.0100210001692,1.0,0.0,0.0,0.0,1.0,0.0,0.0,0.0,1.0,-20.3048782349,2.68292689323,-30.4878044128,1.0,0.0,0.0,0.0,1.0,0.0,0.0,0.0,1.0,-2.11168571813,3.26090266113,-10.4099888184,1.0,0.0,0.0,0.0,1.0,0.0,0.0,0.0,1.0
1463563636283241652,695,1463563636192406639,,-16.3754901886,-11.2496767044,106.795440674,0.010095000267,1.0,0.0,0.0,0.0,1.0,0.0,0.0,0.0,1.0,-17.5000019073,4.20731735229,-28.7804889679,1.0,0.0,0.0,0.0,1.0,0.0,0.0,0.0,1.0,-2.24576115723,3.63439812012,-10.3812583984,1.0,0.0,0.0,0.0,1.0,0.0,0.0,0.0,1.0
1463563636283280141,696,1463563636202012002,,-16.5102310181,-11.2542085648,106.523757935,0.0100840004161,1.0,0.0,0.0,0.0,1.0,0.0,0.0,0.0,1.0,-15.3048791885,6.46341466904,-26.4024391174,1.0,0.0,0.0,0.0,1.0,0.0,0.0,0.0,1.0,-2.44208569336,3.36145913086,-10.2950671387,1.0,0.0,0.0,0.0,1.0,0.0,0.0,0.0,1.0
1463563636283319620,697,1463563636212182466,,-16.6426105499,-11.2100429535,106.284881592,0.0101939998567,1.0,0.0,0.0,0.0,1.0,0.0,0.0,0.0,1.0,-14.8780498505,9.14634132385,-21.8902435303,1.0,0.0,0.0,0.0,1.0,0.0,0.0,0.0,1.0,-2.22181914063,3.22738383789,-10.2136642822,1.0,0.0,0.0,0.0,1.0,0.0,0.0,0.0,1.0
1463563636283358995,698,1463563636222249597,,-16.7784557343,-11.1396884918,106.077026367,0.0100109996274,1.0,0.0,0.0,0.0,1.0,0.0,0.0,0.0,1.0,-13.9024391174,10.3048782349,-19.0243911743,1.0,0.0,0.0,0.0,1.0,0.0,0.0,0.0,1.0,-2.10210891149,3.52426484375,-10.3908352051,1.0,0.0,0.0,0.0,1.0,0.0,0.0,0.0,1.0
1463563636284300709,699,1463563636232353707,,-16.9168319702,-11.0461053848,105.904701233,0.0101039996371,1.0,0.0,0.0,0.0,1.0,0.0,0.0,0.0,1.0,-12.3170728683,11.7073173523,-15.0000009537,1.0,0.0,0.0,0.0,1.0,0.0,0.0,0.0,1.0,-2.15478164027,3.77326181641,-10.4291424316,1.0,0.0,0.0,0.0,1.0,0.0,0.0,0.0,1.0
1463563636284618155,700,1463563636242510421,,-17.0222034454,-10.9287605286,105.754890442,0.0101359998807,1.0,0.0,0.0,0.0,1.0,0.0,0.0,0.0,1.0,-10.548781395,13.658536911,-11.6463422775,1.0,0.0,0.0,0.0,1.0,0.0,0.0,0.0,1.0,-2.26970317383,3.46201560059,-10.6972930176,1.0,0.0,0.0,0.0,1.0,0.0,0.0,0.0,1.0
1463563636284691540,701,1463563636252581303,,-17.1339130402,-10.790596962,105.64453125,0.0100859999657,1.0,0.0,0.0,0.0,1.0,0.0,0.0,0.0,1.0,-8.84146404266,15.1829271317,-7.56097555161,1.0,0.0,0.0,0.0,1.0,0.0,0.0,0.0,1.0,-2.37025978969,3.83551105957,-10.6781394043,1.0,0.0,0.0,0.0,1.0,0.0,0.0,0.0,1.0
1463563637156775833,702,1463563636262793120,,-17.2161006927,-10.6230688095,105.562561035,0.010111999698,1.0,0.0,0.0,0.0,1.0,0.0,0.0,0.0,1.0,-6.52439069748,16.9512195587,-3.84146332741,1.0,0.0,0.0,0.0,1.0,0.0,0.0,0.0,1.0,-2.32716386754,3.6296097168,-10.7739074707,1.0,0.0,0.0,0.0,1.0,0.0,0.0,0.0,1.0
1463563637157066352,703,1463563636272645461,,-17.2896404266,-10.4271383286,105.51940918,0.0100889997557,1.0,0.0,0.0,0.0,1.0,0.0,0.0,0.0,1.0,-4.93902444839,17.9878044128,0.426829278469,1.0,0.0,0.0,0.0,1.0,0.0,0.0,0.0,1.0,-2.15478164027,3.6296097168,-10.7116582275,1.0,0.0,0.0,0.0,1.0,0.0,0.0,0.0,1.0
1463563637157465100,704,1463563636282949779,,-17.3487148285,-10.2047901154,105.510475159,0.0101380003616,1.0,0.0,0.0,0.0,1.0,0.0,0.0,0.0,1.0,-3.65853667259,19.5121955872,4.57317066193,1.0,0.0,0.0,0.0,1.0,0.0,0.0,0.0,1.0,-2.20745393066,3.57693728027,-11.0420580566,1.0,0.0,0.0,0.0,1.0,0.0,0.0,0.0,1.0
1463563637157959368,705,1463563636292830036,,-17.3971176147,-9.95358085632,105.543190002,0.0100739998743,1.0,0.0,0.0,0.0,1.0,0.0,0.0,0.0,1.0,-1.8902438879,20.3048782349,9.08536529541,1.0,0.0,0.0,0.0,1.0,0.0,0.0,0.0,1.0,-1.94409174805,3.54341845703,-10.8888291504,1.0,0.0,0.0,0.0,1.0,0.0,0.0,0.0,1.0
1463563637158347959,706,1463563636303762944,,-17.4512176514,-9.68157100677,105.609153748,0.0102890003473,1.0,0.0,0.0,0.0,1.0,0.0,0.0,0.0,1.0,-2.68292689323,20.7926826477,12.6829271317,1.0,0.0,0.0,0.0,1.0,0.0,0.0,0.0,1.0,-1.85311208496,3.29442148437,-10.658985791,1.0,0.0,0.0,0.0,1.0,0.0,0.0,0.0,1.0
1463563637158649729,707,1463563636313472421,,-17.5171375275,-9.40724754333,105.710884094,0.00988500006497,1.0,0.0,0.0,0.0,1.0,0.0,0.0,0.0,1.0,-2.86585378647,20.5487823486,16.5243911743,1.0,0.0,0.0,0.0,1.0,0.0,0.0,0.0,1.0,-1.74776721191,3.47638081055,-10.7834842773,1.0,0.0,0.0,0.0,1.0,0.0,0.0,0.0,1.0
1463563637158935039,708,1463563636324776472,,-17.5920467377,-9.12789726257,105.83442688,0.0101840002462,1.0,0.0,0.0,0.0,1.0,0.0,0.0,0.0,1.0,-4.63414621353,20.6097564697,18.7195110321,1.0,0.0,0.0,0.0,1.0,0.0,0.0,0.0,1.0,-1.88184250488,3.18428820801,-10.7116582275,1.0,0.0,0.0,0.0,1.0,0.0,0.0,0.0,1.0
1463563637159264777,709,1463563636333114498,,-17.6769580841,-8.84962463379,105.979881287,0.0100180003792,1.0,0.0,0.0,0.0,1.0,0.0,0.0,0.0,1.0,-6.52439069748,20.1829280853,21.2804889679,1.0,0.0,0.0,0.0,1.0,0.0,0.0,0.0,1.0,-1.838746875,2.99754047852,-10.8026378906,1.0,0.0,0.0,0.0,1.0,0.0,0.0,0.0,1.0
1463563637160342115,710,1463563636343846157,,-17.7932128906,-8.56220245361,106.129768372,0.010106000118,1.0,0.0,0.0,0.0,1.0,0.0,0.0,0.0,1.0,-11.0365858078,20.7317085266,22.0731716156,1.0,0.0,0.0,0.0,1.0,0.0,0.0,0.0,1.0,-1.7908628418,2.70544787598,-10.7834842773,1.0,0.0,0.0,0.0,1.0,0.0,0.0,0.0,1.0
1463563637160926903,711,1463563636353629123,,-17.9538631439,-8.2764673233,106.290000916,0.0101389996707,1.0,0.0,0.0,0.0,1.0,0.0,0.0,0.0,1.0,-14.6951217651,20.1829280853,22.8658542633,1.0,0.0,0.0,0.0,1.0,0.0,0.0,0.0,1.0,-1.72382519531,2.82515795898,-10.658985791,1.0,0.0,0.0,0.0,1.0,0.0,0.0,0.0,1.0
1463563637161317422,712,1463563636363717765,,-18.1585636139,-8.00413131714,106.441268921,0.0100570004433,1.0,0.0,0.0,0.0,1.0,0.0,0.0,0.0,1.0,-19.5121955872,19.0853652954,21.8292694092,1.0,0.0,0.0,0.0,1.0,0.0,0.0,0.0,1.0,-1.62326872559,2.8299463623,-10.6446205811,1.0,0.0,0.0,0.0,1.0,0.0,0.0,0.0,1.0
1463563637161861586,713,1463563636374254737,,-18.3970069885,-7.75053596497,106.584762573,0.0101789999753,1.0,0.0,0.0,0.0,1.0,0.0,0.0,0.0,1.0,-22.0731716156,17.0731716156,20.1829280853,1.0,0.0,0.0,0.0,1.0,0.0,0.0,0.0,1.0,-1.55144267578,3.04542451172,-10.7403886475,1.0,0.0,0.0,0.0,1.0,0.0,0.0,0.0,1.0
1463563637162295437,714,1463563636383873954,,-18.6447410583,-7.51811647415,106.698143005,0.0101140001789,1.0,0.0,0.0,0.0,1.0,0.0,0.0,0.0,1.0,-24.817073822,16.0975608826,17.134147644,1.0,0.0,0.0,0.0,1.0,0.0,0.0,0.0,1.0,-1.5322890625,2.87783039551,-10.8888291504,1.0,0.0,0.0,0.0,1.0,0.0,0.0,0.0,1.0
1463563637162680643,715,1463563636393876815,,-18.9198970795,-7.30591535568,106.79108429,0.0100600002334,1.0,0.0,0.0,0.0,1.0,0.0,0.0,0.0,1.0,-27.3780498505,14.2073173523,14.4512205124,1.0,0.0,0.0,0.0,1.0,0.0,0.0,0.0,1.0,-1.34554133301,3.05021291504,-10.8696755371,1.0,0.0,0.0,0.0,1.0,0.0,0.0,0.0,1.0
1463563637162957361,716,1463563636404117487,,-19.2139911652,-7.12540006638,106.85243988,0.010045000352,1.0,0.0,0.0,0.0,1.0,0.0,0.0,0.0,1.0,-31.2804889679,12.3780488968,10.8536586761,1.0,0.0,0.0,0.0,1.0,0.0,0.0,0.0,1.0,-1.32638771973,2.74375510254,-10.7164466309,1.0,0.0,0.0,0.0,1.0,0.0,0.0,0.0,1.0
1463563637163400639,717,1463563636414226805,,-19.5619392395,-6.97257900238,106.89730835,0.0101039996371,1.0,0.0,0.0,0.0,1.0,0.0,0.0,0.0,1.0,-35.6707344055,10.3658542633,8.35365867615,1.0,0.0,0.0,0.0,1.0,0.0,0.0,0.0,1.0,-1.29286889648,2.92092602539,-10.405200415,1.0,0.0,0.0,0.0,1.0,0.0,0.0,0.0,1.0
1463563637163684284,718,1463563636424325134,,-19.9551677704,-6.84496736526,106.918899536,0.0101349996403,1.0,0.0,0.0,0.0,1.0,0.0,0.0,0.0,1.0,-40.0609741211,8.47560977936,5.30487823486,1.0,0.0,0.0,0.0,1.0,0.0,0.0,0.0,1.0,-1.20188930646,2.99754047852,-10.2471831055,1.0,0.0,0.0,0.0,1.0,0.0,0.0,0.0,1.0
1463563637163993709,719,1463563636434266381,,-20.3882083893,-6.74912500381,106.936019897,0.0100849997252,1.0,0.0,0.0,0.0,1.0,0.0,0.0,0.0,1.0,-43.9634170532,5.60975599289,3.84146332741,1.0,0.0,0.0,0.0,1.0,0.0,0.0,0.0,1.0,-1.16837033709,3.14119257812,-10.2711251221,1.0,0.0,0.0,0.0,1.0,0.0,0.0,0.0,1.0
1463563637164264905,720,1463563636444697521,,-20.8463916779,-6.68367433548,106.924430847,0.0101129999384,1.0,0.0,0.0,0.0,1.0,0.0,0.0,0.0,1.0,-47.9878044128,3.90243911743,0.426829278469,1.0,0.0,0.0,0.0,1.0,0.0,0.0,0.0,1.0,-1.22104284668,3.0406361084,-10.5440641113,1.0,0.0,0.0,0.0,1.0,0.0,0.0,0.0,1.0
1463563637164770267,721,1463563636454669184,,-21.3348808289,-6.66194248199,106.898895264,0.0100940000266,1.0,0.0,0.0,0.0,1.0,0.0,0.0,0.0,1.0,-50.0,1.52439022064,-2.07317066193,1.0,0.0,0.0,0.0,1.0,0.0,0.0,0.0,1.0,-1.45567460937,3.38061274414,-10.524910498,1.0,0.0,0.0,0.0,1.0,0.0,0.0,0.0,1.0
1463563637165245265,722,1463563636464539649,,-21.8353500366,-6.67330265045,106.842666626,0.0101049998775,1.0,0.0,0.0,0.0,1.0,0.0,0.0,0.0,1.0,-51.6463432312,0.487804889679,-5.67073154449,1.0,0.0,0.0,0.0,1.0,0.0,0.0,0.0,1.0,-1.66636435547,3.48595761719,-10.6494089844,1.0,0.0,0.0,0.0,1.0,0.0,0.0,0.0,1.0
1463563637165585575,723,1463563636474944331,,-22.3547058105,-6.69523668289,106.771522522,0.0100999996066,1.0,0.0,0.0,0.0,1.0,0.0,0.0,0.0,1.0,-52.5,-0.0609756112099,-7.62195110321,1.0,0.0,0.0,0.0,1.0,0.0,0.0,0.0,1.0,-1.57059628906,3.69185895996,-10.2088758789,1.0,0.0,0.0,0.0,1.0,0.0,0.0,0.0,1.0
1463563637165887344,724,1463563636485475938,,-22.8939323425,-6.73193264008,106.681671143,0.0102890003473,1.0,0.0,0.0,0.0,1.0,0.0,0.0,0.0,1.0,-53.7195129395,-0.975609779358,-9.81707286835,1.0,0.0,0.0,0.0,1.0,0.0,0.0,0.0,1.0,-1.5083470459,3.78762702637,-10.1992990723,1.0,0.0,0.0,0.0,1.0,0.0,0.0,0.0,1.0
1463563637166188853,725,1463563636494986719,,-23.4121170044,-6.78782558441,106.597984314,0.00992800015956,1.0,0.0,0.0,0.0,1.0,0.0,0.0,0.0,1.0,-53.3536605835,-2.5,-10.1829271317,1.0,0.0,0.0,0.0,1.0,0.0,0.0,0.0,1.0,-1.58496149902,3.86424147949,-10.046070166,1.0,0.0,0.0,0.0,1.0,0.0,0.0,0.0,1.0
1463563637166477289,726,1463563636505666659,,-23.9372081757,-6.85813760757,106.499778748,0.0100790001452,1.0,0.0,0.0,0.0,1.0,0.0,0.0,0.0,1.0,-53.5975608826,-2.56097555161,-11.6463422775,1.0,0.0,0.0,0.0,1.0,0.0,0.0,0.0,1.0,-1.71903679199,3.92649072266,-10.0317049561,1.0,0.0,0.0,0.0,1.0,0.0,0.0,0.0,1.0
1463563637166771662,727,1463563636515711447,,-24.4653701782,-6.92829275131,106.39981842,0.0103129995987,1.0,0.0,0.0,0.0,1.0,0.0,0.0,0.0,1.0,-52.6219520569,-2.56097555161,-11.6463422775,1.0,0.0,0.0,0.0,1.0,0.0,0.0,0.0,1.0,-1.69030637207,4.0557776123,-10.0364933594,1.0,0.0,0.0,0.0,1.0,0.0,0.0,0.0,1.0
1463563637167040411,728,1463563636525353736,,-24.9704303741,-6.98777246475,106.307304382,0.00987400021404,1.0,0.0,0.0,0.0,1.0,0.0,0.0,0.0,1.0,-52.0731697083,-1.76829278469,-11.0365858078,1.0,0.0,0.0,0.0,1.0,0.0,0.0,0.0,1.0,-1.59453830566,3.90733710937,-9.20331118164,1.0,0.0,0.0,0.0,1.0,0.0,0.0,0.0,1.0
1463563637167560929,729,1463563636535629356,,-25.5320930481,-7.04181098938,106.201423645,0.0101009998471,1.0,0.0,0.0,0.0,1.0,0.0,0.0,0.0,1.0,-57.0121955872,-5.18292713165,-13.841463089,1.0,0.0,0.0,0.0,1.0,0.0,0.0,0.0,1.0,-0.723048901367,4.04620080566,-9.44751916645,1.0,0.0,0.0,0.0,1.0,0.0,0.0,0.0,1.0
1463563637168008166,730,1463563636545623988,,-26.0572662354,-7.07641983032,106.138916016,0.0101190004498,1.0,0.0,0.0,0.0,1.0,0.0,0.0,0.0,1.0,-50.5487785339,-1.76829278469,-7.86585378647,1.0,0.0,0.0,0.0,1.0,0.0,0.0,0.0,1.0,-1.37906015625,4.43406147461,-9.07881269531,1.0,0.0,0.0,0.0,1.0,0.0,0.0,0.0,1.0
1463563637168330612,731,1463563636555718567,,-26.5683288574,-7.13737630844,106.111129761,0.010156000033,1.0,0.0,0.0,0.0,1.0,0.0,0.0,0.0,1.0,-49.634147644,-5.0,-5.54878091812,1.0,0.0,0.0,0.0,1.0,0.0,0.0,0.0,1.0,-1.46525141602,4.22337143625,-8.87769975586,1.0,0.0,0.0,0.0,1.0,0.0,0.0,0.0,1.0
1463563637168642016,732,1463563636565886427,,-27.0698032379,-7.17832756042,106.101875305,0.0100499996915,1.0,0.0,0.0,0.0,1.0,0.0,0.0,0.0,1.0,-48.5975608826,-3.96341490746,-3.10975623131,1.0,0.0,0.0,0.0,1.0,0.0,0.0,0.0,1.0,-1.42694418945,4.18027580637,-8.43716606587,1.0,0.0,0.0,0.0,1.0,0.0,0.0,0.0,1.0
1463563637168960504,733,1463563636576229390,,-27.5523223877,-7.21478557587,106.11882782,0.0100910002366,1.0,0.0,0.0,0.0,1.0,0.0,0.0,0.0,1.0,-45.2439041138,-3.23170733452,-0.0,1.0,0.0,0.0,0.0,1.0,0.0,0.0,0.0,1.0,-1.71424838867,4.41011945801,-8.3509748061,1.0,0.0,0.0,0.0,1.0,0.0,0.0,0.0,1.0
1463563637169273002,734,1463563636586049647,,-28.0119171143,-7.21987533569,106.16078186,0.0101229995489,1.0,0.0,0.0,0.0,1.0,0.0,0.0,0.0,1.0,-40.9146385193,-2.92682933807,2.68292689323,1.0,0.0,0.0,0.0,1.0,0.0,0.0,0.0,1.0,-1.42694418945,4.64475092844,-8.05409438477,1.0,0.0,0.0,0.0,1.0,0.0,0.0,0.0,1.0
1463563637170119664,735,1463563636596040373,,-28.4110603333,-7.18866729736,106.229804993,0.010098000057,1.0,0.0,0.0,0.0,1.0,0.0,0.0,0.0,1.0,-34.8780479431,-2.37804889679,6.0365858078,1.0,0.0,0.0,0.0,1.0,0.0,0.0,0.0,1.0,-1.13006318359,4.49152231445,-7.70454094238,1.0,0.0,0.0,0.0,1.0,0.0,0.0,0.0,1.0
1463563637170661536,736,1463563636606156879,,-28.7649154663,-7.13692045212,106.317970276,0.0101290000603,1.0,0.0,0.0,0.0,1.0,0.0,0.0,0.0,1.0,-29.2682933807,-2.5,7.98780536652,1.0,0.0,0.0,0.0,1.0,0.0,0.0,0.0,1.0,-0.962469067383,4.75488478933,-7.77636699219,1.0,0.0,0.0,0.0,1.0,0.0,0.0,0.0,1.0
1463563637171311741,737,1463563636616004584,,-29.039516449,-7.08008241653,106.434059143,0.0100739998743,1.0,0.0,0.0,0.0,1.0,0.0,0.0,0.0,1.0,-21.0365848541,-3.29268312454,10.7317075729,1.0,0.0,0.0,0.0,1.0,0.0,0.0,0.0,1.0,-0.986411083984,4.87459458008,-7.79552060547,1.0,0.0,0.0,0.0,1.0,0.0,0.0,0.0,1.0
1463563637171764759,738,1463563636626027913,,-29.2233123779,-7.02912139893,106.551261902,0.0100729996338,1.0,0.0,0.0,0.0,1.0,0.0,0.0,0.0,1.0,-12.1341466904,-3.04878044128,11.0365858078,1.0,0.0,0.0,0.0,1.0,0.0,0.0,0.0,1.0,-1.14442839355,4.91769020996,-7.81467421875,1.0,0.0,0.0,0.0,1.0,0.0,0.0,0.0,1.0
1463563637172200382,739,1463563636636365512,,-29.2939929962,-6.97860479355,106.672401428,0.0101039996371,1.0,0.0,0.0,0.0,1.0,0.0,0.0,0.0,1.0,-2.62195134163,-2.62195134163,11.9512195587,1.0,0.0,0.0,0.0,1.0,0.0,0.0,0.0,1.0,-1.25935007324,4.59207878418,-7.78115539551,1.0,0.0,0.0,0.0,1.0,0.0,0.0,0.0,1.0
1463563637172545276,740,1463563636646504570,,-29.2811717987,-6.91205072403,106.795700073,0.0102270003408,1.0,0.0,0.0,0.0,1.0,0.0,0.0,0.0,1.0,6.34146356583,-2.25609779358,12.1341466904,1.0,0.0,0.0,0.0,1.0,0.0,0.0,0.0,1.0,-1.07739082014,4.71657697825,-7.74284816895,1.0,0.0,0.0,0.0,1.0,0.0,0.0,0.0,1.0
1463563637172856732,741,1463563636656600763,,-29.1790943146,-6.83659315109,106.922775269,0.00998300034553,1.0,0.0,0.0,0.0,1.0,0.0,0.0,0.0,1.0,15.2439022064,-1.58536589146,13.2926826477,1.0,0.0,0.0,0.0,1.0,0.0,0.0,0.0,1.0,-1.07260241682,4.6591161384,-7.69496413574,1.0,0.0,0.0,0.0,1.0,0.0,0.0,0.0,1.0
1463563637173161054,742,1463563636666483573,,-28.9848995209,-6.7550239563,107.053359985,0.0101429997012,1.0,0.0,0.0,0.0,1.0,0.0,0.0,0.0,1.0,23.2317085266,-1.09756100178,13.841463089,1.0,0.0,0.0,0.0,1.0,0.0,0.0,0.0,1.0,-1.09175595703,4.5250411377,-7.79552060547,1.0,0.0,0.0,0.0,1.0,0.0,0.0,0.0,1.0
1463563637173420427,743,1463563636676773619,,-28.7189426422,-6.66253089905,107.201423645,0.0100429998711,1.0,0.0,0.0,0.0,1.0,0.0,0.0,0.0,1.0,29.5731697083,-0.304878056049,16.5243911743,1.0,0.0,0.0,0.0,1.0,0.0,0.0,0.0,1.0,-1.14442839355,4.11802685547,-7.51779321289,1.0,0.0,0.0,0.0,1.0,0.0,0.0,0.0,1.0
1463563637173696519,744,1463563636686751168,,-28.417842865,-6.55027151108,107.367584229,0.0100910002366,1.0,0.0,0.0,0.0,1.0,0.0,0.0,0.0,1.0,35.0609741211,0.18292683363,18.4146347046,1.0,0.0,0.0,0.0,1.0,0.0,0.0,0.0,1.0,-1.04387185076,4.40533105469,-7.49385119629,1.0,0.0,0.0,0.0,1.0,0.0,0.0,0.0,1.0
1463563637173979747,745,1463563636696858247,,-28.0480117798,-6.41351747513,107.561233521,0.0101159997284,1.0,0.0,0.0,0.0,1.0,0.0,0.0,0.0,1.0,41.5853652954,0.609756112099,21.6463432312,1.0,0.0,0.0,0.0,1.0,0.0,0.0,0.0,1.0,-0.967257470703,4.44363828125,-7.80030900879,1.0,0.0,0.0,0.0,1.0,0.0,0.0,0.0,1.0
1463563637174274485,746,1463563636707417719,,-27.5893096924,-6.2560839653,107.779098511,0.010098000057,1.0,0.0,0.0,0.0,1.0,0.0,0.0,0.0,1.0,47.5,1.2195122242,25.0,1.0,0.0,0.0,0.0,1.0,0.0,0.0,0.0,1.0,-0.9193734375,3.90254870605,-7.98226833496,1.0,0.0,0.0,0.0,1.0,0.0,0.0,0.0,1.0
1463563637174965835,747,1463563636717340945,,-27.0811767578,-6.07465600967,108.029624939,0.0101220002398,1.0,0.0,0.0,0.0,1.0,0.0,0.0,0.0,1.0,51.8902435303,1.09756100178,28.4146347046,1.0,0.0,0.0,0.0,1.0,0.0,0.0,0.0,1.0,-0.732625708008,3.76847341309,-8.11155522461,1.0,0.0,0.0,0.0,1.0,0.0,0.0,0.0,1.0
1463563637175395729,748,1463563636727093390,,-26.5399513245,-5.89068365097,108.308441162,0.0100889997557,1.0,0.0,0.0,0.0,1.0,0.0,0.0,0.0,1.0,57.0731697083,1.58536589146,31.5243930817,1.0,0.0,0.0,0.0,1.0,0.0,0.0,0.0,1.0,-0.91458503418,3.92649072266,-8.06845959473,1.0,0.0,0.0,0.0,1.0,0.0,0.0,0.0,1.0
1463563637175710779,749,1463563636737291615,,-25.9390258789,-5.70037698746,108.612693787,0.0101049998775,1.0,0.0,0.0,0.0,1.0,0.0,0.0,0.0,1.0,61.890247345,2.07317066193,34.4512214661,1.0,0.0,0.0,0.0,1.0,0.0,0.0,0.0,1.0,-1.01514150391,3.6535517334,-8.12592043457,1.0,0.0,0.0,0.0,1.0,0.0,0.0,0.0,1.0
1463563637175988277,750,1463563636747456401,,-25.2959461212,-5.5012793541,108.928733826,0.0100840004161,1.0,0.0,0.0,0.0,1.0,0.0,0.0,0.0,1.0,65.7317047119,3.29268312454,36.2195129395,1.0,0.0,0.0,0.0,1.0,0.0,0.0,0.0,1.0,-1.06302561017,3.42849677734,-8.03494077148,1.0,0.0,0.0,0.0,1.0,0.0,0.0,0.0,1.0
1463563637176279057,751,1463563636757962853,,-24.6200141907,-5.28432703018,109.26020813,0.0101079996675,1.0,0.0,0.0,0.0,1.0,0.0,0.0,0.0,1.0,69.3292694092,3.84146332741,37.7439041138,1.0,0.0,0.0,0.0,1.0,0.0,0.0,0.0,1.0,-0.871489404297,3.35188232422,-7.91523068848,1.0,0.0,0.0,0.0,1.0,0.0,0.0,0.0,1.0
1463563637176562493,752,1463563636767846704,,-23.8996372223,-5.06526565552,109.608528137,0.0101739997044,1.0,0.0,0.0,0.0,1.0,0.0,0.0,0.0,1.0,69.6951217651,3.17073178291,39.0853652954,1.0,0.0,0.0,0.0,1.0,0.0,0.0,0.0,1.0,-0.742202514648,2.70065947266,-8.0157871582,1.0,0.0,0.0,0.0,1.0,0.0,0.0,0.0,1.0
1463563637176863898,753,1463563636778068157,,-23.1753902435,-4.85442733765,109.964378357,0.0101009998471,1.0,0.0,0.0,0.0,1.0,0.0,0.0,0.0,1.0,67.1951217651,3.29268312454,40.2439041138,1.0,0.0,0.0,0.0,1.0,0.0,0.0,0.0,1.0,-0.818816967773,2.09732050817,-8.14507404785,1.0,0.0,0.0,0.0,1.0,0.0,0.0,0.0,1.0
1463563637177328426,754,1463563636787961852,,-22.5168476105,-4.65715742111,110.32585907,0.0100419996306,1.0,0.0,0.0,0.0,1.0,0.0,0.0,0.0,1.0,62.865852356,3.59756112099,40.7317085266,1.0,0.0,0.0,0.0,1.0,0.0,0.0,0.0,1.0,-0.967257470703,2.23139594727,-7.98705673828,1.0,0.0,0.0,0.0,1.0,0.0,0.0,0.0,1.0
1463563637177810090,755,1463563636798372419,,-21.9025306702,-4.46475982666,110.697875977,0.0100929997861,1.0,0.0,0.0,0.0,1.0,0.0,0.0,0.0,1.0,60.6707382202,3.59756112099,41.1585350037,1.0,0.0,0.0,0.0,1.0,0.0,0.0,0.0,1.0,-0.981622680664,2.48039291992,-7.82425102539,1.0,0.0,0.0,0.0,1.0,0.0,0.0,0.0,1.0
1463563637178140661,756,1463563636808408248,,-21.3058547974,-4.26706600189,111.071731567,0.0103270001709,1.0,0.0,0.0,0.0,1.0,0.0,0.0,0.0,1.0,61.4024429321,4.39024400711,40.1829299927,1.0,0.0,0.0,0.0,1.0,0.0,0.0,0.0,1.0,-0.967257470703,3.03105930176,-7.87213505859,1.0,0.0,0.0,0.0,1.0,0.0,0.0,0.0,1.0
1463563637178514149,757,1463563636818221735,,-20.7088794708,-4.08140850067,111.413658142,0.00990399997681,1.0,0.0,0.0,0.0,1.0,0.0,0.0,0.0,1.0,65.6097564697,4.81707286835,38.1707305908,1.0,0.0,0.0,0.0,1.0,0.0,0.0,0.0,1.0,-0.928950244141,3.35667072754,-8.12592043457,1.0,0.0,0.0,0.0,1.0,0.0,0.0,0.0,1.0
1463563637178865188,758,1463563636828275689,,-20.0263519287,-3.89114618301,111.743362427,0.0100649995729,1.0,0.0,0.0,0.0,1.0,0.0,0.0,0.0,1.0,69.3902435303,5.48780488968,36.5853652954,1.0,0.0,0.0,0.0,1.0,0.0,0.0,0.0,1.0,-0.780509741211,2.60010300293,-7.88171186523,1.0,0.0,0.0,0.0,1.0,0.0,0.0,0.0,1.0
1463563637179224249,759,1463563636838175478,,-19.2981433868,-3.70417618752,112.066612244,0.0101199997589,1.0,0.0,0.0,0.0,1.0,0.0,0.0,0.0,1.0,68.2317047119,4.87804889679,35.6097564697,1.0,0.0,0.0,0.0,1.0,0.0,0.0,0.0,1.0,-0.598550451572,1.71424838867,-7.84819304199,1.0,0.0,0.0,0.0,1.0,0.0,0.0,0.0,1.0
1463563637179900599,760,1463563636848488285,,-18.6385498047,-3.53762149811,112.379562378,0.0100870002061,1.0,0.0,0.0,0.0,1.0,0.0,0.0,0.0,1.0,65.0609741211,3.65853667259,33.7195129395,1.0,0.0,0.0,0.0,1.0,0.0,0.0,0.0,1.0,-0.560243188477,2.15957004359,-7.93438430176,1.0,0.0,0.0,0.0,1.0,0.0,0.0,0.0,1.0
1463563637180522315,761,1463563636858372605,,-18.0077095032,-3.4066567421,112.67250061,0.0101039996371,1.0,0.0,0.0,0.0,1.0,0.0,0.0,0.0,1.0,64.2682952881,2.68292689323,30.9146327972,1.0,0.0,0.0,0.0,1.0,0.0,0.0,0.0,1.0,-0.76614453125,2.48518132324,-8.14507404785,1.0,0.0,0.0,0.0,1.0,0.0,0.0,0.0,1.0
1463563637180995593,762,1463563636868676766,,-17.3570556641,-3.29458451271,112.935127258,0.0100990002975,1.0,0.0,0.0,0.0,1.0,0.0,0.0,0.0,1.0,64.9390258789,2.25609779358,27.5609760284,1.0,0.0,0.0,0.0,1.0,0.0,0.0,0.0,1.0,-0.77093293457,2.26012636719,-8.3030907729,1.0,0.0,0.0,0.0,1.0,0.0,0.0,0.0,1.0
1463563637181416112,763,1463563636878660929,,-16.7291984558,-3.19784355164,113.176948547,0.0100999996066,1.0,0.0,0.0,0.0,1.0,0.0,0.0,0.0,1.0,65.6707305908,1.8292683363,24.9390239716,1.0,0.0,0.0,0.0,1.0,0.0,0.0,0.0,1.0,-0.76614453125,2.64319863281,-8.24084211426,1.0,0.0,0.0,0.0,1.0,0.0,0.0,0.0,1.0
1463563637182041837,764,1463563636888872278,,-16.0778236389,-3.11412072182,113.405075073,0.0100959995762,1.0,0.0,0.0,0.0,1.0,0.0,0.0,0.0,1.0,67.6829299927,1.76829278469,23.4146347046,1.0,0.0,0.0,0.0,1.0,0.0,0.0,0.0,1.0,-0.818816967773,2.4756045166,-8.14028564453,1.0,0.0,0.0,0.0,1.0,0.0,0.0,0.0,1.0
1463563637182428346,765,1463563636899146908,,-15.4176206589,-3.032361269,113.635864258,0.0101199997589,1.0,0.0,0.0,0.0,1.0,0.0,0.0,0.0,1.0,68.6585388184,1.70731711388,23.475610733,1.0,0.0,0.0,0.0,1.0,0.0,0.0,0.0,1.0,-0.790086547852,2.41335541957,-8.12592043457,1.0,0.0,0.0,0.0,1.0,0.0,0.0,0.0,1.0
1463563637182698917,766,1463563636909527527,,-14.7407312393,-2.94676589966,113.864608765,0.0100959995762,1.0,0.0,0.0,0.0,1.0,0.0,0.0,0.0,1.0,69.2682952881,1.15853655338,23.1097564697,1.0,0.0,0.0,0.0,1.0,0.0,0.0,0.0,1.0,-0.579396801758,2.13562802699,-8.14028564453,1.0,0.0,0.0,0.0,1.0,0.0,0.0,0.0,1.0
1463563637182964124,767,1463563636919106380,,-14.0577201843,-2.8639125824,114.106040955,0.0101389996707,1.0,0.0,0.0,0.0,1.0,0.0,0.0,0.0,1.0,68.1707382202,-0.426829278469,23.8414649963,1.0,0.0,0.0,0.0,1.0,0.0,0.0,0.0,1.0,-0.383072265625,1.89141931152,-8.48983967144,1.0,0.0,0.0,0.0,1.0,0.0,0.0,0.0,1.0
1463563637183284174,768,1463563636929660852,,-13.39473629,-2.7957611084,114.34752655,0.0100649995729,1.0,0.0,0.0,0.0,1.0,0.0,0.0,0.0,1.0,65.2439041138,-2.07317066193,23.5975627899,1.0,0.0,0.0,0.0,1.0,0.0,0.0,0.0,1.0,-0.296881024126,1.62805712891,-8.82981572266,1.0,0.0,0.0,0.0,1.0,0.0,0.0,0.0,1.0
1463563637183597766,769,1463563636939813712,,-12.8238611221,-2.76186561584,114.588653564,0.0101359998807,1.0,0.0,0.0,0.0,1.0,0.0,0.0,0.0,1.0,62.317073822,-4.69512224197,22.3780498505,1.0,0.0,0.0,0.0,1.0,0.0,0.0,0.0,1.0,-0.325611425781,2.44687409668,-8.2504189209,1.0,0.0,0.0,0.0,1.0,0.0,0.0,0.0,1.0
1463563637183930160,770,1463563636949571470,,-12.227971077,-2.76417708397,114.816719055,0.0100689996034,1.0,0.0,0.0,0.0,1.0,0.0,0.0,0.0,1.0,55.365852356,-5.18292713165,21.5853652954,1.0,0.0,0.0,0.0,1.0,0.0,0.0,0.0,1.0,-0.76135612793,0.948103857422,-8.95431420898,1.0,0.0,0.0,0.0,1.0,0.0,0.0,0.0,1.0
1463563637184403022,771,1463563636959585841,,-11.7082777023,-2.78540730476,115.035652161,0.010111999698,1.0,0.0,0.0,0.0,1.0,0.0,0.0,0.0,1.0,48.6585388184,-6.64634132385,20.1829280853,1.0,0.0,0.0,0.0,1.0,0.0,0.0,0.0,1.0,-0.775721337891,1.06781401349,-9.2416184082,1.0,0.0,0.0,0.0,1.0,0.0,0.0,0.0,1.0
1463563637185032185,772,1463563636970412343,,-11.2670783997,-2.83127570152,115.247016907,0.0103730000556,1.0,0.0,0.0,0.0,1.0,0.0,0.0,0.0,1.0,42.0731697083,-6.95121955872,18.7195110321,1.0,0.0,0.0,0.0,1.0,0.0,0.0,0.0,1.0,-1.03429511719,1.35990654297,-9.17458076172,1.0,0.0,0.0,0.0,1.0,0.0,0.0,0.0,1.0
1463563637185398173,773,1463563636981021971,,-10.9162054062,-2.88285541534,115.436820984,0.00981399975717,1.0,0.0,0.0,0.0,1.0,0.0,0.0,0.0,1.0,39.2073173523,-7.43902492523,17.3780498505,1.0,0.0,0.0,0.0,1.0,0.0,0.0,0.0,1.0,-1.05823706072,1.97282216797,-9.27034882812,1.0,0.0,0.0,0.0,1.0,0.0,0.0,0.0,1.0
1463563637185682755,774,1463563636990294836,,-10.5726652145,-2.93619537354,115.618598938,0.0101910000667,1.0,0.0,0.0,0.0,1.0,0.0,0.0,0.0,1.0,38.9634132385,-7.31707334518,15.7926826477,1.0,0.0,0.0,0.0,1.0,0.0,0.0,0.0,1.0,-1.04387185076,2.28885678711,-9.4954043687,1.0,0.0,0.0,0.0,1.0,0.0,0.0,0.0,1.0
1463563637185946763,775,1463563637000106083,,-10.1989707947,-2.98321509361,115.785049438,0.0100220004097,1.0,0.0,0.0,0.0,1.0,0.0,0.0,0.0,1.0,40.4268302917,-6.82926845551,14.7560987473,1.0,0.0,0.0,0.0,1.0,0.0,0.0,0.0,1.0,-0.986411083984,1.87226569824,-9.5432884019,1.0,0.0,0.0,0.0,1.0,0.0,0.0,0.0,1.0
1463563637186199262,776,1463563637010607900,,-9.82984447479,-3.02246022224,115.948448181,0.0100739998743,1.0,0.0,0.0,0.0,1.0,0.0,0.0,0.0,1.0,39.6951217651,-7.43902492523,14.2682924271,1.0,0.0,0.0,0.0,1.0,0.0,0.0,0.0,1.0,-0.723048901367,1.80522805176,-9.60553764507,1.0,0.0,0.0,0.0,1.0,0.0,0.0,0.0,1.0
1463563637186442750,777,1463563637021007894,,-9.46364688873,-3.06734037399,116.111625671,0.0101229995489,1.0,0.0,0.0,0.0,1.0,0.0,0.0,0.0,1.0,39.1463432312,-8.71951198578,13.9634151459,1.0,0.0,0.0,0.0,1.0,0.0,0.0,0.0,1.0,-0.588973571866,1.76213242187,-9.81143840332,1.0,0.0,0.0,0.0,1.0,0.0,0.0,0.0,1.0
1463563637186694936,778,1463563637030530236,,-9.10379981995,-3.13529801369,116.258872986,0.0101030003279,1.0,0.0,0.0,0.0,1.0,0.0,0.0,0.0,1.0,38.3536567688,-9.51219558716,12.3170728683,1.0,0.0,0.0,0.0,1.0,0.0,0.0,0.0,1.0,-0.799663354492,1.67115275879,-9.83538041992,1.0,0.0,0.0,0.0,1.0,0.0,0.0,0.0,1.0
1463563637186946237,779,1463563637040907834,,-8.74655246735,-3.21783089638,116.385398865,0.0100929997861,1.0,0.0,0.0,0.0,1.0,0.0,0.0,0.0,1.0,38.1097564697,-10.9756097794,10.0609760284,1.0,0.0,0.0,0.0,1.0,0.0,0.0,0.0,1.0,-0.737414111328,1.62805712891,-9.88326445312,1.0,0.0,0.0,0.0,1.0,0.0,0.0,0.0,1.0
1463563637187530400,780,1463563637051643608,,-8.41175460815,-3.32331848145,116.479919434,0.0100880004466,1.0,0.0,0.0,0.0,1.0,0.0,0.0,0.0,1.0,36.9512214661,-10.3658542633,6.95121955872,1.0,0.0,0.0,0.0,1.0,0.0,0.0,0.0,1.0,-1.16837033709,1.77649763184,-9.84495722656,1.0,0.0,0.0,0.0,1.0,0.0,0.0,0.0,1.0
1463563637187894825,781,1463563637061455115,,-8.08463287354,-3.43326616287,116.548019409,0.0101190004498,1.0,0.0,0.0,0.0,1.0,0.0,0.0,0.0,1.0,36.8292694092,-10.4878053665,4.2682929039,1.0,0.0,0.0,0.0,1.0,0.0,0.0,0.0,1.0,-1.1540052002,1.8626888916,-9.77791958008,1.0,0.0,0.0,0.0,1.0,0.0,0.0,0.0,1.0
1463563637188161022,782,1463563637071125947,,-7.75763130188,-3.54559063911,116.592224121,0.0101039996371,1.0,0.0,0.0,0.0,1.0,0.0,0.0,0.0,1.0,36.5853652954,-10.0609760284,2.01219511032,1.0,0.0,0.0,0.0,1.0,0.0,0.0,0.0,1.0,-1.24498486328,1.80043964844,-9.90241806641,1.0,0.0,0.0,0.0,1.0,0.0,0.0,0.0,1.0
1463563637188421281,783,1463563637081070266,,-7.43966960907,-3.6433429718,116.618255615,0.0100830001757,1.0,0.0,0.0,0.0,1.0,0.0,0.0,0.0,1.0,37.4390220642,-9.26829242706,0.243902444839,1.0,0.0,0.0,0.0,1.0,0.0,0.0,0.0,1.0,-1.10612116699,2.06380183105,-9.88326445312,1.0,0.0,0.0,0.0,1.0,0.0,0.0,0.0,1.0
1463563637188716279,784,1463563637090957451,,-7.1064953804,-3.74050307274,116.634231567,0.0101389996707,1.0,0.0,0.0,0.0,1.0,0.0,0.0,0.0,1.0,38.6585388184,-8.35365867615,-0.609756112099,1.0,0.0,0.0,0.0,1.0,0.0,0.0,0.0,1.0,-1.23061965332,1.97761057129,-9.77791958008,1.0,0.0,0.0,0.0,1.0,0.0,0.0,0.0,1.0
1463563637189017319,785,1463563637102586865,,-6.72896575928,-3.8133161068,116.655143738,0.0105100004002,1.0,0.0,0.0,0.0,1.0,0.0,0.0,0.0,1.0,38.9634132385,-7.01219511032,0.18292683363,1.0,0.0,0.0,0.0,1.0,0.0,0.0,0.0,1.0,-0.991199487305,1.37906015625,-9.50976957866,1.0,0.0,0.0,0.0,1.0,0.0,0.0,0.0,1.0
1463563637189391328,786,1463563637111154369,,-6.40513467789,-3.88236999512,116.677024841,0.0097000002861,1.0,0.0,0.0,0.0,1.0,0.0,0.0,0.0,1.0,36.4024391174,-6.95121955872,0.487804889679,1.0,0.0,0.0,0.0,1.0,0.0,0.0,0.0,1.0,-1.0534486574,1.31202250977,-9.5432884019,1.0,0.0,0.0,0.0,1.0,0.0,0.0,0.0,1.0
1463563637191255588,787,1463563637121275302,,-6.10733270645,-3.94795370102,116.700164795,0.0101070003584,1.0,0.0,0.0,0.0,1.0,0.0,0.0,0.0,1.0,33.9634132385,-7.62195110321,0.365853667259,1.0,0.0,0.0,0.0,1.0,0.0,0.0,0.0,1.0,-0.861912597656,1.55144267578,-9.79228479004,1.0,0.0,0.0,0.0,1.0,0.0,0.0,0.0,1.0
1463563637191777877,788,1463563637131459255,,-5.8285779953,-4.03047370911,116.702583313,0.0100400000811,1.0,0.0,0.0,0.0,1.0,0.0,0.0,0.0,1.0,32.134147644,-7.56097555161,-1.64634156227,1.0,0.0,0.0,0.0,1.0,0.0,0.0,0.0,1.0,-1.17315874041,1.5322890625,-9.98860932617,1.0,0.0,0.0,0.0,1.0,0.0,0.0,0.0,1.0
1463563637192227041,789,1463563637141526699,,-5.59089994431,-4.11147069931,116.687561035,0.0101380003616,1.0,0.0,0.0,0.0,1.0,0.0,0.0,0.0,1.0,29.9390258789,-7.25609779358,-3.47560977936,1.0,0.0,0.0,0.0,1.0,0.0,0.0,0.0,1.0,-1.19231249982,1.92493813477,-10.1514150391,1.0,0.0,0.0,0.0,1.0,0.0,0.0,0.0,1.0
1463563637192512821,790,1463563637151542060,,-5.3408870697,-4.19606208801,116.650894165,0.010214000009,1.0,0.0,0.0,0.0,1.0,0.0,0.0,0.0,1.0,30.3658542633,-6.82926845551,-5.48780488968,1.0,0.0,0.0,0.0,1.0,0.0,0.0,0.0,1.0,-1.28808049316,1.77649763184,-10.0317049561,1.0,0.0,0.0,0.0,1.0,0.0,0.0,0.0,1.0
1463563637192875996,791,1463563637161876221,,-5.09735202789,-4.26392889023,116.598144531,0.0100320000201,1.0,0.0,0.0,0.0,1.0,0.0,0.0,0.0,1.0,30.6097583771,-6.34146356583,-7.13414621353,1.0,0.0,0.0,0.0,1.0,0.0,0.0,0.0,1.0,-1.08217922346,1.81959326172,-9.94551369629,1.0,0.0,0.0,0.0,1.0,0.0,0.0,0.0,1.0
1463563637193171254,792,1463563637171923404,,-4.84774637222,-4.33372783661,116.529945374,0.0101840002462,1.0,0.0,0.0,0.0,1.0,0.0,0.0,0.0,1.0,31.4634151459,-6.21951246262,-8.59756088257,1.0,0.0,0.0,0.0,1.0,0.0,0.0,0.0,1.0,-1.13963999023,1.95366855469,-10.1705686523,1.0,0.0,0.0,0.0,1.0,0.0,0.0,0.0,1.0
1463563637344074265,793,1463563637182379908,,-4.58242082596,-4.38907718658,116.44934082,0.00996599998325,1.0,0.0,0.0,0.0,1.0,0.0,0.0,0.0,1.0,32.3780517578,-6.09756088257,-9.87804889679,1.0,0.0,0.0,0.0,1.0,0.0,0.0,0.0,1.0,-0.909796630859,1.68551796875,-10.0700121826,1.0,0.0,0.0,0.0,1.0,0.0,0.0,0.0,1.0
1463563637344678533,794,1463563637192122562,,-4.32788658142,-4.43646287918,116.364585876,0.0101250000298,1.0,0.0,0.0,0.0,1.0,0.0,0.0,0.0,1.0,31.4024391174,-6.82926845551,-10.2439022064,1.0,0.0,0.0,0.0,1.0,0.0,0.0,0.0,1.0,-0.646434448242,1.77649763184,-10.314220752,1.0,0.0,0.0,0.0,1.0,0.0,0.0,0.0,1.0
1463563637345066603,795,1463563637202134069,,-4.08162021637,-4.48951244354,116.279037476,0.0100670000538,1.0,0.0,0.0,0.0,1.0,0.0,0.0,0.0,1.0,31.5243930817,-7.01219511032,-10.4268293381,1.0,0.0,0.0,0.0,1.0,0.0,0.0,0.0,1.0,-0.732625708008,1.87705410156,-10.2759135254,1.0,0.0,0.0,0.0,1.0,0.0,0.0,0.0,1.0
1463563637345346914,796,1463563637212353387,,-3.81796073914,-4.54652404785,116.181602478,0.0101030003279,1.0,0.0,0.0,0.0,1.0,0.0,0.0,0.0,1.0,31.4024391174,-7.68292665482,-11.4634151459,1.0,0.0,0.0,0.0,1.0,0.0,0.0,0.0,1.0,-0.675164868164,1.5083470459,-10.1992990723,1.0,0.0,0.0,0.0,1.0,0.0,0.0,0.0,1.0
1463563637345635506,797,1463563637222395883,,-3.58107876778,-4.61846590042,116.084892273,0.0100739998743,1.0,0.0,0.0,0.0,1.0,0.0,0.0,0.0,1.0,28.7195110321,-7.98780536652,-11.4024391174,1.0,0.0,0.0,0.0,1.0,0.0,0.0,0.0,1.0,-0.909796630859,1.44130939941,-10.1753570557,1.0,0.0,0.0,0.0,1.0,0.0,0.0,0.0,1.0
1463563637345936130,798,1463563637232459785,,-3.35058736801,-4.70987892151,115.976142883,0.0101509997621,1.0,0.0,0.0,0.0,1.0,0.0,0.0,0.0,1.0,26.0975627899,-8.5365858078,-12.3780488968,1.0,0.0,0.0,0.0,1.0,0.0,0.0,0.0,1.0,-1.15879360352,1.08696755371,-10.1897222656,1.0,0.0,0.0,0.0,1.0,0.0,0.0,0.0,1.0
1463563637346212170,799,1463563637242456708,,-3.16150712967,-4.79225826263,115.863098145,0.0101269995794,1.0,0.0,0.0,0.0,1.0,0.0,0.0,0.0,1.0,24.3902435303,-8.29268264771,-12.9878053665,1.0,0.0,0.0,0.0,1.0,0.0,0.0,0.0,1.0,-1.06781401349,1.48919343262,-10.2232410889,1.0,0.0,0.0,0.0,1.0,0.0,0.0,0.0,1.0
1463563637346535606,800,1463563637252636912,,-2.97558617592,-4.87174892426,115.73400116,0.0100919995457,1.0,0.0,0.0,0.0,1.0,0.0,0.0,0.0,1.0,23.7195129395,-8.41463470459,-14.5731706619,1.0,0.0,0.0,0.0,1.0,0.0,0.0,0.0,1.0,-1.01992990723,1.42694418945,-10.3908352051,1.0,0.0,0.0,0.0,1.0,0.0,0.0,0.0,1.0
1463563637346846177,801,1463563637262787949,,-2.79524087906,-4.95960664749,115.597862244,0.0100379996002,1.0,0.0,0.0,0.0,1.0,0.0,0.0,0.0,1.0,23.4146347046,-8.90243911743,-15.3658533096,1.0,0.0,0.0,0.0,1.0,0.0,0.0,0.0,1.0,-1.09175595703,1.41736738281,-10.2423947021,1.0,0.0,0.0,0.0,1.0,0.0,0.0,0.0,1.0
1463563637347511486,802,1463563637272685341,,-2.61735415459,-5.04470729828,115.4429245,0.0102629996836,1.0,0.0,0.0,0.0,1.0,0.0,0.0,0.0,1.0,22.3170719147,-8.59756088257,-16.8292694092,1.0,0.0,0.0,0.0,1.0,0.0,0.0,0.0,1.0,-1.09654436035,1.35511813965,-10.4626612549,1.0,0.0,0.0,0.0,1.0,0.0,0.0,0.0,1.0
1463563637347910077,803,1463563637282898565,,-2.44825220108,-5.12962436676,115.2943573,0.00994300004095,1.0,0.0,0.0,0.0,1.0,0.0,0.0,0.0,1.0,22.5,-8.65853691101,-16.7073173523,1.0,0.0,0.0,0.0,1.0,0.0,0.0,0.0,1.0,-1.15879360352,1.42215578613,-10.4722380615,1.0,0.0,0.0,0.0,1.0,0.0,0.0,0.0,1.0
1463563637348180961,804,1463563637293118248,,-2.26413464546,-5.20940971375,115.132324219,0.0102500002831,1.0,0.0,0.0,0.0,1.0,0.0,0.0,0.0,1.0,22.1341457367,-8.65853691101,-17.4390239716,1.0,0.0,0.0,0.0,1.0,0.0,0.0,0.0,1.0,-1.03908344744,1.16358193377,-10.524910498,1.0,0.0,0.0,0.0,1.0,0.0,0.0,0.0,1.0
1463563637348457157,805,1463563637303268139,,-2.10430002213,-5.28702831268,114.976913452,0.00994599983096,1.0,0.0,0.0,0.0,1.0,0.0,0.0,0.0,1.0,21.5853652954,-8.96341514587,-17.3780498505,1.0,0.0,0.0,0.0,1.0,0.0,0.0,0.0,1.0,-1.00556469727,1.37906015625,-10.4722380615,1.0,0.0,0.0,0.0,1.0,0.0,0.0,0.0,1.0
1463563637348802885,806,1463563637313013293,,-1.95140218735,-5.36666870117,114.815292358,0.0101039996371,1.0,0.0,0.0,0.0,1.0,0.0,0.0,0.0,1.0,21.8292694092,-9.5731716156,-17.8658542633,1.0,0.0,0.0,0.0,1.0,0.0,0.0,0.0,1.0,-0.91458503418,1.56580788574,-10.3477395752,1.0,0.0,0.0,0.0,1.0,0.0,0.0,0.0,1.0
1463563637349106789,807,1463563637323241569,,-1.78011369705,-5.45713329315,114.661048889,0.0101450001821,1.0,0.0,0.0,0.0,1.0,0.0,0.0,0.0,1.0,24.0853652954,-10.4268293381,-17.134147644,1.0,0.0,0.0,0.0,1.0,0.0,0.0,0.0,1.0,-0.981622680664,1.63284553223,-10.405200415,1.0,0.0,0.0,0.0,1.0,0.0,0.0,0.0,1.0
1463563637349387621,808,1463563637333264221,,-1.57934570312,-5.54402542114,114.512504578,0.0100499996915,1.0,0.0,0.0,0.0,1.0,0.0,0.0,0.0,1.0,24.5731716156,-11.0975618362,-16.4634151459,1.0,0.0,0.0,0.0,1.0,0.0,0.0,0.0,1.0,-0.799663354492,1.05823706072,-9.96945571289,1.0,0.0,0.0,0.0,1.0,0.0,0.0,0.0,1.0
1463563637548595362,809,1463563637343477498,,-1.39820861816,-5.64070177078,114.388198853,0.0101420003921,1.0,0.0,0.0,0.0,1.0,0.0,0.0,0.0,1.0,23.475610733,-11.6463422775,-14.0243902206,1.0,0.0,0.0,0.0,1.0,0.0,0.0,0.0,1.0,-0.900219824219,1.17315874041,-10.0221281494,1.0,0.0,0.0,0.0,1.0,0.0,0.0,0.0,1.0
1463563637548885829,810,1463563637353451713,,-1.22389316559,-5.74096870422,114.286079407,0.0100600002334,1.0,0.0,0.0,0.0,1.0,0.0,0.0,0.0,1.0,23.4146347046,-12.0731716156,-11.9512195587,1.0,0.0,0.0,0.0,1.0,0.0,0.0,0.0,1.0,-0.91458503418,1.16837033709,-9.81143840332,1.0,0.0,0.0,0.0,1.0,0.0,0.0,0.0,1.0
1463563637549211608,811,1463563637363542021,,-1.05285394192,-5.85423803329,114.208557129,0.010111999698,1.0,0.0,0.0,0.0,1.0,0.0,0.0,0.0,1.0,23.5365848541,-12.9878053665,-9.51219558716,1.0,0.0,0.0,0.0,1.0,0.0,0.0,0.0,1.0,-1.01035310059,1.20188930646,-9.88805285645,1.0,0.0,0.0,0.0,1.0,0.0,0.0,0.0,1.0
1463563637549609679,812,1463563637373784568,,-0.873381435871,-5.97993803024,114.138755798,0.0100990002975,1.0,0.0,0.0,0.0,1.0,0.0,0.0,0.0,1.0,24.2073173523,-13.4756097794,-8.71951198578,1.0,0.0,0.0,0.0,1.0,0.0,0.0,0.0,1.0,-1.18273554705,1.13963999023,-9.98382092285,1.0,0.0,0.0,0.0,1.0,0.0,0.0,0.0,1.0
1463563637550098999,813,1463563637390328278,,-0.572648584843,-6.18799877167,114.03212738,0.0157600007951,1.0,0.0,0.0,0.0,1.0,0.0,0.0,0.0,1.0,26.7073173523,-13.3536586761,-8.65853691101,1.0,0.0,0.0,0.0,1.0,0.0,0.0,0.0,1.0,-1.39821376953,1.35511813965,-10.1945106689,1.0,0.0,0.0,0.0,1.0,0.0,0.0,0.0,1.0
1463563637550427383,814,1463563637395946111,,-0.446409344673,-6.26382446289,113.988174438,0.00596700003371,1.0,0.0,0.0,0.0,1.0,0.0,0.0,0.0,1.0,28.475610733,-13.1097564697,-9.20731735229,1.0,0.0,0.0,0.0,1.0,0.0,0.0,0.0,1.0,-1.38863696289,1.25456166992,-10.1609918457,1.0,0.0,0.0,0.0,1.0,0.0,0.0,0.0,1.0
1463563637550713267,815,1463563637404328928,,-0.246720224619,-6.37326669693,113.915969849,0.0089699998498,1.0,0.0,0.0,0.0,1.0,0.0,0.0,0.0,1.0,31.8292694092,-13.5365858078,-10.1219511032,1.0,0.0,0.0,0.0,1.0,0.0,0.0,0.0,1.0,-1.23540805664,1.66636435547,-10.165780249,1.0,0.0,0.0,0.0,1.0,0.0,0.0,0.0,1.0
1463563637551260191,816,1463563637413957781,,0.0250988807529,-6.51228189468,113.818832397,0.00970800034702,1.0,0.0,0.0,0.0,1.0,0.0,0.0,0.0,1.0,35.6097564697,-15.1219511032,-11.8292684555,1.0,0.0,0.0,0.0,1.0,0.0,0.0,0.0,1.0,-1.33596452637,1.28808049316,-9.99818613281,1.0,0.0,0.0,0.0,1.0,0.0,0.0,0.0,1.0
1463563637551322482,817,1463563637424156161,,0.360208153725,-6.66051340103,113.70274353,0.0100889997557,1.0,0.0,0.0,0.0,1.0,0.0,0.0,0.0,1.0,37.7439041138,-14.8780498505,-12.9268293381,1.0,0.0,0.0,0.0,1.0,0.0,0.0,0.0,1.0,-1.49398183594,0.723048901367,-10.0843773926,1.0,0.0,0.0,0.0,1.0,0.0,0.0,0.0,1.0
1463563637551660970,818,1463563637434238136,,0.780523538589,-6.7923784256,113.55002594,0.0101250000298,1.0,0.0,0.0,0.0,1.0,0.0,0.0,0.0,1.0,40.5487823486,-15.3658533096,-15.7926826477,1.0,0.0,0.0,0.0,1.0,0.0,0.0,0.0,1.0,-1.07260241682,-0.234631762695,-9.40921193989,1.0,0.0,0.0,0.0,1.0,0.0,0.0,0.0,1.0
1463563637551962114,819,1463563637444748963,,1.09706020355,-6.9111366272,113.406288147,0.0100910002366,1.0,0.0,0.0,0.0,1.0,0.0,0.0,0.0,1.0,35.1829299927,-16.6463413239,-15.4268302917,1.0,0.0,0.0,0.0,1.0,0.0,0.0,0.0,1.0,-0.737414111328,0.526724328702,-10.1562034424,1.0,0.0,0.0,0.0,1.0,0.0,0.0,0.0,1.0
1463563637552299664,820,1463563637454529585,,1.44223976135,-7.07020950317,113.262817383,0.0101140001789,1.0,0.0,0.0,0.0,1.0,0.0,0.0,0.0,1.0,36.5853652954,-19.2073173523,-15.0609760284,1.0,0.0,0.0,0.0,1.0,0.0,0.0,0.0,1.0,-1.00556469727,0.225054956055,-9.95030209961,1.0,0.0,0.0,0.0,1.0,0.0,0.0,0.0,1.0
1463563637552726901,821,1463563637464904007,,1.76391816139,-7.26552629471,113.103103638,0.0100990002975,1.0,0.0,0.0,0.0,1.0,0.0,0.0,0.0,1.0,34.0853691101,-20.8536586761,-16.5243911743,1.0,0.0,0.0,0.0,1.0,0.0,0.0,0.0,1.0,-1.41736738281,0.172382519531,-10.0269165527,1.0,0.0,0.0,0.0,1.0,0.0,0.0,0.0,1.0
1463563637553026431,822,1463563637475350719,,2.07998013496,-7.47741174698,112.95224762,0.0100999996066,1.0,0.0,0.0,0.0,1.0,0.0,0.0,0.0,1.0,32.9268302917,-20.1219520569,-15.4878053665,1.0,0.0,0.0,0.0,1.0,0.0,0.0,0.0,1.0,-1.90099611816,0.0,-10.0652237793,1.0,0.0,0.0,0.0,1.0,0.0,0.0,0.0,1.0
1463563637553298252,823,1463563637485788057,,2.37285280228,-7.69732713699,112.793006897,0.0103540001437,1.0,0.0,0.0,0.0,1.0,0.0,0.0,0.0,1.0,31.2804889679,-19.817073822,-16.0365848541,1.0,0.0,0.0,0.0,1.0,0.0,0.0,0.0,1.0,-2.06380183105,0.215478149414,-10.0748005859,1.0,0.0,0.0,0.0,1.0,0.0,0.0,0.0,1.0
1463563637553630438,824,1463563637495786438,,2.6496193409,-7.89457654953,112.633544922,0.00985699985176,1.0,0.0,0.0,0.0,1.0,0.0,0.0,0.0,1.0,29.5731697083,-17.9268302917,-16.6463413239,1.0,0.0,0.0,0.0,1.0,0.0,0.0,0.0,1.0,-2.30322199707,-0.0814028564453,-10.3237975586,1.0,0.0,0.0,0.0,1.0,0.0,0.0,0.0,1.0
1463563637553960280,825,1463563637514045555,,2.93115139008,-8.09253406525,112.468757629,0.0100899999961,1.0,0.0,0.0,0.0,1.0,0.0,0.0,0.0,1.0,28.4146347046,-16.8292694092,-16.6463413239,1.0,0.0,0.0,0.0,1.0,0.0,0.0,0.0,1.0,-2.45645090332,-0.296881024126,-10.1705686523,1.0,0.0,0.0,0.0,1.0,0.0,0.0,0.0,1.0
1463563637554267205,826,1463563637520833121,,3.2882809639,-8.32274627686,112.215301514,0.0144520001486,1.0,0.0,0.0,0.0,1.0,0.0,0.0,0.0,1.0,26.0975627899,-14.3292694092,-18.0487823486,1.0,0.0,0.0,0.0,1.0,0.0,0.0,0.0,1.0,-2.25054956055,-0.138863696289,-9.96466730957,1.0,0.0,0.0,0.0,1.0,0.0,0.0,0.0,1.0
1463563637554830171,827,1463563637525917207,,3.4487092495,-8.41811466217,112.097755432,0.00668600015342,1.0,0.0,0.0,0.0,1.0,0.0,0.0,0.0,1.0,25.7317085266,-13.3536586761,-18.1707305908,1.0,0.0,0.0,0.0,1.0,0.0,0.0,0.0,1.0,-2.20745393066,-0.129286889648,-10.0891657959,1.0,0.0,0.0,0.0,1.0,0.0,0.0,0.0,1.0
1463563637555147513,828,1463563637539086196,,3.66536068916,-8.54204177856,111.927276611,0.0092169996351,1.0,0.0,0.0,0.0,1.0,0.0,0.0,0.0,1.0,25.0,-12.3780488968,-19.0853652954,1.0,0.0,0.0,0.0,1.0,0.0,0.0,0.0,1.0,-2.23618435059,-0.167594116211,-9.91199487305,1.0,0.0,0.0,0.0,1.0,0.0,0.0,0.0,1.0
1463563637555540271,829,1463563637545578347,,3.89374470711,-8.66849040985,111.733833313,0.0100299995393,1.0,0.0,0.0,0.0,1.0,0.0,0.0,0.0,1.0,23.2317085266,-11.4634151459,-19.7560977936,1.0,0.0,0.0,0.0,1.0,0.0,0.0,0.0,1.0,-2.26970317383,-0.359130249023,-9.79707319336,1.0,0.0,0.0,0.0,1.0,0.0,0.0,0.0,1.0
1463563637567229164,830,1463563637556121309,,4.10253715515,-8.77695941925,111.532859802,0.0101739997044,1.0,0.0,0.0,0.0,1.0,0.0,0.0,0.0,1.0,21.7073173523,-9.87804889679,-20.4268302917,1.0,0.0,0.0,0.0,1.0,0.0,0.0,0.0,1.0,-2.25054956055,-0.248996972656,-9.81622680664,1.0,0.0,0.0,0.0,1.0,0.0,0.0,0.0,1.0
1463563637567615880,831,1463563637566452449,,4.29554700851,-8.87745666504,111.326850891,0.0100589999929,1.0,0.0,0.0,0.0,1.0,0.0,0.0,0.0,1.0,20.0609760284,-8.17073154449,-21.2195129395,1.0,0.0,0.0,0.0,1.0,0.0,0.0,0.0,1.0,-2.4756045166,-0.31124621582,-9.7827079834,1.0,0.0,0.0,0.0,1.0,0.0,0.0,0.0,1.0
1463563637613339792,832,1463563637576065156,,4.47089910507,-8.96115207672,111.117500305,0.010106000118,1.0,0.0,0.0,0.0,1.0,0.0,0.0,0.0,1.0,18.2926826477,-6.52439069748,-21.5853652954,1.0,0.0,0.0,0.0,1.0,0.0,0.0,0.0,1.0,-2.4756045166,-0.316034619141,-9.69172832031,1.0,0.0,0.0,0.0,1.0,0.0,0.0,0.0,1.0
1463563637613615259,833,1463563637586279057,,4.63184261322,-9.02077102661,110.90952301,0.0101070003584,1.0,0.0,0.0,0.0,1.0,0.0,0.0,0.0,1.0,15.4268302917,-4.14634132385,-21.4024391174,1.0,0.0,0.0,0.0,1.0,0.0,0.0,0.0,1.0,-2.46602770996,-0.593762048251,-9.55286520855,1.0,0.0,0.0,0.0,1.0,0.0,0.0,0.0,1.0
1463563637613872497,834,1463563637596454001,,4.76721668243,-9.05641555786,110.702461243,0.0100929997861,1.0,0.0,0.0,0.0,1.0,0.0,0.0,0.0,1.0,11.1585359573,-2.25609779358,-21.2195129395,1.0,0.0,0.0,0.0,1.0,0.0,0.0,0.0,1.0,-2.33674067418,-0.905008227539,-9.28950185688,1.0,0.0,0.0,0.0,1.0,0.0,0.0,0.0,1.0
1463563637614293797,835,1463563637606935713,,4.82932710648,-9.06467533112,110.514923096,0.0100649995729,1.0,0.0,0.0,0.0,1.0,0.0,0.0,0.0,1.0,4.63414621353,-1.34146344662,-19.5121955872,1.0,0.0,0.0,0.0,1.0,0.0,0.0,0.0,1.0,-2.04464821777,-0.866701000977,-9.45230756977,1.0,0.0,0.0,0.0,1.0,0.0,0.0,0.0,1.0
