%time,field.header.seq,field.header.stamp,field.header.frame_id,field.orientation.x,field.orientation.y,field.orientation.z,field.orientation.w,field.orientation_covariance0,field.orientation_covariance1,field.orientation_covariance2,field.orientation_covariance3,field.orientation_covariance4,field.orientation_covariance5,field.orientation_covariance6,field.orientation_covariance7,field.orientation_covariance8,field.angular_velocity.x,field.angular_velocity.y,field.angular_velocity.z,field.angular_velocity_covariance0,field.angular_velocity_covariance1,field.angular_velocity_covariance2,field.angular_velocity_covariance3,field.angular_velocity_covariance4,field.angular_velocity_covariance5,field.angular_velocity_covariance6,field.angular_velocity_covariance7,field.angular_velocity_covariance8,field.linear_acceleration.x,field.linear_acceleration.y,field.linear_acceleration.z,field.linear_acceleration_covariance0,field.linear_acceleration_covariance1,field.linear_acceleration_covariance2,field.linear_acceleration_covariance3,field.linear_acceleration_covariance4,field.linear_acceleration_covariance5,field.linear_acceleration_covariance6,field.linear_acceleration_covariance7,field.linear_acceleration_covariance8
1463488211188594859,350,1463488211112999115,,61.8939704895,-11.592540741,-60.0897827148,0.0100760003552,1.0,0.0,0.0,0.0,1.0,0.0,0.0,0.0,1.0,-8.5365858078,6.40243911743,-1.8292683363,1.0,0.0,0.0,0.0,1.0,0.0,0.0,0.0,1.0,-3.65834013672,-4.74530798269,-8.58560773784,1.0,0.0,0.0,0.0,1.0,0.0,0.0,0.0,1.0
1463488211188735067,351,1463488211123000958,,61.4811592102,-11.6121530533,-59.9483337402,0.0099139995873,1.0,0.0,0.0,0.0,1.0,0.0,0.0,0.0,1.0,-8.41463470459,8.10975551605,-4.14634132385,1.0,0.0,0.0,0.0,1.0,0.0,0.0,0.0,1.0,-3.58651408691,-4.5489831543,-8.72447084961,1.0,0.0,0.0,0.0,1.0,0.0,0.0,0.0,1.0
1463488211188818400,352,1463488211133004050,,61.0635681152,-11.6138801575,-59.8225364685,0.0100959995762,1.0,0.0,0.0,0.0,1.0,0.0,0.0,0.0,1.0,-8.10975551605,7.25609779358,-6.34146356583,1.0,0.0,0.0,0.0,1.0,0.0,0.0,0.0,1.0,-3.52905324707,-4.41011945801,-8.78193168945,1.0,0.0,0.0,0.0,1.0,0.0,0.0,0.0,1.0
1463488211188890275,353,1463488211143127611,,60.6221809387,-11.6145744324,-59.7163467407,0.0100720003247,1.0,0.0,0.0,0.0,1.0,0.0,0.0,0.0,1.0,-9.32926845551,6.28048801422,-9.02439117432,1.0,0.0,0.0,0.0,1.0,0.0,0.0,0.0,1.0,-3.75410820312,-3.84508786621,-8.81066210937,1.0,0.0,0.0,0.0,1.0,0.0,0.0,0.0,1.0
1463488211188961108,354,1463488211153288047,,60.2883644104,-11.5198488235,-59.6443748474,0.00984000042081,1.0,0.0,0.0,0.0,1.0,0.0,0.0,0.0,1.0,-8.78048801422,6.28048801422,-11.5243911743,1.0,0.0,0.0,0.0,1.0,0.0,0.0,0.0,1.0,-2.7581203125,-6.02381137695,-8.44195446919,1.0,0.0,0.0,0.0,1.0,0.0,0.0,0.0,1.0
1463488211189029910,355,1463488211164516500,,59.8603935242,-11.4671535492,-59.5684814453,0.0100999996066,1.0,0.0,0.0,0.0,1.0,0.0,0.0,0.0,1.0,-10.9146347046,6.0365858078,-13.1097564697,1.0,0.0,0.0,0.0,1.0,0.0,0.0,0.0,1.0,-3.40934316406,-4.22337143625,-8.4802628648,1.0,0.0,0.0,0.0,1.0,0.0,0.0,0.0,1.0
1463488211189109129,356,1463488211173173607,,59.4563674927,-11.3925018311,-59.5077285767,0.0099670002237,1.0,0.0,0.0,0.0,1.0,0.0,0.0,0.0,1.0,-6.09756088257,4.51219558716,-14.2682924271,1.0,0.0,0.0,0.0,1.0,0.0,0.0,0.0,1.0,-3.04542451172,-3.7253777832,-9.08360109863,1.0,0.0,0.0,0.0,1.0,0.0,0.0,0.0,1.0
1463488211189196732,357,1463488211183044357,,59.137752533,-11.3419971466,-59.4678192139,0.0101209999993,1.0,0.0,0.0,0.0,1.0,0.0,0.0,0.0,1.0,-5.67073154449,4.14634132385,-14.2682924271,1.0,0.0,0.0,0.0,1.0,0.0,0.0,0.0,1.0,-3.4428619873,-4.82671083914,-7.80030900879,1.0,0.0,0.0,0.0,1.0,0.0,0.0,0.0,1.0
1463488211195792232,358,1463488211193167761,,58.682926178,-11.2878274918,-59.4157714844,0.00989300012589,1.0,0.0,0.0,0.0,1.0,0.0,0.0,0.0,1.0,-7.07317113876,3.35365867615,-15.2439022064,1.0,0.0,0.0,0.0,1.0,0.0,0.0,0.0,1.0,-3.23217224121,-2.41335541957,-9.31823227681,1.0,0.0,0.0,0.0,1.0,0.0,0.0,0.0,1.0
1463488211204695328,359,1463488211203003511,,58.2930335999,-11.2336893082,-59.3758583069,0.00996000040323,1.0,0.0,0.0,0.0,1.0,0.0,0.0,0.0,1.0,-3.10975623131,2.86585378647,-15.4878053665,1.0,0.0,0.0,0.0,1.0,0.0,0.0,0.0,1.0,-3.16513459473,-2.8060043457,-8.76277807617,1.0,0.0,0.0,0.0,1.0,0.0,0.0,0.0,1.0
1463488211217950545,360,1463488211212955926,,57.954826355,-11.2188224792,-59.3482818604,0.00998700037599,1.0,0.0,0.0,0.0,1.0,0.0,0.0,0.0,1.0,-3.10975623131,2.07317066193,-14.3902444839,1.0,0.0,0.0,0.0,1.0,0.0,0.0,0.0,1.0,-3.86902988281,-3.75889660645,-8.64785698101,1.0,0.0,0.0,0.0,1.0,0.0,0.0,0.0,1.0
1463488211225595312,361,1463488211222790582,,57.5852546692,-11.2098712921,-59.3339729309,0.00997199956328,1.0,0.0,0.0,0.0,1.0,0.0,0.0,0.0,1.0,-9.87804889679,1.76829278469,-14.9390249252,1.0,0.0,0.0,0.0,1.0,0.0,0.0,0.0,1.0,-3.9839515625,-4.16112219309,-8.10197841797,1.0,0.0,0.0,0.0,1.0,0.0,0.0,0.0,1.0
1463488211235435176,362,1463488211233013049,,57.1650085449,-11.1632661819,-59.2944641113,0.0100849997252,1.0,0.0,0.0,0.0,1.0,0.0,0.0,0.0,1.0,-12.2560977936,4.75609779358,-15.548781395,1.0,0.0,0.0,0.0,1.0,0.0,0.0,0.0,1.0,-3.63918652344,-3.85466467285,-8.26957253418,1.0,0.0,0.0,0.0,1.0,0.0,0.0,0.0,1.0
1463488211245006291,363,1463488211242827652,,56.736831665,-11.0864372253,-59.2493362427,0.00997000001371,1.0,0.0,0.0,0.0,1.0,0.0,0.0,0.0,1.0,-13.7195129395,6.70731735229,-17.0731716156,1.0,0.0,0.0,0.0,1.0,0.0,0.0,0.0,1.0,-3.68228215332,-4.09408483887,-8.69574042969,1.0,0.0,0.0,0.0,1.0,0.0,0.0,0.0,1.0
1463488211254648655,364,1463488211252962671,,56.2875823975,-10.965259552,-59.1861152649,0.00997599959373,1.0,0.0,0.0,0.0,1.0,0.0,0.0,0.0,1.0,-15.1219511032,10.1829271317,-18.9024391174,1.0,0.0,0.0,0.0,1.0,0.0,0.0,0.0,1.0,-3.44765039062,-3.97916315918,-8.69095202637,1.0,0.0,0.0,0.0,1.0,0.0,0.0,0.0,1.0
1463488211264892581,365,1463488211262810139,,55.8284034729,-10.8182525635,-59.107170105,0.00994499959052,1.0,0.0,0.0,0.0,1.0,0.0,0.0,0.0,1.0,-15.0609760284,13.048781395,-20.2439022064,1.0,0.0,0.0,0.0,1.0,0.0,0.0,0.0,1.0,-3.46680400391,-3.78762702637,-8.91600698242,1.0,0.0,0.0,0.0,1.0,0.0,0.0,0.0,1.0
1463488211274599737,366,1463488211272957763,,54.916103363,-10.938044548,-58.9676475525,0.0100549999624,1.0,0.0,0.0,0.0,1.0,0.0,0.0,0.0,1.0,-36.5853652954,-6.21951246262,11.4634151459,1.0,0.0,0.0,0.0,1.0,0.0,0.0,0.0,1.0,-0.790086547852,1.78607443848,-9.98382092285,1.0,0.0,0.0,0.0,1.0,0.0,0.0,0.0,1.0
1463488211284757412,367,1463488211282768773,,54.210559845,-11.0650691986,-58.7493972778,0.0100279999897,1.0,0.0,0.0,0.0,1.0,0.0,0.0,0.0,1.0,-43.1097564697,7.31707334518,14.6951217651,1.0,0.0,0.0,0.0,1.0,0.0,0.0,0.0,1.0,-3.54341845703,-6.22971271973,-10.6302553711,1.0,0.0,0.0,0.0,1.0,0.0,0.0,0.0,1.0
1463488211294729775,368,1463488211293026708,,53.9453010559,-10.7009992599,-58.6747970581,0.00997800007463,1.0,0.0,0.0,0.0,1.0,0.0,0.0,0.0,1.0,-21.158536911,18.2317085266,-17.9878044128,1.0,0.0,0.0,0.0,1.0,0.0,0.0,0.0,1.0,-0.143652099609,-8.76756647949,-7.11556733398,1.0,0.0,0.0,0.0,1.0,0.0,0.0,0.0,1.0
1463488211304533285,369,1463488211302760166,,53.3135490417,-10.4185810089,-58.5270042419,0.00998799968511,1.0,0.0,0.0,0.0,1.0,0.0,0.0,0.0,1.0,-23.8414649963,19.5121955872,-17.7439022064,1.0,0.0,0.0,0.0,1.0,0.0,0.0,0.0,1.0,-1.41736738281,-2.76769711914,-11.5208983887,1.0,0.0,0.0,0.0,1.0,0.0,0.0,0.0,1.0
1463488211314667315,370,1463488211312895289,,52.7626533508,-10.2099952698,-58.4138679504,0.0100400000811,1.0,0.0,0.0,0.0,1.0,0.0,0.0,0.0,1.0,-19.6951236725,15.8536596298,-16.8292694092,1.0,0.0,0.0,0.0,1.0,0.0,0.0,0.0,1.0,-1.91536132812,-2.68150585937,-8.77235488281,1.0,0.0,0.0,0.0,1.0,0.0,0.0,0.0,1.0
1463488211324601658,371,1463488211322774789,,52.168510437,-9.9882516861,-58.3537559509,0.00998099986464,1.0,0.0,0.0,0.0,1.0,0.0,0.0,0.0,1.0,-19.5731716156,10.3658542633,-19.2073173523,1.0,0.0,0.0,0.0,1.0,0.0,0.0,0.0,1.0,-1.41257897949,-1.62805712891,-10.0125513428,1.0,0.0,0.0,0.0,1.0,0.0,0.0,0.0,1.0
1463488211334799385,372,1463488211333034651,,51.7123794556,-9.8701505661,-58.3056983948,0.00999899953604,1.0,0.0,0.0,0.0,1.0,0.0,0.0,0.0,1.0,-10.6707315445,6.40243911743,-14.1463422775,1.0,0.0,0.0,0.0,1.0,0.0,0.0,0.0,1.0,-1.99676418457,-2.26970317383,-8.74841286621,1.0,0.0,0.0,0.0,1.0,0.0,0.0,0.0,1.0
1463488211358749776,373,1463488211355322756,,51.1610488892,-9.85161495209,-58.2646408081,0.0162070002407,1.0,0.0,0.0,0.0,1.0,0.0,0.0,0.0,1.0,-3.29268312454,-0.853658556938,-7.19512224197,1.0,0.0,0.0,0.0,1.0,0.0,0.0,0.0,1.0,-2.04943662109,-2.74854350586,-8.04451757812,1.0,0.0,0.0,0.0,1.0,0.0,0.0,0.0,1.0
1463488211362703513,374,1463488211359913783,,50.8272666931,-9.8308095932,-58.2541351318,0.010382999666,1.0,0.0,0.0,0.0,1.0,0.0,0.0,0.0,1.0,-3.17073178291,-2.68292689323,-6.7682929039,1.0,0.0,0.0,0.0,1.0,0.0,0.0,0.0,1.0,-1.77649763184,-3.10288535156,-8.31266757954,1.0,0.0,0.0,0.0,1.0,0.0,0.0,0.0,1.0
1463488211367795476,375,1463488211365179651,,50.5961608887,-9.84972858429,-58.2423744202,0.00497600017115,1.0,0.0,0.0,0.0,1.0,0.0,0.0,0.0,1.0,-10.1829271317,-3.71951246262,-5.30487823486,1.0,0.0,0.0,0.0,1.0,0.0,0.0,0.0,1.0,-2.27449157715,-1.60890351563,-8.69574042969,1.0,0.0,0.0,0.0,1.0,0.0,0.0,0.0,1.0
1463488211374889099,376,1463488211372976605,,50.2839660645,-9.88387584686,-58.2240028381,0.00842399988323,1.0,0.0,0.0,0.0,1.0,0.0,0.0,0.0,1.0,-4.57317066193,-4.20731735229,-3.96341490746,1.0,0.0,0.0,0.0,1.0,0.0,0.0,0.0,1.0,-2.12126281703,-2.28406838379,-8.3030907729,1.0,0.0,0.0,0.0,1.0,0.0,0.0,0.0,1.0
1463488211384603546,377,1463488211382751365,,50.0424499512,-9.95831298828,-58.2094955444,0.0099419998005,1.0,0.0,0.0,0.0,1.0,0.0,0.0,0.0,1.0,2.80487799644,-6.52439069748,-0.853658556938,1.0,0.0,0.0,0.0,1.0,0.0,0.0,0.0,1.0,-2.20266552734,-3.25611425781,-8.22168850098,1.0,0.0,0.0,0.0,1.0,0.0,0.0,0.0,1.0
1463488211394670961,378,1463488211392741853,,49.7923812866,-10.0325679779,-58.1985855103,0.0100050000474,1.0,0.0,0.0,0.0,1.0,0.0,0.0,0.0,1.0,2.5,-8.17073154449,0.365853667259,1.0,0.0,0.0,0.0,1.0,0.0,0.0,0.0,1.0,-2.07337849156,-3.52426484375,-9.16021555176,1.0,0.0,0.0,0.0,1.0,0.0,0.0,0.0,1.0
1463488211404530304,379,1463488211402683852,,49.4697647095,-10.1100130081,-58.1762542725,0.0099950004369,1.0,0.0,0.0,0.0,1.0,0.0,0.0,0.0,1.0,-1.76829278469,-8.04878044128,1.09756100178,1.0,0.0,0.0,0.0,1.0,0.0,0.0,0.0,1.0,-2.00155258789,-2.93529123535,-9.36611631001,1.0,0.0,0.0,0.0,1.0,0.0,0.0,0.0,1.0
1463488211414689178,380,1463488211412989339,,49.2032394409,-10.190325737,-58.1605148315,0.0100589999929,1.0,0.0,0.0,0.0,1.0,0.0,0.0,0.0,1.0,-1.64634156227,-7.43902492523,0.792682945728,1.0,0.0,0.0,0.0,1.0,0.0,0.0,0.0,1.0,-2.27449157715,-3.94085593262,-9.03092866211,1.0,0.0,0.0,0.0,1.0,0.0,0.0,0.0,1.0
1463488211424907322,381,1463488211422934047,,48.9230461121,-10.2729482651,-58.1507377625,0.00996599998325,1.0,0.0,0.0,0.0,1.0,0.0,0.0,0.0,1.0,-1.8292683363,-8.84146404266,1.03658533096,1.0,0.0,0.0,0.0,1.0,0.0,0.0,0.0,1.0,-2.02070620117,-3.45722719727,-8.75320126953,1.0,0.0,0.0,0.0,1.0,0.0,0.0,0.0,1.0
1463488211434700207,382,1463488211432965108,,48.6582717896,-10.3673372269,-58.1424636841,0.0100279999897,1.0,0.0,0.0,0.0,1.0,0.0,0.0,0.0,1.0,1.2804877758,-8.90243911743,0.365853667259,1.0,0.0,0.0,0.0,1.0,0.0,0.0,0.0,1.0,-2.25533796387,-3.08373173828,-8.77714328613,1.0,0.0,0.0,0.0,1.0,0.0,0.0,0.0,1.0
1463488211445374026,383,1463488211443081065,,48.4329795837,-10.4733743668,-58.1386566162,0.00999899953604,1.0,0.0,0.0,0.0,1.0,0.0,0.0,0.0,1.0,5.67073154449,-9.08536529541,-0.365853667259,1.0,0.0,0.0,0.0,1.0,0.0,0.0,0.0,1.0,-2.41814367676,-2.76290871582,-8.42758925923,1.0,0.0,0.0,0.0,1.0,0.0,0.0,0.0,1.0
1463488211454639204,384,1463488211452965668,,48.2671737671,-10.5728940964,-58.1450500488,0.0100029995665,1.0,0.0,0.0,0.0,1.0,0.0,0.0,0.0,1.0,13.4756097794,-8.59756088257,-3.10975623131,1.0,0.0,0.0,0.0,1.0,0.0,0.0,0.0,1.0,-2.71981308594,-2.33195227086,-8.69095202637,1.0,0.0,0.0,0.0,1.0,0.0,0.0,0.0,1.0
1463488211464776098,385,1463488211462799542,,48.2012634277,-10.622549057,-58.1483345032,0.00994999986142,1.0,0.0,0.0,0.0,1.0,0.0,0.0,0.0,1.0,21.6463432312,-6.64634132385,-4.39024400711,1.0,0.0,0.0,0.0,1.0,0.0,0.0,0.0,1.0,-2.43250888672,-2.86346518555,-9.04529387207,1.0,0.0,0.0,0.0,1.0,0.0,0.0,0.0,1.0
1463488211475264137,386,1463488211472957530,,48.2197952271,-10.6987686157,-58.1562309265,0.0100010000169,1.0,0.0,0.0,0.0,1.0,0.0,0.0,0.0,1.0,26.8292694092,-7.07317113876,-3.71951246262,1.0,0.0,0.0,0.0,1.0,0.0,0.0,0.0,1.0,-2.89219560547,-3.49074602051,-9.04529387207,1.0,0.0,0.0,0.0,1.0,0.0,0.0,0.0,1.0
1463488211484554576,387,1463488211482719686,,48.2644844055,-10.784901619,-58.1397857666,0.00999999977648,1.0,0.0,0.0,0.0,1.0,0.0,0.0,0.0,1.0,26.2804889679,-5.06097555161,-1.40243899822,1.0,0.0,0.0,0.0,1.0,0.0,0.0,0.0,1.0,-3.11725056152,-4.19464101633,-8.88248815918,1.0,0.0,0.0,0.0,1.0,0.0,0.0,0.0,1.0
1463488211494866313,388,1463488211492725643,,48.257484436,-10.8085756302,-58.1092224121,0.00999899953604,1.0,0.0,0.0,0.0,1.0,0.0,0.0,0.0,1.0,24.3902435303,-4.32926845551,-1.03658533096,1.0,0.0,0.0,0.0,1.0,0.0,0.0,0.0,1.0,-2.02549460449,-3.86902988281,-9.32302068013,1.0,0.0,0.0,0.0,1.0,0.0,0.0,0.0,1.0
1463488211504861177,389,1463488211502962693,,48.215965271,-10.9056930542,-58.0654563904,0.0100490003824,1.0,0.0,0.0,0.0,1.0,0.0,0.0,0.0,1.0,22.6219520569,-6.64634132385,3.04878044128,1.0,0.0,0.0,0.0,1.0,0.0,0.0,0.0,1.0,-2.46602770996,-3.48595761719,-9.2942902602,1.0,0.0,0.0,0.0,1.0,0.0,0.0,0.0,1.0
1463488211514608020,390,1463488211512938546,,48.2262077332,-11.0043554306,-57.9915809631,0.00999699998647,1.0,0.0,0.0,0.0,1.0,0.0,0.0,0.0,1.0,26.3414649963,-5.60975599289,6.89024400711,1.0,0.0,0.0,0.0,1.0,0.0,0.0,0.0,1.0,-2.12605122035,-3.84029946289,-9.01177504883,1.0,0.0,0.0,0.0,1.0,0.0,0.0,0.0,1.0
1463488211525281996,391,1463488211523067211,,48.2329940796,-11.1698331833,-57.9284248352,0.0100220004097,1.0,0.0,0.0,0.0,1.0,0.0,0.0,0.0,1.0,24.7560977936,-8.84146404266,9.14634132385,1.0,0.0,0.0,0.0,1.0,0.0,0.0,0.0,1.0,-2.67192905273,-3.97916315918,-8.94952580566,1.0,0.0,0.0,0.0,1.0,0.0,0.0,0.0,1.0
1463488211534843423,392,1463488211532990513,,48.2029685974,-11.335105896,-57.8183708191,0.00998300034553,1.0,0.0,0.0,0.0,1.0,0.0,0.0,0.0,1.0,24.6951236725,-6.28048801422,12.3170728683,1.0,0.0,0.0,0.0,1.0,0.0,0.0,0.0,1.0,-2.46123930664,-3.38061274414,-8.87769975586,1.0,0.0,0.0,0.0,1.0,0.0,0.0,0.0,1.0
1463488211545032088,393,1463488211542958189,,48.1951522827,-11.5407142639,-57.6733322144,0.00999999977648,1.0,0.0,0.0,0.0,1.0,0.0,0.0,0.0,1.0,25.4878044128,-5.48780488968,17.0731716156,1.0,0.0,0.0,0.0,1.0,0.0,0.0,0.0,1.0,-2.72938989258,-3.78283862305,-8.82023891602,1.0,0.0,0.0,0.0,1.0,0.0,0.0,0.0,1.0
1463488211554667578,394,1463488211552918260,,48.1330909729,-11.7236127853,-57.3784332275,0.00999100040644,1.0,0.0,0.0,0.0,1.0,0.0,0.0,0.0,1.0,25.7926845551,14.0243902206,16.2195110321,1.0,0.0,0.0,0.0,1.0,0.0,0.0,0.0,1.0,-9.03092866211,-5.21935961914,-16.6780087646,1.0,0.0,0.0,0.0,1.0,0.0,0.0,0.0,1.0
1463488211564692128,395,1463488211562790572,,48.1150054932,-11.7446575165,-57.0242195129,0.0100309997797,1.0,0.0,0.0,0.0,1.0,0.0,0.0,0.0,1.0,25.6707324982,18.2926826477,21.7073173523,1.0,0.0,0.0,0.0,1.0,0.0,0.0,0.0,1.0,-1.66157595215,-4.15633378977,-8.06845959473,1.0,0.0,0.0,0.0,1.0,0.0,0.0,0.0,1.0
1463488211574934960,396,1463488211572741634,,48.0530509949,-11.8247079849,-56.7272491455,0.00992599967867,1.0,0.0,0.0,0.0,1.0,0.0,0.0,0.0,1.0,16.8902435303,10.4268293381,23.5975627899,1.0,0.0,0.0,0.0,1.0,0.0,0.0,0.0,1.0,-1.95366855469,-5.70298835449,-9.53371159526,1.0,0.0,0.0,0.0,1.0,0.0,0.0,0.0,1.0
1463488211584838417,397,1463488211582958215,,47.9323539734,-11.9496736526,-56.396774292,0.010050999932,1.0,0.0,0.0,0.0,1.0,0.0,0.0,0.0,1.0,15.6707315445,13.1707324982,23.5365848541,1.0,0.0,0.0,0.0,1.0,0.0,0.0,0.0,1.0,-2.67192905273,-4.04620080566,-8.33182119282,1.0,0.0,0.0,0.0,1.0,0.0,0.0,0.0,1.0
1463488211595070363,398,1463488211593001776,,47.8146820068,-12.1043128967,-56.1241874695,0.0100149996579,1.0,0.0,0.0,0.0,1.0,0.0,0.0,0.0,1.0,17.5000019073,6.82926845551,21.341463089,1.0,0.0,0.0,0.0,1.0,0.0,0.0,0.0,1.0,-2.92571442871,-3.82114584961,-9.1697923584,1.0,0.0,0.0,0.0,1.0,0.0,0.0,0.0,1.0
1463488211604632415,399,1463488211602929608,,47.7235527039,-12.3312082291,-55.8776473999,0.00994499959052,1.0,0.0,0.0,0.0,1.0,0.0,0.0,0.0,1.0,16.8902435303,3.7804877758,21.8902435303,1.0,0.0,0.0,0.0,1.0,0.0,0.0,0.0,1.0,-4.18027580637,-4.40054265137,-9.4570959731,1.0,0.0,0.0,0.0,1.0,0.0,0.0,0.0,1.0
1463488211614673425,400,1463488211612980670,,47.6201095581,-12.5234909058,-55.6026878357,0.0100440001115,1.0,0.0,0.0,0.0,1.0,0.0,0.0,0.0,1.0,12.1951217651,5.30487823486,25.182926178,1.0,0.0,0.0,0.0,1.0,0.0,0.0,0.0,1.0,-3.22738383789,-5.24809003906,-8.95431420898,1.0,0.0,0.0,0.0,1.0,0.0,0.0,0.0,1.0
1463488211624953183,401,1463488211622970950,,47.4556159973,-12.7977485657,-55.3502044678,0.00999800022691,1.0,0.0,0.0,0.0,1.0,0.0,0.0,0.0,1.0,9.14634132385,1.15853655338,25.3048782349,1.0,0.0,0.0,0.0,1.0,0.0,0.0,0.0,1.0,-4.09408483887,-4.20900622629,-8.82981572266,1.0,0.0,0.0,0.0,1.0,0.0,0.0,0.0,1.0
1463488211634815547,402,1463488211632962324,,47.2400169373,-13.0672912598,-55.0867958069,0.00999599974602,1.0,0.0,0.0,0.0,1.0,0.0,0.0,0.0,1.0,5.60975599289,2.86585378647,24.3292694092,1.0,0.0,0.0,0.0,1.0,0.0,0.0,0.0,1.0,-4.30477487722,-3.79241542969,-8.72447084961,1.0,0.0,0.0,0.0,1.0,0.0,0.0,0.0,1.0
1463488211645343221,403,1463488211643000624,,47.0363693237,-13.288731575,-54.7953567505,0.0100159998983,1.0,0.0,0.0,0.0,1.0,0.0,0.0,0.0,1.0,3.29268312454,7.07317113876,24.9390239716,1.0,0.0,0.0,0.0,1.0,0.0,0.0,0.0,1.0,-3.75410820312,-4.3382934082,-7.91523068848,1.0,0.0,0.0,0.0,1.0,0.0,0.0,0.0,1.0
1463488211654584545,404,1463488211652723822,,46.7699050903,-13.4967622757,-54.4897422791,0.00993099994957,1.0,0.0,0.0,0.0,1.0,0.0,0.0,0.0,1.0,-0.426829278469,7.01219511032,26.4024391174,1.0,0.0,0.0,0.0,1.0,0.0,0.0,0.0,1.0,-3.38540114746,-4.0078935791,-8.17859287109,1.0,0.0,0.0,0.0,1.0,0.0,0.0,0.0,1.0
1463488211664904303,405,1463488211663050299,,46.4600830078,-13.7083110809,-54.1609115601,0.0101659996435,1.0,0.0,0.0,0.0,1.0,0.0,0.0,0.0,1.0,-2.19512200356,8.29268264771,26.5243911743,1.0,0.0,0.0,0.0,1.0,0.0,0.0,0.0,1.0,-3.59130249023,-3.76368500977,-8.44195446919,1.0,0.0,0.0,0.0,1.0,0.0,0.0,0.0,1.0
1463488211675302811,406,1463488211673152245,,46.2520446777,-13.8797807693,-53.8556938171,0.00989400036633,1.0,0.0,0.0,0.0,1.0,0.0,0.0,0.0,1.0,-0.731707334518,9.63414573669,25.5487804413,1.0,0.0,0.0,0.0,1.0,0.0,0.0,0.0,1.0,-3.4428619873,-5.05176550293,-7.81467421875,1.0,0.0,0.0,0.0,1.0,0.0,0.0,0.0,1.0
1463488211684799239,407,1463488211682783412,,45.9240760803,-13.9727516174,-53.5536880493,0.0100109996274,1.0,0.0,0.0,0.0,1.0,0.0,0.0,0.0,1.0,-6.15853643417,10.4878053665,21.2804889679,1.0,0.0,0.0,0.0,1.0,0.0,0.0,0.0,1.0,-2.68150585937,-4.15154538645,-8.59518454448,1.0,0.0,0.0,0.0,1.0,0.0,0.0,0.0,1.0
1463488211694678373,408,1463488211692711609,,45.5920143127,-14.0420532227,-53.3240814209,0.00993300043046,1.0,0.0,0.0,0.0,1.0,0.0,0.0,0.0,1.0,-5.0,7.13414621353,13.5365858078,1.0,0.0,0.0,0.0,1.0,0.0,0.0,0.0,1.0,-2.90177241211,-3.55778366699,-9.1458503418,1.0,0.0,0.0,0.0,1.0,0.0,0.0,0.0,1.0
1463488211704763288,409,1463488211703019857,,45.30210495,-14.0892267227,-53.1603622437,0.0100619997829,1.0,0.0,0.0,0.0,1.0,0.0,0.0,0.0,1.0,-2.80487799644,3.96341490746,7.50000047684,1.0,0.0,0.0,0.0,1.0,0.0,0.0,0.0,1.0,-3.04542451172,-3.82114584961,-9.53371159526,1.0,0.0,0.0,0.0,1.0,0.0,0.0,0.0,1.0
1463488211714623100,410,1463488211712947272,,45.0074081421,-14.0742740631,-53.0352745056,0.0099849998951,1.0,0.0,0.0,0.0,1.0,0.0,0.0,0.0,1.0,-3.96341490746,2.5,3.65853667259,1.0,0.0,0.0,0.0,1.0,0.0,0.0,0.0,1.0,-2.25054956055,-3.86424147949,-9.80186159668,1.0,0.0,0.0,0.0,1.0,0.0,0.0,0.0,1.0
1463488211725090670,411,1463488211722988125,,44.7167816162,-14.0938673019,-52.9589538574,0.0100130001083,1.0,0.0,0.0,0.0,1.0,0.0,0.0,0.0,1.0,-4.20731735229,-2.31707310677,1.58536589146,1.0,0.0,0.0,0.0,1.0,0.0,0.0,0.0,1.0,-2.4516625,-3.56736047363,-9.52892319194,1.0,0.0,0.0,0.0,1.0,0.0,0.0,0.0,1.0
1463488211734753712,412,1463488211733047155,,44.4567146301,-14.1451816559,-52.9031600952,0.010006999597,1.0,0.0,0.0,0.0,1.0,0.0,0.0,0.0,1.0,-2.13414645195,-5.18292713165,1.76829278469,1.0,0.0,0.0,0.0,1.0,0.0,0.0,0.0,1.0,-2.66235224609,-3.59609089355,-9.53849999858,1.0,0.0,0.0,0.0,1.0,0.0,0.0,0.0,1.0
1463488211745061803,413,1463488211742946550,,44.2606964111,-14.2323322296,-52.8505096436,0.00998399965465,1.0,0.0,0.0,0.0,1.0,0.0,0.0,0.0,1.0,-2.13414645195,-4.02439022064,2.37804889679,1.0,0.0,0.0,0.0,1.0,0.0,0.0,0.0,1.0,-3.3949779541,-4.42448466797,-8.61912656108,1.0,0.0,0.0,0.0,1.0,0.0,0.0,0.0,1.0
1463488211754650470,414,1463488211752777456,,43.9927978516,-14.3156080246,-52.7576255798,0.0100170001388,1.0,0.0,0.0,0.0,1.0,0.0,0.0,0.0,1.0,-6.70731735229,-0.487804889679,3.71951246262,1.0,0.0,0.0,0.0,1.0,0.0,0.0,0.0,1.0,-3.57693728027,-4.0557776123,-8.68616362305,1.0,0.0,0.0,0.0,1.0,0.0,0.0,0.0,1.0
1463488211764703771,415,1463488211762989610,,43.6732635498,-14.3916578293,-52.6387748718,0.00998799968511,1.0,0.0,0.0,0.0,1.0,0.0,0.0,0.0,1.0,-10.0609760284,1.52439022064,4.81707286835,1.0,0.0,0.0,0.0,1.0,0.0,0.0,0.0,1.0,-3.43328518066,-3.63918652344,-8.46110808247,1.0,0.0,0.0,0.0,1.0,0.0,0.0,0.0,1.0
1463488211774797019,416,1463488211772964838,,43.3345069885,-14.4490633011,-52.4783058167,0.00999899953604,1.0,0.0,0.0,0.0,1.0,0.0,0.0,0.0,1.0,-9.93902492523,4.45121955872,7.19512224197,1.0,0.0,0.0,0.0,1.0,0.0,0.0,0.0,1.0,-3.21301862793,-3.48595761719,-8.62870336773,1.0,0.0,0.0,0.0,1.0,0.0,0.0,0.0,1.0
1463488211784664852,417,1463488211782974962,,42.9789466858,-14.4699764252,-52.3012657166,0.0100010000169,1.0,0.0,0.0,0.0,1.0,0.0,0.0,0.0,1.0,-10.7926826477,5.91463422775,7.86585378647,1.0,0.0,0.0,0.0,1.0,0.0,0.0,0.0,1.0,-2.8060043457,-3.58651408691,-9.06444748535,1.0,0.0,0.0,0.0,1.0,0.0,0.0,0.0,1.0
1463488211794584768,418,1463488211792967221,,42.6251945496,-14.520772934,-52.1199264526,0.0100020002574,1.0,0.0,0.0,0.0,1.0,0.0,0.0,0.0,1.0,-9.45121955872,4.20731735229,9.63414573669,1.0,0.0,0.0,0.0,1.0,0.0,0.0,0.0,1.0,-2.97838686523,-3.41413156738,-9.40442353657,1.0,0.0,0.0,0.0,1.0,0.0,0.0,0.0,1.0
1463488211804653589,419,1463488211802948647,,42.29637146,-14.5766544342,-51.9501724243,0.00998799968511,1.0,0.0,0.0,0.0,1.0,0.0,0.0,0.0,1.0,-8.17073154449,3.53658556938,9.02439117432,1.0,0.0,0.0,0.0,1.0,0.0,0.0,0.0,1.0,-3.06936652832,-3.47638081055,-9.2655604248,1.0,0.0,0.0,0.0,1.0,0.0,0.0,0.0,1.0
1463488211814780848,420,1463488211813085645,,41.960144043,-14.6424722672,-51.7728500366,0.0100999996066,1.0,0.0,0.0,0.0,1.0,0.0,0.0,0.0,1.0,-7.62195110321,2.25609779358,10.6097564697,1.0,0.0,0.0,0.0,1.0,0.0,0.0,0.0,1.0,-2.91613762207,-3.35188232422,-9.48103915874,1.0,0.0,0.0,0.0,1.0,0.0,0.0,0.0,1.0
1463488211824729253,421,1463488211822994051,,41.6608352661,-14.7262239456,-51.6006584167,0.00991499982774,1.0,0.0,0.0,0.0,1.0,0.0,0.0,0.0,1.0,-7.43902492523,1.34146344662,12.1341466904,1.0,0.0,0.0,0.0,1.0,0.0,0.0,0.0,1.0,-2.94965644531,-3.72058937988,-9.01656345215,1.0,0.0,0.0,0.0,1.0,0.0,0.0,0.0,1.0
1463488211834694846,422,1463488211832987612,,41.3609619141,-14.8160982132,-51.4379692078,0.009990000166,1.0,0.0,0.0,0.0,1.0,0.0,0.0,0.0,1.0,-7.98780536652,1.2195122242,10.9146347046,1.0,0.0,0.0,0.0,1.0,0.0,0.0,0.0,1.0,-3.14119257812,-3.63439812012,-8.78193168945,1.0,0.0,0.0,0.0,1.0,0.0,0.0,0.0,1.0
1463488211845207208,423,1463488211842994819,,41.0567016602,-14.892870903,-51.2812919617,0.0100119998679,1.0,0.0,0.0,0.0,1.0,0.0,0.0,0.0,1.0,-8.29268264771,1.70731711388,9.51219558716,1.0,0.0,0.0,0.0,1.0,0.0,0.0,0.0,1.0,-3.14119257812,-3.52905324707,-8.77235488281,1.0,0.0,0.0,0.0,1.0,0.0,0.0,0.0,1.0
1463488211854759520,424,1463488211852805881,,40.6857376099,-14.9697551727,-51.1030158997,0.00998200010508,1.0,0.0,0.0,0.0,1.0,0.0,0.0,0.0,1.0,-7.86585378647,2.80487799644,8.96341514587,1.0,0.0,0.0,0.0,1.0,0.0,0.0,0.0,1.0,-3.20823022461,-2.18351191406,-9.07402429199,1.0,0.0,0.0,0.0,1.0,0.0,0.0,0.0,1.0
1463488211864641676,425,1463488211862799442,,40.4145812988,-15.0576696396,-50.9362411499,0.00994800031185,1.0,0.0,0.0,0.0,1.0,0.0,0.0,0.0,1.0,-4.08536577225,1.8292683363,10.4268293381,1.0,0.0,0.0,0.0,1.0,0.0,0.0,0.0,1.0,-3.28963308105,-3.26090266113,-8.84418093262,1.0,0.0,0.0,0.0,1.0,0.0,0.0,0.0,1.0
1463488211874646175,426,1463488211872727743,,40.0992851257,-15.1344251633,-50.7550468445,0.0100039998069,1.0,0.0,0.0,0.0,1.0,0.0,0.0,0.0,1.0,-4.87804889679,2.74390244484,10.1829271317,1.0,0.0,0.0,0.0,1.0,0.0,0.0,0.0,1.0,-3.23696064453,-2.6862942627,-9.16500395508,1.0,0.0,0.0,0.0,1.0,0.0,0.0,0.0,1.0
1463488211884799006,427,1463488211883084533,,39.8252944946,-15.2013092041,-50.5814056396,0.0101570002735,1.0,0.0,0.0,0.0,1.0,0.0,0.0,0.0,1.0,-2.13414645195,2.31707310677,9.75609779358,1.0,0.0,0.0,0.0,1.0,0.0,0.0,0.0,1.0,-3.15555778809,-3.02148249512,-9.29907866352,1.0,0.0,0.0,0.0,1.0,0.0,0.0,0.0,1.0
1463488211894910953,428,1463488211893021323,,39.592880249,-15.2653112411,-50.4211502075,0.00994599983096,1.0,0.0,0.0,0.0,1.0,0.0,0.0,0.0,1.0,-2.5,2.43902444839,9.69512176514,1.0,0.0,0.0,0.0,1.0,0.0,0.0,0.0,1.0,-3.21301862793,-3.63439812012,-8.97825622559,1.0,0.0,0.0,0.0,1.0,0.0,0.0,0.0,1.0
1463488211907455495,429,1463488211905250815,,39.3543205261,-15.3184909821,-50.2634658813,0.00989099964499,1.0,0.0,0.0,0.0,1.0,0.0,0.0,0.0,1.0,-4.75609779358,2.62195134163,9.81707286835,1.0,0.0,0.0,0.0,1.0,0.0,0.0,0.0,1.0,-3.03584770508,-3.83072265625,-8.78193168945,1.0,0.0,0.0,0.0,1.0,0.0,0.0,0.0,1.0
1463488211916559111,430,1463488211915243803,,39.0348472595,-15.3789253235,-50.0578231812,0.0124589996412,1.0,0.0,0.0,0.0,1.0,0.0,0.0,0.0,1.0,-5.30487823486,2.92682933807,9.93902492523,1.0,0.0,0.0,0.0,1.0,0.0,0.0,0.0,1.0,-2.99754047852,-3.68228215332,-8.92079538574,1.0,0.0,0.0,0.0,1.0,0.0,0.0,0.0,1.0
1463488211926812724,431,1463488211925044501,,38.791973114,-15.4381990433,-49.8999404907,0.00991700030863,1.0,0.0,0.0,0.0,1.0,0.0,0.0,0.0,1.0,-5.48780488968,2.5,9.93902492523,1.0,0.0,0.0,0.0,1.0,0.0,0.0,0.0,1.0,-3.26090266113,-3.92170231934,-9.06923588867,1.0,0.0,0.0,0.0,1.0,0.0,0.0,0.0,1.0
1463488211936949670,432,1463488211935218686,,38.5417289734,-15.49492836,-49.7372016907,0.00987599976361,1.0,0.0,0.0,0.0,1.0,0.0,0.0,0.0,1.0,-7.50000047684,2.98780488968,10.6707315445,1.0,0.0,0.0,0.0,1.0,0.0,0.0,0.0,1.0,-3.30399829102,-4.20421782297,-9.15542714844,1.0,0.0,0.0,0.0,1.0,0.0,0.0,0.0,1.0
1463488211947836770,433,1463488211945302612,,38.2505073547,-15.5550441742,-49.5682601929,0.0100010000169,1.0,0.0,0.0,0.0,1.0,0.0,0.0,0.0,1.0,-10.1829271317,2.68292689323,11.0365858078,1.0,0.0,0.0,0.0,1.0,0.0,0.0,0.0,1.0,-3.22738383789,-3.93127912598,-9.1219083252,1.0,0.0,0.0,0.0,1.0,0.0,0.0,0.0,1.0
1463488211957304552,434,1463488211954666227,,37.9713859558,-15.6090984344,-49.4062919617,0.00879400037229,1.0,0.0,0.0,0.0,1.0,0.0,0.0,0.0,1.0,-12.4390249252,3.17073178291,12.5,1.0,0.0,0.0,0.0,1.0,0.0,0.0,0.0,1.0,-3.16034619141,-3.87860668945,-9.08838950195,1.0,0.0,0.0,0.0,1.0,0.0,0.0,0.0,1.0
1463488211965420724,435,1463488211963644375,,37.6602363586,-15.668431282,-49.2307472229,0.00905000045896,1.0,0.0,0.0,0.0,1.0,0.0,0.0,0.0,1.0,-14.2682924271,3.53658556938,13.1707324982,1.0,0.0,0.0,0.0,1.0,0.0,0.0,0.0,1.0,-3.18907661133,-3.68228215332,-9.03092866211,1.0,0.0,0.0,0.0,1.0,0.0,0.0,0.0,1.0
1463488211974880485,436,1463488211972676638,,37.3094100952,-15.740111351,-49.0292663574,0.00992199964821,1.0,0.0,0.0,0.0,1.0,0.0,0.0,0.0,1.0,-16.7073173523,4.2682929039,14.2682924271,1.0,0.0,0.0,0.0,1.0,0.0,0.0,0.0,1.0,-3.2992098877,-3.86902988281,-8.78672009277,1.0,0.0,0.0,0.0,1.0,0.0,0.0,0.0,1.0
1463488211985460763,437,1463488211982650928,,36.9088821411,-15.8078136444,-48.8204917908,0.00999800022691,1.0,0.0,0.0,0.0,1.0,0.0,0.0,0.0,1.0,-19.817073822,3.96341490746,14.6341466904,1.0,0.0,0.0,0.0,1.0,0.0,0.0,0.0,1.0,-3.11725056152,-3.54820686035,-8.84418093262,1.0,0.0,0.0,0.0,1.0,0.0,0.0,0.0,1.0
1463488211995783281,438,1463488211992978499,,36.5130996704,-15.8720331192,-48.6178474426,0.0100010000169,1.0,0.0,0.0,0.0,1.0,0.0,0.0,0.0,1.0,-20.9146347046,5.18292713165,13.4146347046,1.0,0.0,0.0,0.0,1.0,0.0,0.0,0.0,1.0,-3.38061274414,-3.66791694336,-8.66222219097,1.0,0.0,0.0,0.0,1.0,0.0,0.0,0.0,1.0
1463488212004543670,439,1463488212002683103,,36.1003417969,-15.9154863358,-48.4128723145,0.0100060002878,1.0,0.0,0.0,0.0,1.0,0.0,0.0,0.0,1.0,-23.1097564697,7.01219511032,12.5,1.0,0.0,0.0,0.0,1.0,0.0,0.0,0.0,1.0,-3.56257207031,-3.87860668945,-9.03571706543,1.0,0.0,0.0,0.0,1.0,0.0,0.0,0.0,1.0
1463488212014865199,440,1463488212012680258,,35.6252784729,-15.9436454773,-48.1879272461,0.00999899953604,1.0,0.0,0.0,0.0,1.0,0.0,0.0,0.0,1.0,-28.5975608826,9.08536529541,13.2926826477,1.0,0.0,0.0,0.0,1.0,0.0,0.0,0.0,1.0,-3.51468803711,-3.75889660645,-9.03571706543,1.0,0.0,0.0,0.0,1.0,0.0,0.0,0.0,1.0
1463488212025738965,441,1463488212022746527,,35.0104064941,-16.0026245117,-47.9271430969,0.0100079998374,1.0,0.0,0.0,0.0,1.0,0.0,0.0,0.0,1.0,-34.4512214661,12.5,12.5,1.0,0.0,0.0,0.0,1.0,0.0,0.0,0.0,1.0,-4.43884987793,-2.03985981445,-9.00219824219,1.0,0.0,0.0,0.0,1.0,0.0,0.0,0.0,1.0
1463488212034422791,442,1463488212032703057,,34.3654937744,-15.9201488495,-47.6212043762,0.009990000166,1.0,0.0,0.0,0.0,1.0,0.0,0.0,0.0,1.0,-35.5487823486,13.4146347046,17.134147644,1.0,0.0,0.0,0.0,1.0,0.0,0.0,0.0,1.0,-1.70945998535,-2.30322199707,-9.72045874023,1.0,0.0,0.0,0.0,1.0,0.0,0.0,0.0,1.0
1463488212045421350,443,1463488212042658494,,33.737903595,-15.900308609,-47.2753257751,0.0099950004369,1.0,0.0,0.0,0.0,1.0,0.0,0.0,0.0,1.0,-37.0121955872,17.5000019073,20.4878044128,1.0,0.0,0.0,0.0,1.0,0.0,0.0,0.0,1.0,-2.98317526855,-2.63841022949,-8.70052883301,1.0,0.0,0.0,0.0,1.0,0.0,0.0,0.0,1.0
1463488212054976371,444,1463488212052667003,,33.0382957458,-15.9060382843,-46.905418396,0.0100010000169,1.0,0.0,0.0,0.0,1.0,0.0,0.0,0.0,1.0,-40.9146385193,16.341463089,23.1707324982,1.0,0.0,0.0,0.0,1.0,0.0,0.0,0.0,1.0,-3.12203896484,-2.14520483363,-9.1697923584,1.0,0.0,0.0,0.0,1.0,0.0,0.0,0.0,1.0
1463488212064876234,445,1463488212062680408,,32.3845596313,-15.8834037781,-46.5264396667,0.00999999977648,1.0,0.0,0.0,0.0,1.0,0.0,0.0,0.0,1.0,-36.5243911743,16.0365848541,24.6341457367,1.0,0.0,0.0,0.0,1.0,0.0,0.0,0.0,1.0,-2.59052619629,-2.26012636719,-9.50976957866,1.0,0.0,0.0,0.0,1.0,0.0,0.0,0.0,1.0
1463488212075271669,446,1463488212072666990,,31.8263435364,-15.8568410873,-46.1769943237,0.0100020002574,1.0,0.0,0.0,0.0,1.0,0.0,0.0,0.0,1.0,-28.7195110321,13.4146347046,23.2926845551,1.0,0.0,0.0,0.0,1.0,0.0,0.0,0.0,1.0,-2.32716386754,-2.36068269078,-9.52892319194,1.0,0.0,0.0,0.0,1.0,0.0,0.0,0.0,1.0
1463488212084382317,447,1463488212082687322,,31.3160400391,-15.8642482758,-45.8423919678,0.00999699998647,1.0,0.0,0.0,0.0,1.0,0.0,0.0,0.0,1.0,-23.2317085266,9.93902492523,23.4146347046,1.0,0.0,0.0,0.0,1.0,0.0,0.0,0.0,1.0,-2.4756045166,-2.09253210485,-9.82101520996,1.0,0.0,0.0,0.0,1.0,0.0,0.0,0.0,1.0
1463488212095514156,448,1463488212092785050,,30.8476009369,-15.8950958252,-45.5265617371,0.0100029995665,1.0,0.0,0.0,0.0,1.0,0.0,0.0,0.0,1.0,-19.5121955872,6.7682929039,23.1707324982,1.0,0.0,0.0,0.0,1.0,0.0,0.0,0.0,1.0,-2.45645090332,-1.98718737793,-9.76834277344,1.0,0.0,0.0,0.0,1.0,0.0,0.0,0.0,1.0
1463488212105005635,449,1463488212102691737,,30.4354858398,-15.9529447556,-45.2365493774,0.0100020002574,1.0,0.0,0.0,0.0,1.0,0.0,0.0,0.0,1.0,-15.1219511032,3.96341490746,22.0731716156,1.0,0.0,0.0,0.0,1.0,0.0,0.0,0.0,1.0,-2.64798703613,-1.98239897461,-9.69651672363,1.0,0.0,0.0,0.0,1.0,0.0,0.0,0.0,1.0
1463488212114868364,450,1463488212112674933,,30.0587768555,-16.0490455627,-44.9699172974,0.0099950004369,1.0,0.0,0.0,0.0,1.0,0.0,0.0,0.0,1.0,-13.1707324982,0.670731723309,21.6463432312,1.0,0.0,0.0,0.0,1.0,0.0,0.0,0.0,1.0,-2.87783039551,-2.03507141113,-9.50019277202,1.0,0.0,0.0,0.0,1.0,0.0,0.0,0.0,1.0
1463488212124979060,451,1463488212122760838,,29.713596344,-16.1421260834,-44.7047042847,0.0100010000169,1.0,0.0,0.0,0.0,1.0,0.0,0.0,0.0,1.0,-11.5243911743,0.853658556938,21.7682933807,1.0,0.0,0.0,0.0,1.0,0.0,0.0,0.0,1.0,-2.8060043457,-2.17872351074,-9.12669672852,1.0,0.0,0.0,0.0,1.0,0.0,0.0,0.0,1.0
1463488212134444759,452,1463488212132692473,,29.3178749084,-16.2532444,-44.4261665344,0.0100050000474,1.0,0.0,0.0,0.0,1.0,0.0,0.0,0.0,1.0,-11.2804880142,-0.609756112099,22.3170719147,1.0,0.0,0.0,0.0,1.0,0.0,0.0,0.0,1.0,-2.70065947266,-1.16358193377,-8.96389101563,1.0,0.0,0.0,0.0,1.0,0.0,0.0,0.0,1.0
1463488212145417640,453,1463488212142676086,,28.9803619385,-16.3203525543,-44.1456794739,0.00999899953604,1.0,0.0,0.0,0.0,1.0,0.0,0.0,0.0,1.0,-5.54878091812,2.62195134163,20.6707324982,1.0,0.0,0.0,0.0,1.0,0.0,0.0,0.0,1.0,-2.92571442871,-1.28329208984,-10.046070166,1.0,0.0,0.0,0.0,1.0,0.0,0.0,0.0,1.0
1463488212155009640,454,1463488212152703137,,28.7320079803,-16.4095878601,-43.8547554016,0.00999599974602,1.0,0.0,0.0,0.0,1.0,0.0,0.0,0.0,1.0,-1.03658533096,2.92682933807,23.1707324982,1.0,0.0,0.0,0.0,1.0,0.0,0.0,0.0,1.0,-3.064578125,-1.99197578125,-9.18894597168,1.0,0.0,0.0,0.0,1.0,0.0,0.0,0.0,1.0
1463488212164946222,455,1463488212162693677,,28.4569206238,-16.4615459442,-43.5657920837,0.00999699998647,1.0,0.0,0.0,0.0,1.0,0.0,0.0,0.0,1.0,-0.609756112099,2.5,22.0731716156,1.0,0.0,0.0,0.0,1.0,0.0,0.0,0.0,1.0,-2.46123930664,-1.4604630127,-9.5193463853,1.0,0.0,0.0,0.0,1.0,0.0,0.0,0.0,1.0
1463488212174638847,456,1463488212172662291,,28.2579612732,-16.5126857758,-43.293258667,0.0100020002574,1.0,0.0,0.0,0.0,1.0,0.0,0.0,0.0,1.0,4.08536577225,2.07317066193,21.2804889679,1.0,0.0,0.0,0.0,1.0,0.0,0.0,0.0,1.0,-2.50912333984,-1.87705410156,-9.41878874653,1.0,0.0,0.0,0.0,1.0,0.0,0.0,0.0,1.0
1463488212184540117,457,1463488212182735539,,28.0991916656,-16.5779933929,-43.0267028809,0.0100090000778,1.0,0.0,0.0,0.0,1.0,0.0,0.0,0.0,1.0,6.0365858078,1.8292683363,21.341463089,1.0,0.0,0.0,0.0,1.0,0.0,0.0,0.0,1.0,-2.68150585937,-2.11168571813,-9.04529387207,1.0,0.0,0.0,0.0,1.0,0.0,0.0,0.0,1.0
1463488212196250391,458,1463488212192941912,,27.9365329742,-16.6339702606,-42.7687187195,0.0100039998069,1.0,0.0,0.0,0.0,1.0,0.0,0.0,0.0,1.0,5.91463422775,0.975609779358,20.6707324982,1.0,0.0,0.0,0.0,1.0,0.0,0.0,0.0,1.0,-2.62404501953,-2.15478164027,-9.68693991699,1.0,0.0,0.0,0.0,1.0,0.0,0.0,0.0,1.0
1463488212204492865,459,1463488212202719329,,27.8587875366,-16.5796394348,-42.591053009,0.00999800022691,1.0,0.0,0.0,0.0,1.0,0.0,0.0,0.0,1.0,8.17073154449,0.426829278469,13.5975618362,1.0,0.0,0.0,0.0,1.0,0.0,0.0,0.0,1.0,-1.23540805664,-3.01190568848,-9.80186159668,1.0,0.0,0.0,0.0,1.0,0.0,0.0,0.0,1.0
1463488212214637259,460,1463488212212696536,,27.7598342896,-16.5907821655,-42.3523101807,0.00999199971557,1.0,0.0,0.0,0.0,1.0,0.0,0.0,0.0,1.0,9.26829242706,3.35365867615,18.1707305908,1.0,0.0,0.0,0.0,1.0,0.0,0.0,0.0,1.0,-2.36068269078,-2.49475812988,-9.24640681152,1.0,0.0,0.0,0.0,1.0,0.0,0.0,0.0,1.0
1463488212224614258,461,1463488212222819472,,27.6568813324,-16.5716381073,-42.081817627,0.00999800022691,1.0,0.0,0.0,0.0,1.0,0.0,0.0,0.0,1.0,7.68292665482,7.13414621353,20.3048782349,1.0,0.0,0.0,0.0,1.0,0.0,0.0,0.0,1.0,-2.37025978969,-2.98317526855,-9.5432884019,1.0,0.0,0.0,0.0,1.0,0.0,0.0,0.0,1.0
1463488212234779068,462,1463488212232970741,,27.5172348022,-16.5802955627,-41.8063697815,0.0100020002574,1.0,0.0,0.0,0.0,1.0,0.0,0.0,0.0,1.0,3.41463422775,6.28048801422,21.5243911743,1.0,0.0,0.0,0.0,1.0,0.0,0.0,0.0,1.0,-2.67192905273,-3.10767375488,-9.56244201519,1.0,0.0,0.0,0.0,1.0,0.0,0.0,0.0,1.0
1463488212245512002,463,1463488212242710709,,27.3658695221,-16.5534591675,-41.5364570618,0.00999999977648,1.0,0.0,0.0,0.0,1.0,0.0,0.0,0.0,1.0,0.975609779358,8.78048801422,20.0,1.0,0.0,0.0,0.0,1.0,0.0,0.0,0.0,1.0,-2.47081611328,-3.15555778809,-9.11711992188,1.0,0.0,0.0,0.0,1.0,0.0,0.0,0.0,1.0
1463488212254961867,464,1463488212252738177,,27.1581478119,-16.5533237457,-41.2805404663,0.00999899953604,1.0,0.0,0.0,0.0,1.0,0.0,0.0,0.0,1.0,-1.76829278469,5.73170757294,18.9634151459,1.0,0.0,0.0,0.0,1.0,0.0,0.0,0.0,1.0,-2.56179577637,-2.57616098633,-9.43315395649,1.0,0.0,0.0,0.0,1.0,0.0,0.0,0.0,1.0
1463488212265308292,465,1463488212262776425,,26.9414176941,-16.5883331299,-41.024974823,0.0100060002878,1.0,0.0,0.0,0.0,1.0,0.0,0.0,0.0,1.0,-2.31707310677,2.98780488968,20.1829280853,1.0,0.0,0.0,0.0,1.0,0.0,0.0,0.0,1.0,-2.69108266602,-2.49475812988,-9.5432884019,1.0,0.0,0.0,0.0,1.0,0.0,0.0,0.0,1.0
1463488212275039094,466,1463488212272724362,,26.7325401306,-16.6217403412,-40.7836914062,0.00998899992555,1.0,0.0,0.0,0.0,1.0,0.0,0.0,0.0,1.0,-1.8902438879,1.40243899822,19.4512195587,1.0,0.0,0.0,0.0,1.0,0.0,0.0,0.0,1.0,-2.48039291992,-2.45645090332,-9.54807680523,1.0,0.0,0.0,0.0,1.0,0.0,0.0,0.0,1.0
1463488212284442188,467,1463488212282675371,,26.5389099121,-16.6572284698,-40.5719146729,0.0100039998069,1.0,0.0,0.0,0.0,1.0,0.0,0.0,0.0,1.0,-0.731707334518,0.243902444839,16.6463413239,1.0,0.0,0.0,0.0,1.0,0.0,0.0,0.0,1.0,-2.62404501953,-2.37983659633,-9.76834277344,1.0,0.0,0.0,0.0,1.0,0.0,0.0,0.0,1.0
1463488212294732207,468,1463488212292696432,,26.3805828094,-16.692281723,-40.3993148804,0.0100050000474,1.0,0.0,0.0,0.0,1.0,0.0,0.0,0.0,1.0,0.0,-1.34146344662,13.7804880142,1.0,0.0,0.0,0.0,1.0,0.0,0.0,0.0,1.0,-2.60489140625,-2.64319863281,-9.61511445171,1.0,0.0,0.0,0.0,1.0,0.0,0.0,0.0,1.0
1463488212305378006,469,1463488212302786452,,26.2295188904,-16.7280826569,-40.2539253235,0.0099950004369,1.0,0.0,0.0,0.0,1.0,0.0,0.0,0.0,1.0,-1.76829278469,-2.98780488968,12.2560977936,1.0,0.0,0.0,0.0,1.0,0.0,0.0,0.0,1.0,-2.4756045166,-2.90656081543,-9.43315395649,1.0,0.0,0.0,0.0,1.0,0.0,0.0,0.0,1.0
1463488212315277922,470,1463488212312762826,,26.0825176239,-16.786239624,-40.1349372864,0.0100060002878,1.0,0.0,0.0,0.0,1.0,0.0,0.0,0.0,1.0,-3.59756112099,-5.91463422775,11.341463089,1.0,0.0,0.0,0.0,1.0,0.0,0.0,0.0,1.0,-2.44208569336,-3.07415493164,-9.13148513184,1.0,0.0,0.0,0.0,1.0,0.0,0.0,0.0,1.0
1463488212324992473,471,1463488212322657846,,25.9182796478,-16.8563213348,-40.046257019,0.00999100040644,1.0,0.0,0.0,0.0,1.0,0.0,0.0,0.0,1.0,-5.54878091812,-9.14634132385,9.45121955872,1.0,0.0,0.0,0.0,1.0,0.0,0.0,0.0,1.0,-2.22181914063,-2.84431157227,-8.88248815918,1.0,0.0,0.0,0.0,1.0,0.0,0.0,0.0,1.0
1463488212334597182,472,1463488212332715521,,25.7201461792,-16.9797363281,-39.9948120117,0.0100090000778,1.0,0.0,0.0,0.0,1.0,0.0,0.0,0.0,1.0,-8.41463470459,-13.7804880142,7.13414621353,1.0,0.0,0.0,0.0,1.0,0.0,0.0,0.0,1.0,-2.63362182617,-2.56179577637,-9.07881269531,1.0,0.0,0.0,0.0,1.0,0.0,0.0,0.0,1.0
1463488212344734545,473,1463488212342702312,,25.5288486481,-17.1193847656,-39.9805297852,0.00999899953604,1.0,0.0,0.0,0.0,1.0,0.0,0.0,0.0,1.0,-7.92682981491,-17.317073822,4.51219558716,1.0,0.0,0.0,0.0,1.0,0.0,0.0,0.0,1.0,-2.56179577637,-2.36068269078,-9.08838950195,1.0,0.0,0.0,0.0,1.0,0.0,0.0,0.0,1.0
1463488212354969772,474,1463488212352719467,,25.3484668732,-17.3051509857,-39.9920883179,0.0099849998951,1.0,0.0,0.0,0.0,1.0,0.0,0.0,0.0,1.0,-6.70731735229,-20.975610733,3.10975623131,1.0,0.0,0.0,0.0,1.0,0.0,0.0,0.0,1.0,-2.94965644531,-2.16435844691,-9.22246479492,1.0,0.0,0.0,0.0,1.0,0.0,0.0,0.0,1.0
1463488212364949531,475,1463488212362716361,,25.1931800842,-17.4983577728,-40.0016822815,0.0100109996274,1.0,0.0,0.0,0.0,1.0,0.0,0.0,0.0,1.0,-3.90243911743,-21.2804889679,3.29268312454,1.0,0.0,0.0,0.0,1.0,0.0,0.0,0.0,1.0,-2.95923325195,-2.03507141113,-8.99262143555,1.0,0.0,0.0,0.0,1.0,0.0,0.0,0.0,1.0
1463488212374422521,476,1463488212372728256,,25.0556144714,-17.7177658081,-40.0166664124,0.00999699998647,1.0,0.0,0.0,0.0,1.0,0.0,0.0,0.0,1.0,-1.58536589146,-22.8658542633,3.10975623131,1.0,0.0,0.0,0.0,1.0,0.0,0.0,0.0,1.0,-3.18907661133,-1.84353527832,-8.9591026123,1.0,0.0,0.0,0.0,1.0,0.0,0.0,0.0,1.0
1463488212384489728,477,1463488212382730255,,24.9292125702,-17.9536190033,-40.0253829956,0.0100039998069,1.0,0.0,0.0,0.0,1.0,0.0,0.0,0.0,1.0,0.12195122242,-23.2926845551,3.71951246262,1.0,0.0,0.0,0.0,1.0,0.0,0.0,0.0,1.0,-3.45722719727,-1.76213242187,-9.13627353516,1.0,0.0,0.0,0.0,1.0,0.0,0.0,0.0,1.0
1463488212394798966,478,1463488212392694650,,24.8179111481,-18.1945571899,-40.0250549316,0.0099950004369,1.0,0.0,0.0,0.0,1.0,0.0,0.0,0.0,1.0,0.670731723309,-23.2926845551,5.0,1.0,0.0,0.0,0.0,1.0,0.0,0.0,0.0,1.0,-3.57214887695,-1.99676418457,-9.24640681152,1.0,0.0,0.0,0.0,1.0,0.0,0.0,0.0,1.0
1463488212405299400,479,1463488212402727638,,24.7063331604,-18.4531726837,-40.0080223083,0.0100060002878,1.0,0.0,0.0,0.0,1.0,0.0,0.0,0.0,1.0,-0.731707334518,-22.9878044128,7.19512224197,1.0,0.0,0.0,0.0,1.0,0.0,0.0,0.0,1.0,-3.76847341309,-2.26491477051,-8.97346782227,1.0,0.0,0.0,0.0,1.0,0.0,0.0,0.0,1.0
1463488212414954890,480,1463488212412704949,,24.5959835052,-18.6999263763,-39.9879455566,0.00999999977648,1.0,0.0,0.0,0.0,1.0,0.0,0.0,0.0,1.0,-1.8292683363,-22.3780498505,7.62195110321,1.0,0.0,0.0,0.0,1.0,0.0,0.0,0.0,1.0,-3.67270534668,-2.48518132324,-8.89685336914,1.0,0.0,0.0,0.0,1.0,0.0,0.0,0.0,1.0
1463488212424465224,481,1463488212422727833,,24.4993896484,-18.9268779755,-39.9920005798,0.0099950004369,1.0,0.0,0.0,0.0,1.0,0.0,0.0,0.0,1.0,-2.31707310677,-21.7073173523,5.12195110321,1.0,0.0,0.0,0.0,1.0,0.0,0.0,0.0,1.0,-3.64397492676,-2.64319863281,-8.78672009277,1.0,0.0,0.0,0.0,1.0,0.0,0.0,0.0,1.0
1463488212435032325,482,1463488212432708166,,24.411605835,-19.1472415924,-40.0256195068,0.0100029995665,1.0,0.0,0.0,0.0,1.0,0.0,0.0,0.0,1.0,-1.95121955872,-21.341463089,1.64634156227,1.0,0.0,0.0,0.0,1.0,0.0,0.0,0.0,1.0,-3.95043273926,-2.57616098633,-8.9591026123,1.0,0.0,0.0,0.0,1.0,0.0,0.0,0.0,1.0
1463488212444761824,483,1463488212442746362,,24.3458118439,-19.3799171448,-40.0915603638,0.00999699998647,1.0,0.0,0.0,0.0,1.0,0.0,0.0,0.0,1.0,-1.40243899822,-20.6097564697,-1.8902438879,1.0,0.0,0.0,0.0,1.0,0.0,0.0,0.0,1.0,-4.55855996094,-2.56179577637,-8.72447084961,1.0,0.0,0.0,0.0,1.0,0.0,0.0,0.0,1.0
1463488212454513511,484,1463488212452728465,,24.2827529907,-19.557477951,-40.1635360718,0.0100020002574,1.0,0.0,0.0,0.0,1.0,0.0,0.0,0.0,1.0,-1.03658533096,-16.9512195587,-4.32926845551,1.0,0.0,0.0,0.0,1.0,0.0,0.0,0.0,1.0,-4.42927307129,-2.54264216309,-8.87769975586,1.0,0.0,0.0,0.0,1.0,0.0,0.0,0.0,1.0
1463488212464479104,485,1463488212462756558,,24.2864112854,-19.6559257507,-40.2646789551,0.0099950004369,1.0,0.0,0.0,0.0,1.0,0.0,0.0,0.0,1.0,1.70731711388,-13.841463089,-7.62195110321,1.0,0.0,0.0,0.0,1.0,0.0,0.0,0.0,1.0,-3.89776030273,-3.20344182129,-9.02135185547,1.0,0.0,0.0,0.0,1.0,0.0,0.0,0.0,1.0
1463488212474565269,486,1463488212472782306,,24.2733688354,-19.7844486237,-40.3639678955,0.0100149996579,1.0,0.0,0.0,0.0,1.0,0.0,0.0,0.0,1.0,-0.243902444839,-13.1097564697,-7.62195110321,1.0,0.0,0.0,0.0,1.0,0.0,0.0,0.0,1.0,-4.29040966726,-2.98317526855,-8.28872556294,1.0,0.0,0.0,0.0,1.0,0.0,0.0,0.0,1.0
1463488212484478883,487,1463488212482784878,,24.197555542,-19.8695545197,-40.4566001892,0.00998799968511,1.0,0.0,0.0,0.0,1.0,0.0,0.0,0.0,1.0,-3.17073178291,-11.341463089,-9.02439117432,1.0,0.0,0.0,0.0,1.0,0.0,0.0,0.0,1.0,-3.92649072266,-2.47081611328,-8.5520889146,1.0,0.0,0.0,0.0,1.0,0.0,0.0,0.0,1.0
1463488212494743068,488,1463488212492730731,,24.0809707642,-19.9690876007,-40.5226860046,0.0100020002574,1.0,0.0,0.0,0.0,1.0,0.0,0.0,0.0,1.0,-3.47560977936,-10.6707315445,-7.74390268326,1.0,0.0,0.0,0.0,1.0,0.0,0.0,0.0,1.0,-4.29519807058,-1.97282216797,-8.90643017578,1.0,0.0,0.0,0.0,1.0,0.0,0.0,0.0,1.0
1463488212505030743,489,1463488212502780490,,23.9868621826,-20.0558853149,-40.5703735352,0.0100039998069,1.0,0.0,0.0,0.0,1.0,0.0,0.0,0.0,1.0,-1.2804877758,-8.47560977936,-6.58536624908,1.0,0.0,0.0,0.0,1.0,0.0,0.0,0.0,1.0,-4.40533105469,-2.09253210485,-8.95431420898,1.0,0.0,0.0,0.0,1.0,0.0,0.0,0.0,1.0
1463488212514942274,490,1463488212512694937,,23.9055118561,-20.1198120117,-40.6095695496,0.00999299995601,1.0,0.0,0.0,0.0,1.0,0.0,0.0,0.0,1.0,-0.731707334518,-6.89024400711,-6.0365858078,1.0,0.0,0.0,0.0,1.0,0.0,0.0,0.0,1.0,-4.20900622629,-2.26970317383,-8.87769975586,1.0,0.0,0.0,0.0,1.0,0.0,0.0,0.0,1.0
1463488212524696096,491,1463488212522872040,,23.8295822144,-20.1685733795,-40.6444587708,0.0100130001083,1.0,0.0,0.0,0.0,1.0,0.0,0.0,0.0,1.0,-0.426829278469,-5.67073154449,-5.97560977936,1.0,0.0,0.0,0.0,1.0,0.0,0.0,0.0,1.0,-4.10845004883,-2.31758720703,-8.79629689941,1.0,0.0,0.0,0.0,1.0,0.0,0.0,0.0,1.0
1463488212534927886,492,1463488212532745185,,23.7657279968,-20.222202301,-40.6681251526,0.00998700037599,1.0,0.0,0.0,0.0,1.0,0.0,0.0,0.0,1.0,0.18292683363,-4.57317066193,-4.93902444839,1.0,0.0,0.0,0.0,1.0,0.0,0.0,0.0,1.0,-4.29040966726,-2.44208569336,-8.65743378765,1.0,0.0,0.0,0.0,1.0,0.0,0.0,0.0,1.0
1463488212544785718,493,1463488212542777183,,23.7152690887,-20.2740211487,-40.6902084351,0.0100020002574,1.0,0.0,0.0,0.0,1.0,0.0,0.0,0.0,1.0,-0.304878056049,-4.2682929039,-4.14634132385,1.0,0.0,0.0,0.0,1.0,0.0,0.0,0.0,1.0,-4.33350529714,-2.81558115234,-8.68137521973,1.0,0.0,0.0,0.0,1.0,0.0,0.0,0.0,1.0
1463488212554640478,494,1463488212552860849,,23.6550636292,-20.3280200958,-40.6986083984,0.0100060002878,1.0,0.0,0.0,0.0,1.0,0.0,0.0,0.0,1.0,-0.975609779358,-2.74390244484,-3.35365867615,1.0,0.0,0.0,0.0,1.0,0.0,0.0,0.0,1.0,-4.63517441406,-2.84909997559,-8.73883605957,1.0,0.0,0.0,0.0,1.0,0.0,0.0,0.0,1.0
1463488212564392478,495,1463488212562734619,,23.5959835052,-20.3256320953,-40.687915802,0.00999100040644,1.0,0.0,0.0,0.0,1.0,0.0,0.0,0.0,1.0,0.0,1.52439022064,-3.35365867615,1.0,0.0,0.0,0.0,1.0,0.0,0.0,0.0,1.0,-4.2760444573,-2.80121594238,-8.71010563965,1.0,0.0,0.0,0.0,1.0,0.0,0.0,0.0,1.0
1463488212574399737,496,1463488212572710784,,23.5116157532,-20.3175201416,-40.6637229919,0.0100020002574,1.0,0.0,0.0,0.0,1.0,0.0,0.0,0.0,1.0,-1.15853655338,1.2195122242,-2.19512200356,1.0,0.0,0.0,0.0,1.0,0.0,0.0,0.0,1.0,-3.94564433594,-2.59531459961,-8.61433815776,1.0,0.0,0.0,0.0,1.0,0.0,0.0,0.0,1.0
1463488212584545954,497,1463488212582795126,,23.3807239532,-20.3158950806,-40.6112251282,0.0100050000474,1.0,0.0,0.0,0.0,1.0,0.0,0.0,0.0,1.0,-2.13414645195,0.609756112099,-0.12195122242,1.0,0.0,0.0,0.0,1.0,0.0,0.0,0.0,1.0,-3.76847341309,-2.10210891149,-8.72447084961,1.0,0.0,0.0,0.0,1.0,0.0,0.0,0.0,1.0
1463488212595386856,498,1463488212592709261,,23.189496994,-20.3373832703,-40.5099182129,0.00999699998647,1.0,0.0,0.0,0.0,1.0,0.0,0.0,0.0,1.0,-4.39024400711,2.56097555161,3.17073178291,1.0,0.0,0.0,0.0,1.0,0.0,0.0,0.0,1.0,-4.07014282227,-1.5801730957,-8.40364724263,1.0,0.0,0.0,0.0,1.0,0.0,0.0,0.0,1.0
1463488212605084585,499,1463488212602722197,,23.0376319885,-20.3515224457,-40.4084777832,0.00999599974602,1.0,0.0,0.0,0.0,1.0,0.0,0.0,0.0,1.0,-3.59756112099,2.62195134163,4.45121955872,1.0,0.0,0.0,0.0,1.0,0.0,0.0,0.0,1.0,-4.51067592773,-2.45645090332,-9.58159562847,1.0,0.0,0.0,0.0,1.0,0.0,0.0,0.0,1.0
1463488212614944501,500,1463488212612713102,,22.8785400391,-20.3816013336,-40.2893371582,0.0100020002574,1.0,0.0,0.0,0.0,1.0,0.0,0.0,0.0,1.0,-3.10975623131,3.41463422775,5.67073154449,1.0,0.0,0.0,0.0,1.0,0.0,0.0,0.0,1.0,-4.63996281738,-2.16435844691,-9.10275471191,1.0,0.0,0.0,0.0,1.0,0.0,0.0,0.0,1.0
1463488212624949469,501,1463488212622673747,,22.7152233124,-20.3661174774,-40.1590919495,0.00999800022691,1.0,0.0,0.0,0.0,1.0,0.0,0.0,0.0,1.0,-3.47560977936,5.73170757294,5.97560977936,1.0,0.0,0.0,0.0,1.0,0.0,0.0,0.0,1.0,-4.13239206543,-2.22660754395,-9.06444748535,1.0,0.0,0.0,0.0,1.0,0.0,0.0,0.0,1.0
1463488212635048186,502,1463488212632746527,,22.5604991913,-20.3251857758,-40.0352554321,0.010006999597,1.0,0.0,0.0,0.0,1.0,0.0,0.0,0.0,1.0,-4.39024400711,7.31707334518,5.30487823486,1.0,0.0,0.0,0.0,1.0,0.0,0.0,0.0,1.0,-4.05098920898,-2.53785375977,-9.13148513184,1.0,0.0,0.0,0.0,1.0,0.0,0.0,0.0,1.0
1463488212644895394,503,1463488212642818213,,22.3811149597,-20.249786377,-39.9248771667,0.00999699998647,1.0,0.0,0.0,0.0,1.0,0.0,0.0,0.0,1.0,-6.82926845551,8.78048801422,3.17073178291,1.0,0.0,0.0,0.0,1.0,0.0,0.0,0.0,1.0,-3.63918652344,-2.32716386754,-8.79150849609,1.0,0.0,0.0,0.0,1.0,0.0,0.0,0.0,1.0
1463488212655072861,504,1463488212652735681,,22.1571941376,-20.1684703827,-39.826171875,0.00999599974602,1.0,0.0,0.0,0.0,1.0,0.0,0.0,0.0,1.0,-8.5365858078,8.41463470459,0.914634168148,1.0,0.0,0.0,0.0,1.0,0.0,0.0,0.0,1.0,-3.61524450684,-1.74297880859,-9.01656345215,1.0,0.0,0.0,0.0,1.0,0.0,0.0,0.0,1.0
1463488212665066266,505,1463488212662759554,,21.9447574615,-20.0511665344,-39.7172584534,0.0100090000778,1.0,0.0,0.0,0.0,1.0,0.0,0.0,0.0,1.0,-5.48780488968,8.10975551605,1.52439022064,1.0,0.0,0.0,0.0,1.0,0.0,0.0,0.0,1.0,-2.99754047852,-1.56101948242,-9.57201882183,1.0,0.0,0.0,0.0,1.0,0.0,0.0,0.0,1.0
1463488212675243681,506,1463488212673383062,,21.7779979706,-19.966091156,-39.6414375305,0.0100100003183,1.0,0.0,0.0,0.0,1.0,0.0,0.0,0.0,1.0,-3.10975623131,7.01219511032,-0.914634168148,1.0,0.0,0.0,0.0,1.0,0.0,0.0,0.0,1.0,-3.50989963379,-1.65199914551,-9.34217429341,1.0,0.0,0.0,0.0,1.0,0.0,0.0,0.0,1.0
1463488212684776462,507,1463488212682924385,,21.6874160767,-19.8458175659,-39.608959198,0.0100320000201,1.0,0.0,0.0,0.0,1.0,0.0,0.0,0.0,1.0,-1.64634156227,9.45121955872,-4.39024400711,1.0,0.0,0.0,0.0,1.0,0.0,0.0,0.0,1.0,-3.69185895996,-2.59531459961,-9.49061596538,1.0,0.0,0.0,0.0,1.0,0.0,0.0,0.0,1.0
1463488212695491219,508,1463488212693346226,,21.5891819,-19.7187919617,-39.5889396667,0.00995299965143,1.0,0.0,0.0,0.0,1.0,0.0,0.0,0.0,1.0,-4.57317066193,9.45121955872,-4.93902444839,1.0,0.0,0.0,0.0,1.0,0.0,0.0,0.0,1.0,-3.45243879395,-2.8060043457,-9.09796630859,1.0,0.0,0.0,0.0,1.0,0.0,0.0,0.0,1.0
1463488212704472804,509,1463488212702697498,,21.4463329315,-19.6241321564,-39.5721473694,0.00999699998647,1.0,0.0,0.0,0.0,1.0,0.0,0.0,0.0,1.0,-8.04878044128,8.71951198578,-5.36585378647,1.0,0.0,0.0,0.0,1.0,0.0,0.0,0.0,1.0,-4.0318355957,-2.62883342285,-9.33738589009,1.0,0.0,0.0,0.0,1.0,0.0,0.0,0.0,1.0
1463488212714458501,510,1463488212712752934,,21.2260341644,-19.4766426086,-39.5412597656,0.0100039998069,1.0,0.0,0.0,0.0,1.0,0.0,0.0,0.0,1.0,-11.2804880142,11.0365858078,-6.34146356583,1.0,0.0,0.0,0.0,1.0,0.0,0.0,0.0,1.0,-3.42370837402,-1.85790048828,-9.50019277202,1.0,0.0,0.0,0.0,1.0,0.0,0.0,0.0,1.0
1463488212724938519,511,1463488212722684412,,20.9780578613,-19.3513717651,-39.4575119019,0.00999899953604,1.0,0.0,0.0,0.0,1.0,0.0,0.0,0.0,1.0,-10.0609760284,10.1219511032,-1.40243899822,1.0,0.0,0.0,0.0,1.0,0.0,0.0,0.0,1.0,-3.36145913086,-1.43173259277,-9.80186159668,1.0,0.0,0.0,0.0,1.0,0.0,0.0,0.0,1.0
1463488212735072028,512,1463488212732795681,,20.748796463,-19.2811794281,-39.3637886047,0.0100090000778,1.0,0.0,0.0,0.0,1.0,0.0,0.0,0.0,1.0,-8.47560977936,7.50000047684,0.914634168148,1.0,0.0,0.0,0.0,1.0,0.0,0.0,0.0,1.0,-3.77805021973,-1.47961662598,-9.7587659668,1.0,0.0,0.0,0.0,1.0,0.0,0.0,0.0,1.0
1463488212745041996,513,1463488212742707785,,20.5514602661,-19.2648487091,-39.2886276245,0.00999400019646,1.0,0.0,0.0,0.0,1.0,0.0,0.0,0.0,1.0,-6.40243911743,5.73170757294,-0.0609756112099,1.0,0.0,0.0,0.0,1.0,0.0,0.0,0.0,1.0,-4.39575424805,-1.40300217285,-9.30386706685,1.0,0.0,0.0,0.0,1.0,0.0,0.0,0.0,1.0
1463488212755037640,514,1463488212752727804,,20.4184303284,-19.1541233063,-39.23254776,0.00999800022691,1.0,0.0,0.0,0.0,1.0,0.0,0.0,0.0,1.0,-3.84146332741,10.0,-2.31707310677,1.0,0.0,0.0,0.0,1.0,0.0,0.0,0.0,1.0,-3.27047946777,-1.89620771484,-8.52335849468,1.0,0.0,0.0,0.0,1.0,0.0,0.0,0.0,1.0
1463488212765087712,515,1463488212762713865,,20.2775707245,-19.0567035675,-39.170249939,0.00999899953604,1.0,0.0,0.0,0.0,1.0,0.0,0.0,0.0,1.0,-1.8292683363,7.25609779358,-1.58536589146,1.0,0.0,0.0,0.0,1.0,0.0,0.0,0.0,1.0,-3.16992299805,-1.54186586914,-9.19852277832,1.0,0.0,0.0,0.0,1.0,0.0,0.0,0.0,1.0
1463488212774623723,516,1463488212772707218,,20.1908416748,-18.9855937958,-39.1157073975,0.00999899953604,1.0,0.0,0.0,0.0,1.0,0.0,0.0,0.0,1.0,2.86585378647,6.0365858078,-1.70731711388,1.0,0.0,0.0,0.0,1.0,0.0,0.0,0.0,1.0,-3.57214887695,-1.65199914551,-9.53849999858,1.0,0.0,0.0,0.0,1.0,0.0,0.0,0.0,1.0
1463488212784836606,517,1463488212782686040,,20.149646759,-18.9152107239,-39.0736846924,0.0100039998069,1.0,0.0,0.0,0.0,1.0,0.0,0.0,0.0,1.0,4.75609779358,6.09756088257,-2.13414645195,1.0,0.0,0.0,0.0,1.0,0.0,0.0,0.0,1.0,-3.62482131348,-2.05901342773,-9.42357714985,1.0,0.0,0.0,0.0,1.0,0.0,0.0,0.0,1.0
1463488212795288864,518,1463488212792661216,,20.1058540344,-18.8383369446,-39.0401878357,0.00999400019646,1.0,0.0,0.0,0.0,1.0,0.0,0.0,0.0,1.0,3.53658556938,6.15853643417,-2.74390244484,1.0,0.0,0.0,0.0,1.0,0.0,0.0,0.0,1.0,-3.4428619873,-2.12126281703,-9.13148513184,1.0,0.0,0.0,0.0,1.0,0.0,0.0,0.0,1.0
1463488212805075551,519,1463488212802677017,,20.0689792633,-18.758972168,-39.0183982849,0.00999400019646,1.0,0.0,0.0,0.0,1.0,0.0,0.0,0.0,1.0,2.56097555161,6.09756088257,-3.41463422775,1.0,0.0,0.0,0.0,1.0,0.0,0.0,0.0,1.0,-3.49553442383,-2.39899020961,-9.2655604248,1.0,0.0,0.0,0.0,1.0,0.0,0.0,0.0,1.0
1463488212814985519,520,1463488212812677662,,20.0179042816,-18.6739311218,-39.0043487549,0.0100119998679,1.0,0.0,0.0,0.0,1.0,0.0,0.0,0.0,1.0,1.09756100178,5.97560977936,-4.20731735229,1.0,0.0,0.0,0.0,1.0,0.0,0.0,0.0,1.0,-3.44765039062,-2.38941340297,-9.39484672993,1.0,0.0,0.0,0.0,1.0,0.0,0.0,0.0,1.0
1463488212824882205,521,1463488212822675962,,19.9344711304,-18.5957679749,-38.9881362915,0.00999899953604,1.0,0.0,0.0,0.0,1.0,0.0,0.0,0.0,1.0,-1.09756100178,5.48780488968,-4.14634132385,1.0,0.0,0.0,0.0,1.0,0.0,0.0,0.0,1.0,-3.4189199707,-2.1691467041,-9.32302068013,1.0,0.0,0.0,0.0,1.0,0.0,0.0,0.0,1.0
1463488212834375716,522,1463488212832673795,,19.8185367584,-18.5184688568,-38.956993103,0.00999999977648,1.0,0.0,0.0,0.0,1.0,0.0,0.0,0.0,1.0,-1.52439022064,4.69512224197,-3.17073178291,1.0,0.0,0.0,0.0,1.0,0.0,0.0,0.0,1.0,-3.28484467773,-1.77649763184,-9.67736311035,1.0,0.0,0.0,0.0,1.0,0.0,0.0,0.0,1.0
1463488212845329066,523,1463488212842673398,,19.7109241486,-18.4715213776,-38.9176368713,0.0100050000474,1.0,0.0,0.0,0.0,1.0,0.0,0.0,0.0,1.0,-0.18292683363,2.92682933807,-1.76829278469,1.0,0.0,0.0,0.0,1.0,0.0,0.0,0.0,1.0,-3.53384165039,-1.74776721191,-9.95030209961,1.0,0.0,0.0,0.0,1.0,0.0,0.0,0.0,1.0
1463488212854939972,524,1463488212852672740,,19.6104602814,-18.4463424683,-38.8723297119,0.00999999977648,1.0,0.0,0.0,0.0,1.0,0.0,0.0,0.0,1.0,0.609756112099,1.52439022064,-0.609756112099,1.0,0.0,0.0,0.0,1.0,0.0,0.0,0.0,1.0,-3.51468803711,-1.69509477539,-9.66299848491,1.0,0.0,0.0,0.0,1.0,0.0,0.0,0.0,1.0
1463488212865004263,525,1463488212862672604,,19.545085907,-18.4213085175,-38.8407745361,0.00999699998647,1.0,0.0,0.0,0.0,1.0,0.0,0.0,0.0,1.0,2.92682933807,1.34146344662,-1.64634156227,1.0,0.0,0.0,0.0,1.0,0.0,0.0,0.0,1.0,-3.48595761719,-1.78607443848,-9.45230756977,1.0,0.0,0.0,0.0,1.0,0.0,0.0,0.0,1.0
1463488212875067876,526,1463488212872681477,,19.5054664612,-18.3835067749,-38.8244361877,0.00999699998647,1.0,0.0,0.0,0.0,1.0,0.0,0.0,0.0,1.0,4.39024400711,2.31707310677,-3.29268312454,1.0,0.0,0.0,0.0,1.0,0.0,0.0,0.0,1.0,-3.54820686035,-1.90578452148,-9.4954043687,1.0,0.0,0.0,0.0,1.0,0.0,0.0,0.0,1.0
1463488212884888156,527,1463488212882689726,,19.4795074463,-18.3280124664,-38.8234519958,0.0100060002878,1.0,0.0,0.0,0.0,1.0,0.0,0.0,0.0,1.0,4.75609779358,3.65853667259,-5.12195110321,1.0,0.0,0.0,0.0,1.0,0.0,0.0,0.0,1.0,-3.60087929687,-2.01591779785,-9.56723041851,1.0,0.0,0.0,0.0,1.0,0.0,0.0,0.0,1.0
1463488212894778697,528,1463488212892698183,,19.4613876343,-18.2675189972,-38.8344841003,0.0100010000169,1.0,0.0,0.0,0.0,1.0,0.0,0.0,0.0,1.0,4.93902444839,4.45121955872,-6.52439069748,1.0,0.0,0.0,0.0,1.0,0.0,0.0,0.0,1.0,-3.71580097656,-2.03985981445,-9.5193463853,1.0,0.0,0.0,0.0,1.0,0.0,0.0,0.0,1.0
1463488212905011112,529,1463488212902672682,,19.433221817,-18.1898937225,-38.847038269,0.00995399989188,1.0,0.0,0.0,0.0,1.0,0.0,0.0,0.0,1.0,4.39024400711,5.24390268326,-7.13414621353,1.0,0.0,0.0,0.0,1.0,0.0,0.0,0.0,1.0,-3.54820686035,-1.94888015137,-9.55286520855,1.0,0.0,0.0,0.0,1.0,0.0,0.0,0.0,1.0
1463488212914953111,530,1463488212912664681,,19.3997936249,-18.1027565002,-38.8589096069,0.0100330002606,1.0,0.0,0.0,0.0,1.0,0.0,0.0,0.0,1.0,4.2682929039,5.85365867615,-7.37804937363,1.0,0.0,0.0,0.0,1.0,0.0,0.0,0.0,1.0,-3.51468803711,-1.89620771484,-9.64863327495,1.0,0.0,0.0,0.0,1.0,0.0,0.0,0.0,1.0
1463488212924608809,531,1463488212922753919,,19.3755683899,-18.0073604584,-38.8714828491,0.010006999597,1.0,0.0,0.0,0.0,1.0,0.0,0.0,0.0,1.0,4.75609779358,6.09756088257,-7.37804937363,1.0,0.0,0.0,0.0,1.0,0.0,0.0,0.0,1.0,-3.3949779541,-1.98239897461,-9.67257470703,1.0,0.0,0.0,0.0,1.0,0.0,0.0,0.0,1.0
1463488212934925650,532,1463488212932677168,,19.3665390015,-17.9163627625,-38.8856620789,0.00999599974602,1.0,0.0,0.0,0.0,1.0,0.0,0.0,0.0,1.0,5.54878091812,5.48780488968,-7.07317113876,1.0,0.0,0.0,0.0,1.0,0.0,0.0,0.0,1.0,-3.26090266113,-2.06380183105,-9.43315395649,1.0,0.0,0.0,0.0,1.0,0.0,0.0,0.0,1.0
1463488212944832493,533,1463488212942667865,,19.3577423096,-17.8315162659,-38.8988227844,0.0100029995665,1.0,0.0,0.0,0.0,1.0,0.0,0.0,0.0,1.0,5.54878091812,4.14634132385,-6.46341466904,1.0,0.0,0.0,0.0,1.0,0.0,0.0,0.0,1.0,-3.13161577148,-2.11168571813,-9.57201882183,1.0,0.0,0.0,0.0,1.0,0.0,0.0,0.0,1.0
1463488212954996939,534,1463488212952758926,,19.3532085419,-17.7618198395,-38.9125404358,0.0100020002574,1.0,0.0,0.0,0.0,1.0,0.0,0.0,0.0,1.0,5.18292713165,3.90243911743,-6.15853643417,1.0,0.0,0.0,0.0,1.0,0.0,0.0,0.0,1.0,-3.22259543457,-2.16435844691,-9.18415756836,1.0,0.0,0.0,0.0,1.0,0.0,0.0,0.0,1.0
1463488212964828418,535,1463488212962657175,,19.318157196,-17.6960086823,-38.9170188904,0.00998899992555,1.0,0.0,0.0,0.0,1.0,0.0,0.0,0.0,1.0,4.14634132385,4.02439022064,-5.85365867615,1.0,0.0,0.0,0.0,1.0,0.0,0.0,0.0,1.0,-3.26569106445,-1.84353527832,-9.2416184082,1.0,0.0,0.0,0.0,1.0,0.0,0.0,0.0,1.0
1463488212974798281,536,1463488212972719382,,19.2773399353,-17.6138439178,-38.9164237976,0.0100100003183,1.0,0.0,0.0,0.0,1.0,0.0,0.0,0.0,1.0,3.90243911743,4.32926845551,-5.48780488968,1.0,0.0,0.0,0.0,1.0,0.0,0.0,0.0,1.0,-2.95444484863,-1.80043964844,-9.15542714844,1.0,0.0,0.0,0.0,1.0,0.0,0.0,0.0,1.0
1463488212984960384,537,1463488212982654922,,19.2538414001,-17.5350036621,-38.9217376709,0.00999400019646,1.0,0.0,0.0,0.0,1.0,0.0,0.0,0.0,1.0,5.06097555161,3.23170733452,-5.54878091812,1.0,0.0,0.0,0.0,1.0,0.0,0.0,0.0,1.0,-2.87783039551,-1.9105729248,-9.33738589009,1.0,0.0,0.0,0.0,1.0,0.0,0.0,0.0,1.0
1463488212994739519,538,1463488212992646140,,19.2497558594,-17.4772949219,-38.9424057007,0.00999999977648,1.0,0.0,0.0,0.0,1.0,0.0,0.0,0.0,1.0,5.60975599289,1.64634156227,-6.21951246262,1.0,0.0,0.0,0.0,1.0,0.0,0.0,0.0,1.0,-2.95923325195,-2.02549460449,-9.09796630859,1.0,0.0,0.0,0.0,1.0,0.0,0.0,0.0,1.0
1463488213004555528,539,1463488213002670691,,19.2556610107,-17.4467487335,-38.9855003357,0.0100020002574,1.0,0.0,0.0,0.0,1.0,0.0,0.0,0.0,1.0,6.09756088257,0.426829278469,-8.10975551605,1.0,0.0,0.0,0.0,1.0,0.0,0.0,0.0,1.0,-3.23696064453,-1.91536132812,-8.80108530273,1.0,0.0,0.0,0.0,1.0,0.0,0.0,0.0,1.0
1463488213015034036,540,1463488213012688992,,19.2716751099,-17.4047584534,-39.0409469604,0.00999899953604,1.0,0.0,0.0,0.0,1.0,0.0,0.0,0.0,1.0,6.58536624908,0.670731723309,-9.39024448395,1.0,0.0,0.0,0.0,1.0,0.0,0.0,0.0,1.0,-3.27047946777,-2.02549460449,-9.1458503418,1.0,0.0,0.0,0.0,1.0,0.0,0.0,0.0,1.0
1463488213024883744,541,1463488213022679324,,19.302482605,-17.3534755707,-39.0937652588,0.0100010000169,1.0,0.0,0.0,0.0,1.0,0.0,0.0,0.0,1.0,7.74390268326,0.609756112099,-8.96341514587,1.0,0.0,0.0,0.0,1.0,0.0,0.0,0.0,1.0,-3.05021291504,-2.10210891149,-9.10275471191,1.0,0.0,0.0,0.0,1.0,0.0,0.0,0.0,1.0
1463488213034543504,542,1463488213032661844,,19.346364975,-17.3081645966,-39.1393165588,0.0100010000169,1.0,0.0,0.0,0.0,1.0,0.0,0.0,0.0,1.0,7.25609779358,-0.0609756112099,-7.31707334518,1.0,0.0,0.0,0.0,1.0,0.0,0.0,0.0,1.0,-2.96881005859,-2.48518132324,-9.07881269531,1.0,0.0,0.0,0.0,1.0,0.0,0.0,0.0,1.0
1463488213044739148,543,1463488213042683530,,19.3810768127,-17.2711772919,-39.1872406006,0.0100050000474,1.0,0.0,0.0,0.0,1.0,0.0,0.0,0.0,1.0,3.84146332741,-0.18292683363,-6.70731735229,1.0,0.0,0.0,0.0,1.0,0.0,0.0,0.0,1.0,-3.01190568848,-2.86825358887,-8.80108530273,1.0,0.0,0.0,0.0,1.0,0.0,0.0,0.0,1.0
1463488213054329065,544,1463488213052659956,,19.3737792969,-17.2433853149,-39.2354240417,0.00999800022691,1.0,0.0,0.0,0.0,1.0,0.0,0.0,0.0,1.0,-0.18292683363,0.243902444839,-6.95121955872,1.0,0.0,0.0,0.0,1.0,0.0,0.0,0.0,1.0,-3.23217224121,-2.81558115234,-8.73404765625,1.0,0.0,0.0,0.0,1.0,0.0,0.0,0.0,1.0
1463488213064462886,545,1463488213062729454,,19.3264808655,-17.210313797,-39.2864532471,0.0100010000169,1.0,0.0,0.0,0.0,1.0,0.0,0.0,0.0,1.0,-2.98780488968,0.304878056049,-7.68292665482,1.0,0.0,0.0,0.0,1.0,0.0,0.0,0.0,1.0,-3.16513459473,-2.58094938965,-8.75320126953,1.0,0.0,0.0,0.0,1.0,0.0,0.0,0.0,1.0
1463488213074782540,546,1463488213072674682,,19.2382278442,-17.1965999603,-39.3514099121,0.00999999977648,1.0,0.0,0.0,0.0,1.0,0.0,0.0,0.0,1.0,-3.7804877758,-2.5,-9.32926845551,1.0,0.0,0.0,0.0,1.0,0.0,0.0,0.0,1.0,-3.15555778809,-1.95845695801,-9.05008227539,1.0,0.0,0.0,0.0,1.0,0.0,0.0,0.0,1.0
1463488213084540425,547,1463488213082664494,,19.1471061707,-17.1886367798,-39.4194831848,0.0099950004369,1.0,0.0,0.0,0.0,1.0,0.0,0.0,0.0,1.0,-1.76829278469,-4.08536577225,-9.87804889679,1.0,0.0,0.0,0.0,1.0,0.0,0.0,0.0,1.0,-3.0885201416,-1.57059628906,-9.41400034321,1.0,0.0,0.0,0.0,1.0,0.0,0.0,0.0,1.0
1463488213094826486,548,1463488213092711076,,19.0777759552,-17.199010849,-39.4882850647,0.0100060002878,1.0,0.0,0.0,0.0,1.0,0.0,0.0,0.0,1.0,0.0609756112099,-5.0,-9.51219558716,1.0,0.0,0.0,0.0,1.0,0.0,0.0,0.0,1.0,-3.27047946777,-1.62326872559,-9.47624958638,1.0,0.0,0.0,0.0,1.0,0.0,0.0,0.0,1.0
1463488213104468954,549,1463488213102685314,,19.0278186798,-17.2029418945,-39.5471992493,0.0100020002574,1.0,0.0,0.0,0.0,1.0,0.0,0.0,0.0,1.0,2.5,-4.08536577225,-8.90243911743,1.0,0.0,0.0,0.0,1.0,0.0,0.0,0.0,1.0,-3.30878669434,-1.58974990234,-9.59117243511,1.0,0.0,0.0,0.0,1.0,0.0,0.0,0.0,1.0
1463488213114921733,550,1463488213112665230,,19.0146694183,-17.2138233185,-39.6092224121,0.00999100040644,1.0,0.0,0.0,0.0,1.0,0.0,0.0,0.0,1.0,4.63414621353,-4.51219558716,-8.59756088257,1.0,0.0,0.0,0.0,1.0,0.0,0.0,0.0,1.0,-3.37582434082,-1.8626888916,-9.59117243511,1.0,0.0,0.0,0.0,1.0,0.0,0.0,0.0,1.0
1463488213124911440,551,1463488213122704103,,19.0336990356,-17.2277240753,-39.6660461426,0.0100039998069,1.0,0.0,0.0,0.0,1.0,0.0,0.0,0.0,1.0,5.73170757294,-4.14634132385,-7.43902492523,1.0,0.0,0.0,0.0,1.0,0.0,0.0,0.0,1.0,-3.4428619873,-2.28406838379,-9.49061596538,1.0,0.0,0.0,0.0,1.0,0.0,0.0,0.0,1.0
1463488213134888595,552,1463488213132665373,,19.0288352966,-17.2446537018,-39.7041091919,0.00999800022691,1.0,0.0,0.0,0.0,1.0,0.0,0.0,0.0,1.0,4.75609779358,-4.08536577225,-5.85365867615,1.0,0.0,0.0,0.0,1.0,0.0,0.0,0.0,1.0,-3.43807358398,-2.14520483363,-9.60553764507,1.0,0.0,0.0,0.0,1.0,0.0,0.0,0.0,1.0
1463488213144993666,553,1463488213142690184,,19.0139579773,-17.2524490356,-39.7164421082,0.0100029995665,1.0,0.0,0.0,0.0,1.0,0.0,0.0,0.0,1.0,4.81707286835,-2.31707310677,-3.96341490746,1.0,0.0,0.0,0.0,1.0,0.0,0.0,0.0,1.0,-3.51468803711,-2.11647412145,-9.75397756348,1.0,0.0,0.0,0.0,1.0,0.0,0.0,0.0,1.0
1463488213155249987,554,1463488213152710100,,19.0003128052,-17.2565555573,-39.6988334656,0.0100039998069,1.0,0.0,0.0,0.0,1.0,0.0,0.0,0.0,1.0,4.20731735229,-0.487804889679,-1.03658533096,1.0,0.0,0.0,0.0,1.0,0.0,0.0,0.0,1.0,-3.61524450684,-2.4277204834,-9.70609353027,1.0,0.0,0.0,0.0,1.0,0.0,0.0,0.0,1.0
1463488213164997039,555,1463488213162667776,,18.9595241547,-17.2544879913,-39.6562271118,0.00999699998647,1.0,0.0,0.0,0.0,1.0,0.0,0.0,0.0,1.0,1.8292683363,1.03658533096,1.09756100178,1.0,0.0,0.0,0.0,1.0,0.0,0.0,0.0,1.0,-3.59130249023,-2.46602770996,-9.54807680523,1.0,0.0,0.0,0.0,1.0,0.0,0.0,0.0,1.0
1463488213175017944,556,1463488213172659150,,18.8945159912,-17.2435379028,-39.5932884216,0.00999599974602,1.0,0.0,0.0,0.0,1.0,0.0,0.0,0.0,1.0,0.12195122242,1.95121955872,2.80487799644,1.0,0.0,0.0,0.0,1.0,0.0,0.0,0.0,1.0,-3.43807358398,-2.41335541957,-9.44751916645,1.0,0.0,0.0,0.0,1.0,0.0,0.0,0.0,1.0
1463488213184912704,557,1463488213182689534,,18.7968215942,-17.2219257355,-39.5160980225,0.0100100003183,1.0,0.0,0.0,0.0,1.0,0.0,0.0,0.0,1.0,-1.40243899822,2.56097555161,3.59756112099,1.0,0.0,0.0,0.0,1.0,0.0,0.0,0.0,1.0,-3.26090266113,-2.14520483363,-9.43315395649,1.0,0.0,0.0,0.0,1.0,0.0,0.0,0.0,1.0
1463488213196582353,558,1463488213193656946,,18.6878051758,-17.2006816864,-39.4327011108,0.0100050000474,1.0,0.0,0.0,0.0,1.0,0.0,0.0,0.0,1.0,-1.09756100178,2.5,3.84146332741,1.0,0.0,0.0,0.0,1.0,0.0,0.0,0.0,1.0,-3.22259543457,-1.89141931152,-9.46188437642,1.0,0.0,0.0,0.0,1.0,0.0,0.0,0.0,1.0
1463488213204525296,559,1463488213202772437,,18.5491847992,-17.1873779297,-39.3422660828,0.0100010000169,1.0,0.0,0.0,0.0,1.0,0.0,0.0,0.0,1.0,-2.31707310677,1.52439022064,4.39024400711,1.0,0.0,0.0,0.0,1.0,0.0,0.0,0.0,1.0,-3.16034619141,-1.59453830566,-9.54807680523,1.0,0.0,0.0,0.0,1.0,0.0,0.0,0.0,1.0
1463488213215404219,560,1463488213212716468,,18.4479045868,-17.1914558411,-39.2716712952,0.00999899953604,1.0,0.0,0.0,0.0,1.0,0.0,0.0,0.0,1.0,-1.64634156227,0.731707334518,3.47560977936,1.0,0.0,0.0,0.0,1.0,0.0,0.0,0.0,1.0,-3.27526787109,-1.93451494141,-9.05487067871,1.0,0.0,0.0,0.0,1.0,0.0,0.0,0.0,1.0
1463488213225724082,561,1463488213222836487,,18.340637207,-17.1791343689,-39.2113952637,0.0100360000506,1.0,0.0,0.0,0.0,1.0,0.0,0.0,0.0,1.0,-1.64634156227,1.09756100178,2.01219511032,1.0,0.0,0.0,0.0,1.0,0.0,0.0,0.0,1.0,-3.12682736816,-1.77170922852,-9.10754311523,1.0,0.0,0.0,0.0,1.0,0.0,0.0,0.0,1.0
1463488213234479522,562,1463488213232703226,,18.2333564758,-17.1624526978,-39.1552581787,0.00995699968189,1.0,0.0,0.0,0.0,1.0,0.0,0.0,0.0,1.0,-1.34146344662,1.15853655338,1.46341466904,1.0,0.0,0.0,0.0,1.0,0.0,0.0,0.0,1.0,-3.064578125,-1.65678754883,-9.07402429199,1.0,0.0,0.0,0.0,1.0,0.0,0.0,0.0,1.0
1463488213244543708,563,1463488213242754599,,18.143245697,-17.1562309265,-39.0986557007,0.0100109996274,1.0,0.0,0.0,0.0,1.0,0.0,0.0,0.0,1.0,-0.731707334518,0.731707334518,2.01219511032,1.0,0.0,0.0,0.0,1.0,0.0,0.0,0.0,1.0,-3.13161577148,-1.82917006836,-8.96389101563,1.0,0.0,0.0,0.0,1.0,0.0,0.0,0.0,1.0
1463488213257250542,564,1463488213254914456,,18.0515060425,-17.1427841187,-39.0345306396,0.00997999962419,1.0,0.0,0.0,0.0,1.0,0.0,0.0,0.0,1.0,-0.853658556938,0.853658556938,2.80487799644,1.0,0.0,0.0,0.0,1.0,0.0,0.0,0.0,1.0,-3.00232888184,-1.8626888916,-9.03092866211,1.0,0.0,0.0,0.0,1.0,0.0,0.0,0.0,1.0
1463488213266868948,565,1463488213264367289,,17.9593811035,-17.1381702423,-38.9682235718,0.0100400000811,1.0,0.0,0.0,0.0,1.0,0.0,0.0,0.0,1.0,-0.243902444839,-0.426829278469,3.23170733452,1.0,0.0,0.0,0.0,1.0,0.0,0.0,0.0,1.0,-2.94965644531,-1.77649763184,-9.16021555176,1.0,0.0,0.0,0.0,1.0,0.0,0.0,0.0,1.0
1463488213276039231,566,1463488213273926842,,17.9170818329,-17.1657924652,-38.9133605957,0.00996099971235,1.0,0.0,0.0,0.0,1.0,0.0,0.0,0.0,1.0,1.8292683363,-1.46341466904,3.29268312454,1.0,0.0,0.0,0.0,1.0,0.0,0.0,0.0,1.0,-3.42370837402,-2.23618435059,-9.20331118164,1.0,0.0,0.0,0.0,1.0,0.0,0.0,0.0,1.0
1463488213286118000,567,1463488213284158423,,17.8636894226,-17.1886348724,-38.8374481201,0.0100039998069,1.0,0.0,0.0,0.0,1.0,0.0,0.0,0.0,1.0,0.853658556938,-0.731707334518,5.30487823486,1.0,0.0,0.0,0.0,1.0,0.0,0.0,0.0,1.0,-3.36145913086,-2.32716386754,-9.20331118164,1.0,0.0,0.0,0.0,1.0,0.0,0.0,0.0,1.0
1463488213295742761,568,1463488213293800319,,17.7834453583,-17.2106933594,-38.7432823181,0.0099950004369,1.0,0.0,0.0,0.0,1.0,0.0,0.0,0.0,1.0,-1.58536589146,-1.15853655338,7.37804937363,1.0,0.0,0.0,0.0,1.0,0.0,0.0,0.0,1.0,-3.18428820801,-2.39420180629,-9.2655604248,1.0,0.0,0.0,0.0,1.0,0.0,0.0,0.0,1.0
1463488213306233039,569,1463488213302998414,,17.6858329773,-17.2309474945,-38.6332702637,0.0100060002878,1.0,0.0,0.0,0.0,1.0,0.0,0.0,0.0,1.0,-3.47560977936,-0.548780500889,8.96341514587,1.0,0.0,0.0,0.0,1.0,0.0,0.0,0.0,1.0,-3.19386501465,-2.50912333984,-9.28950185688,1.0,0.0,0.0,0.0,1.0,0.0,0.0,0.0,1.0
1463488213316138007,570,1463488213312734685,,17.5610637665,-17.2568759918,-38.5135993958,0.0100170001388,1.0,0.0,0.0,0.0,1.0,0.0,0.0,0.0,1.0,-5.85365867615,-0.670731723309,9.93902492523,1.0,0.0,0.0,0.0,1.0,0.0,0.0,0.0,1.0,-3.17949980469,-2.44687409668,-9.15063874512,1.0,0.0,0.0,0.0,1.0,0.0,0.0,0.0,1.0
1463488213325765580,571,1463488213322682673,,17.4044303894,-17.2816123962,-38.398235321,0.00997500028461,1.0,0.0,0.0,0.0,1.0,0.0,0.0,0.0,1.0,-7.50000047684,-0.975609779358,9.08536529541,1.0,0.0,0.0,0.0,1.0,0.0,0.0,0.0,1.0,-2.98796367187,-2.00634099121,-8.73883605957,1.0,0.0,0.0,0.0,1.0,0.0,0.0,0.0,1.0
1463488213336003203,572,1463488213332698422,,17.2316112518,-17.3152885437,-38.2883796692,0.0100090000778,1.0,0.0,0.0,0.0,1.0,0.0,0.0,0.0,1.0,-7.74390268326,-2.5,8.47560977936,1.0,0.0,0.0,0.0,1.0,0.0,0.0,0.0,1.0,-2.93050283203,-1.73340200195,-8.82502731934,1.0,0.0,0.0,0.0,1.0,0.0,0.0,0.0,1.0
1463488213344498279,573,1463488213342750108,,17.0566864014,-17.3701324463,-38.1759033203,0.00998600013554,1.0,0.0,0.0,0.0,1.0,0.0,0.0,0.0,1.0,-7.01219511032,-3.17073178291,8.65853691101,1.0,0.0,0.0,0.0,1.0,0.0,0.0,0.0,1.0,-3.21780703125,-1.5562310791,-8.93994899902,1.0,0.0,0.0,0.0,1.0,0.0,0.0,0.0,1.0
1463488213354402883,574,1463488213352702732,,16.8860321045,-17.4285335541,-38.0636405945,0.0100090000778,1.0,0.0,0.0,0.0,1.0,0.0,0.0,0.0,1.0,-5.97560977936,-3.41463422775,8.47560977936,1.0,0.0,0.0,0.0,1.0,0.0,0.0,0.0,1.0,-3.39018955078,-1.4844050293,-9.32780908345,1.0,0.0,0.0,0.0,1.0,0.0,0.0,0.0,1.0
1463488213364333423,575,1463488213362676918,,16.7352600098,-17.4826869965,-37.9544906616,0.00999400019646,1.0,0.0,0.0,0.0,1.0,0.0,0.0,0.0,1.0,-4.81707286835,-3.65853667259,8.47560977936,1.0,0.0,0.0,0.0,1.0,0.0,0.0,0.0,1.0,-3.2992098877,-1.59932670898,-9.33738589009,1.0,0.0,0.0,0.0,1.0,0.0,0.0,0.0,1.0
1463488213374734588,576,1463488213372735115,,16.596113205,-17.5272197723,-37.853477478,0.0100079998374,1.0,0.0,0.0,0.0,1.0,0.0,0.0,0.0,1.0,-4.93902444839,-3.65853667259,7.98780536652,1.0,0.0,0.0,0.0,1.0,0.0,0.0,0.0,1.0,-3.16992299805,-1.77649763184,-9.31823227681,1.0,0.0,0.0,0.0,1.0,0.0,0.0,0.0,1.0
1463488213384364192,577,1463488213382706437,,16.4637966156,-17.561378479,-37.7585487366,0.00999599974602,1.0,0.0,0.0,0.0,1.0,0.0,0.0,0.0,1.0,-5.06097555161,-3.7804877758,7.62195110321,1.0,0.0,0.0,0.0,1.0,0.0,0.0,0.0,1.0,-3.00232888184,-1.87705410156,-9.33259748677,1.0,0.0,0.0,0.0,1.0,0.0,0.0,0.0,1.0
1463488213394443274,578,1463488213392705675,,16.3349876404,-17.6003341675,-37.6609916687,0.0100010000169,1.0,0.0,0.0,0.0,1.0,0.0,0.0,0.0,1.0,-5.67073154449,-3.84146332741,8.23170757294,1.0,0.0,0.0,0.0,1.0,0.0,0.0,0.0,1.0,-3.06936652832,-2.04943662109,-9.31823227681,1.0,0.0,0.0,0.0,1.0,0.0,0.0,0.0,1.0
1463488213404420168,579,1463488213402686372,,16.063457489,-17.7202892303,-37.4769554138,0.0100039998069,1.0,0.0,0.0,0.0,1.0,0.0,0.0,0.0,1.0,-4.45121955872,0.426829278469,11.2195119858,1.0,0.0,0.0,0.0,1.0,0.0,0.0,0.0,1.0,-6.60799658203,0.847547387695,-12.124237207,1.0,0.0,0.0,0.0,1.0,0.0,0.0,0.0,1.0
1463488213414319824,580,1463488213412679673,,15.9609241486,-17.7038002014,-37.3577041626,0.00999199971557,1.0,0.0,0.0,0.0,1.0,0.0,0.0,0.0,1.0,5.67073154449,5.36585378647,5.0,1.0,0.0,0.0,0.0,1.0,0.0,0.0,0.0,1.0,-3.87381828613,-0.435744702148,-9.63905646831,1.0,0.0,0.0,0.0,1.0,0.0,0.0,0.0,1.0
1463488213425691193,581,1463488213422712192,,15.9199771881,-17.6236953735,-37.3122940063,0.0100020002574,1.0,0.0,0.0,0.0,1.0,0.0,0.0,0.0,1.0,-1.2804877758,5.12195110321,1.40243899822,1.0,0.0,0.0,0.0,1.0,0.0,0.0,0.0,1.0,-2.94965644531,-2.56179577637,-9.52413478862,1.0,0.0,0.0,0.0,1.0,0.0,0.0,0.0,1.0
1463488213434451894,582,1463488213432722420,,15.9083738327,-17.5432987213,-37.2674179077,0.0100050000474,1.0,0.0,0.0,0.0,1.0,0.0,0.0,0.0,1.0,-5.30487823486,4.51219558716,3.84146332741,1.0,0.0,0.0,0.0,1.0,0.0,0.0,0.0,1.0,-2.73896669922,-3.89297189941,-9.32780908345,1.0,0.0,0.0,0.0,1.0,0.0,0.0,0.0,1.0
1463488213444410820,583,1463488213442714731,,15.8003349304,-17.5034809113,-37.1651000977,0.00999999977648,1.0,0.0,0.0,0.0,1.0,0.0,0.0,0.0,1.0,-6.58536624908,2.01219511032,8.04878044128,1.0,0.0,0.0,0.0,1.0,0.0,0.0,0.0,1.0,-2.66235224609,-2.50433493652,-9.13148513184,1.0,0.0,0.0,0.0,1.0,0.0,0.0,0.0,1.0
1463488213454397923,584,1463488213452699751,,15.6782312393,-17.5337409973,-37.0553436279,0.00999800022691,1.0,0.0,0.0,0.0,1.0,0.0,0.0,0.0,1.0,-4.81707286835,-1.64634156227,8.84146404266,1.0,0.0,0.0,0.0,1.0,0.0,0.0,0.0,1.0,-3.40455476074,-2.04464821777,-9.69651672363,1.0,0.0,0.0,0.0,1.0,0.0,0.0,0.0,1.0
1463488213464330807,585,1463488213462682792,,15.5848293304,-17.5465164185,-36.9428291321,0.00999800022691,1.0,0.0,0.0,0.0,1.0,0.0,0.0,0.0,1.0,-2.62195134163,0.853658556938,8.65853691101,1.0,0.0,0.0,0.0,1.0,0.0,0.0,0.0,1.0,-3.50511123047,-2.13562802699,-9.53371159526,1.0,0.0,0.0,0.0,1.0,0.0,0.0,0.0,1.0
1463488213474688065,586,1463488213472699895,,15.4590959549,-17.5846729279,-36.8272285461,0.00999999977648,1.0,0.0,0.0,0.0,1.0,0.0,0.0,0.0,1.0,-4.32926845551,-0.426829278469,8.84146404266,1.0,0.0,0.0,0.0,1.0,0.0,0.0,0.0,1.0,-3.64397492676,-1.7908628418,-9.31823227681,1.0,0.0,0.0,0.0,1.0,0.0,0.0,0.0,1.0
1463488213484656366,587,1463488213482716998,,15.3215026855,-17.6324920654,-36.7099685669,0.0100060002878,1.0,0.0,0.0,0.0,1.0,0.0,0.0,0.0,1.0,-5.79268312454,-1.46341466904,9.39024448395,1.0,0.0,0.0,0.0,1.0,0.0,0.0,0.0,1.0,-3.75410820312,-1.90099611816,-9.64863327495,1.0,0.0,0.0,0.0,1.0,0.0,0.0,0.0,1.0
1463488213494341179,588,1463488213492690819,,15.1897544861,-17.6601696014,-36.5802764893,0.0099950004369,1.0,0.0,0.0,0.0,1.0,0.0,0.0,0.0,1.0,-5.85365867615,-0.609756112099,10.7317075729,1.0,0.0,0.0,0.0,1.0,0.0,0.0,0.0,1.0,-3.36624753418,-2.01591779785,-9.32780908345,1.0,0.0,0.0,0.0,1.0,0.0,0.0,0.0,1.0
1463488213504392708,589,1463488213502759745,,15.0419883728,-17.6853427887,-36.4458694458,0.00999599974602,1.0,0.0,0.0,0.0,1.0,0.0,0.0,0.0,1.0,-7.56097555161,-0.853658556938,11.341463089,1.0,0.0,0.0,0.0,1.0,0.0,0.0,0.0,1.0,-3.28963308105,-2.06380183105,-9.41878874653,1.0,0.0,0.0,0.0,1.0,0.0,0.0,0.0,1.0
1463488213514404395,590,1463488213512703150,,14.8883228302,-17.726140976,-36.3013153076,0.0100029995665,1.0,0.0,0.0,0.0,1.0,0.0,0.0,0.0,1.0,-8.17073154449,-1.76829278469,12.6829271317,1.0,0.0,0.0,0.0,1.0,0.0,0.0,0.0,1.0,-3.30399829102,-2.06380183105,-9.2416184082,1.0,0.0,0.0,0.0,1.0,0.0,0.0,0.0,1.0
1463488213525628733,591,1463488213522710461,,14.7402763367,-17.7650814056,-36.1690368652,0.00999800022691,1.0,0.0,0.0,0.0,1.0,0.0,0.0,0.0,1.0,-7.19512224197,-2.5,11.4024391174,1.0,0.0,0.0,0.0,1.0,0.0,0.0,0.0,1.0,-3.20823022461,-1.89620771484,-9.27034882812,1.0,0.0,0.0,0.0,1.0,0.0,0.0,0.0,1.0
1463488213536357292,592,1463488213532690012,,14.5909748077,-17.8359336853,-36.0491676331,0.00999400019646,1.0,0.0,0.0,0.0,1.0,0.0,0.0,0.0,1.0,-6.7682929039,-4.20731735229,10.3048782349,1.0,0.0,0.0,0.0,1.0,0.0,0.0,0.0,1.0,-3.60087929687,-1.71424838867,-9.41400034321,1.0,0.0,0.0,0.0,1.0,0.0,0.0,0.0,1.0
1463488213547301684,593,1463488213542737844,,14.46159935,-17.8951511383,-35.9391365051,0.0100020002574,1.0,0.0,0.0,0.0,1.0,0.0,0.0,0.0,1.0,-4.14634132385,-4.51219558716,9.08536529541,1.0,0.0,0.0,0.0,1.0,0.0,0.0,0.0,1.0,-3.4189199707,-1.53707746582,-9.5193463853,1.0,0.0,0.0,0.0,1.0,0.0,0.0,0.0,1.0
1463488213556457383,594,1463488213552724010,,14.3576812744,-17.9701137543,-35.8423042297,0.0100010000169,1.0,0.0,0.0,0.0,1.0,0.0,0.0,0.0,1.0,-2.07317066193,-5.73170757294,8.10975551605,1.0,0.0,0.0,0.0,1.0,0.0,0.0,0.0,1.0,-3.4189199707,-1.46525141602,-9.15063874512,1.0,0.0,0.0,0.0,1.0,0.0,0.0,0.0,1.0
1463488213566413236,595,1463488213562695540,,14.2571878433,-18.0588302612,-35.7512741089,0.00999599974602,1.0,0.0,0.0,0.0,1.0,0.0,0.0,0.0,1.0,-1.34146344662,-7.80487823486,7.86585378647,1.0,0.0,0.0,0.0,1.0,0.0,0.0,0.0,1.0,-3.29442148437,-1.33596452637,-9.07881269531,1.0,0.0,0.0,0.0,1.0,0.0,0.0,0.0,1.0
1463488213576245184,596,1463488213572673945,,14.1895561218,-18.1616821289,-35.6689910889,0.0100020002574,1.0,0.0,0.0,0.0,1.0,0.0,0.0,0.0,1.0,0.975609779358,-9.14634132385,7.56097555161,1.0,0.0,0.0,0.0,1.0,0.0,0.0,0.0,1.0,-3.45722719727,-1.49398183594,-9.35175110005,1.0,0.0,0.0,0.0,1.0,0.0,0.0,0.0,1.0
1463488213586072860,597,1463488213582654538,,14.152970314,-18.2702960968,-35.6126899719,0.0099950004369,1.0,0.0,0.0,0.0,1.0,0.0,0.0,0.0,1.0,2.5,-8.59756088257,5.12195110321,1.0,0.0,0.0,0.0,1.0,0.0,0.0,0.0,1.0,-3.77805021973,-1.6041151123,-9.25119521484,1.0,0.0,0.0,0.0,1.0,0.0,0.0,0.0,1.0
1463488213596252827,598,1463488213592722995,,14.1289205551,-18.3609428406,-35.5711975098,0.0100020002574,1.0,0.0,0.0,0.0,1.0,0.0,0.0,0.0,1.0,4.08536577225,-7.98780536652,3.23170733452,1.0,0.0,0.0,0.0,1.0,0.0,0.0,0.0,1.0,-3.6056677002,-1.43652099609,-9.16021555176,1.0,0.0,0.0,0.0,1.0,0.0,0.0,0.0,1.0
1463488213606061493,599,1463488213602734733,,14.1093263626,-18.4462947845,-35.513999939,0.0100029995665,1.0,0.0,0.0,0.0,1.0,0.0,0.0,0.0,1.0,4.81707286835,-8.41463470459,4.93902444839,1.0,0.0,0.0,0.0,1.0,0.0,0.0,0.0,1.0,-3.41413156738,-1.49877023926,-9.27513723145,1.0,0.0,0.0,0.0,1.0,0.0,0.0,0.0,1.0
1463488213615902815,600,1463488213612656836,,14.0800256729,-18.541929245,-35.439704895,0.00999699998647,1.0,0.0,0.0,0.0,1.0,0.0,0.0,0.0,1.0,3.47560977936,-9.02439117432,7.07317113876,1.0,0.0,0.0,0.0,1.0,0.0,0.0,0.0,1.0,-3.42370837402,-1.66636435547,-9.25598361816,1.0,0.0,0.0,0.0,1.0,0.0,0.0,0.0,1.0
1463488213625924762,601,1463488213622745866,,14.0420455933,-18.6433582306,-35.354724884,0.010006999597,1.0,0.0,0.0,0.0,1.0,0.0,0.0,0.0,1.0,3.17073178291,-8.17073154449,7.80487823486,1.0,0.0,0.0,0.0,1.0,0.0,0.0,0.0,1.0,-3.60087929687,-1.58496149902,-9.08360109863,1.0,0.0,0.0,0.0,1.0,0.0,0.0,0.0,1.0
1463488213636091500,602,1463488213632699427,,14.0116853714,-18.7444477081,-35.2661705017,0.0100029995665,1.0,0.0,0.0,0.0,1.0,0.0,0.0,0.0,1.0,3.53658556938,-7.80487823486,8.23170757294,1.0,0.0,0.0,0.0,1.0,0.0,0.0,0.0,1.0,-3.69185895996,-1.68551796875,-9.13627353516,1.0,0.0,0.0,0.0,1.0,0.0,0.0,0.0,1.0
1463488213646021520,603,1463488213642677885,,13.9658546448,-18.8450584412,-35.1538848877,0.00999100040644,1.0,0.0,0.0,0.0,1.0,0.0,0.0,0.0,1.0,3.96341490746,-7.31707334518,10.0,1.0,0.0,0.0,0.0,1.0,0.0,0.0,0.0,1.0,-3.79241542969,-1.49398183594,-9.38526992329,1.0,0.0,0.0,0.0,1.0,0.0,0.0,0.0,1.0
1463488213656649193,604,1463488213652721967,,13.9363861084,-18.9218292236,-35.0497589111,0.0100020002574,1.0,0.0,0.0,0.0,1.0,0.0,0.0,0.0,1.0,4.87804889679,-6.0365858078,9.02439117432,1.0,0.0,0.0,0.0,1.0,0.0,0.0,0.0,1.0,-3.71580097656,-1.61369191895,-9.57201882183,1.0,0.0,0.0,0.0,1.0,0.0,0.0,0.0,1.0
1463488213666602182,605,1463488213662713965,,13.9181652069,-18.9951972961,-34.9483413696,0.0100029995665,1.0,0.0,0.0,0.0,1.0,0.0,0.0,0.0,1.0,3.7804877758,-5.79268312454,9.45121955872,1.0,0.0,0.0,0.0,1.0,0.0,0.0,0.0,1.0,-3.58172568359,-1.95366855469,-9.193734375,1.0,0.0,0.0,0.0,1.0,0.0,0.0,0.0,1.0
1463488213676710899,606,1463488213672670548,,13.8732070923,-19.0545730591,-34.8354263306,0.00999800022691,1.0,0.0,0.0,0.0,1.0,0.0,0.0,0.0,1.0,1.03658533096,-5.30487823486,10.6097564697,1.0,0.0,0.0,0.0,1.0,0.0,0.0,0.0,1.0,-3.36145913086,-2.03028300781,-9.15063874512,1.0,0.0,0.0,0.0,1.0,0.0,0.0,0.0,1.0
1463488213686047067,607,1463488213682716921,,13.8181552887,-19.1137733459,-34.710899353,0.0100010000169,1.0,0.0,0.0,0.0,1.0,0.0,0.0,0.0,1.0,-0.12195122242,-5.18292713165,11.8902444839,1.0,0.0,0.0,0.0,1.0,0.0,0.0,0.0,1.0,-3.36624753418,-2.14041643031,-9.21288798828,1.0,0.0,0.0,0.0,1.0,0.0,0.0,0.0,1.0
1463488213696148597,608,1463488213692998867,,13.7229137421,-19.1675891876,-34.5764694214,0.0099950004369,1.0,0.0,0.0,0.0,1.0,0.0,0.0,0.0,1.0,-2.19512200356,-4.63414621353,12.1341466904,1.0,0.0,0.0,0.0,1.0,0.0,0.0,0.0,1.0,-3.32794030762,-1.8148048584,-9.17458076172,1.0,0.0,0.0,0.0,1.0,0.0,0.0,0.0,1.0
1463488213706119606,609,1463488213702744669,,13.6056423187,-19.2290973663,-34.4349975586,0.0100060002878,1.0,0.0,0.0,0.0,1.0,0.0,0.0,0.0,1.0,-3.23170733452,-4.81707286835,12.5,1.0,0.0,0.0,0.0,1.0,0.0,0.0,0.0,1.0,-3.32794030762,-1.5801730957,-8.93037219238,1.0,0.0,0.0,0.0,1.0,0.0,0.0,0.0,1.0
1463488213716130303,610,1463488213712709012,,13.4549121857,-19.3169441223,-34.2856369019,0.00999599974602,1.0,0.0,0.0,0.0,1.0,0.0,0.0,0.0,1.0,-2.5,-6.64634132385,12.3170728683,1.0,0.0,0.0,0.0,1.0,0.0,0.0,0.0,1.0,-3.55299526367,-0.885854614258,-9.20331118164,1.0,0.0,0.0,0.0,1.0,0.0,0.0,0.0,1.0
1463488213725625845,611,1463488213722722000,,13.372964859,-19.4116420746,-34.1647262573,0.0100010000169,1.0,0.0,0.0,0.0,1.0,0.0,0.0,0.0,1.0,2.68292689323,-6.21951246262,9.69512176514,1.0,0.0,0.0,0.0,1.0,0.0,0.0,0.0,1.0,-3.94085593262,-1.00077629395,-9.27992563477,1.0,0.0,0.0,0.0,1.0,0.0,0.0,0.0,1.0
1463488213736030134,612,1463488213732684520,,13.331328392,-19.4741001129,-34.0580978394,0.00999999977648,1.0,0.0,0.0,0.0,1.0,0.0,0.0,0.0,1.0,6.28048801422,-3.96341490746,7.74390268326,1.0,0.0,0.0,0.0,1.0,0.0,0.0,0.0,1.0,-3.84987626953,-0.986411083984,-9.28471345356,1.0,0.0,0.0,0.0,1.0,0.0,0.0,0.0,1.0
1463488213746673901,613,1463488213742689695,,13.3080844879,-19.521730423,-33.9645462036,0.00999899953604,1.0,0.0,0.0,0.0,1.0,0.0,0.0,0.0,1.0,8.23170757294,-4.51219558716,6.40243911743,1.0,0.0,0.0,0.0,1.0,0.0,0.0,0.0,1.0,-3.52905324707,-0.890643017578,-9.28471345356,1.0,0.0,0.0,0.0,1.0,0.0,0.0,0.0,1.0
1463488213755958507,614,1463488213752744611,,13.3193025589,-19.5582027435,-33.8654212952,0.0100090000778,1.0,0.0,0.0,0.0,1.0,0.0,0.0,0.0,1.0,9.93902492523,-4.20731735229,7.56097555161,1.0,0.0,0.0,0.0,1.0,0.0,0.0,0.0,1.0,-3.46680400391,-1.2976572998,-9.56723041851,1.0,0.0,0.0,0.0,1.0,0.0,0.0,0.0,1.0
1463488213766035297,615,1463488213762688433,,13.3517837524,-19.5903186798,-33.7601623535,0.009990000166,1.0,0.0,0.0,0.0,1.0,0.0,0.0,0.0,1.0,8.96341514587,-3.17073178291,9.14634132385,1.0,0.0,0.0,0.0,1.0,0.0,0.0,0.0,1.0,-3.43328518066,-1.87705410156,-9.20331118164,1.0,0.0,0.0,0.0,1.0,0.0,0.0,0.0,1.0
1463488213776310732,616,1463488213773705324,,13.3626775742,-19.6183605194,-33.6396446228,0.0100379996002,1.0,0.0,0.0,0.0,1.0,0.0,0.0,0.0,1.0,6.52439069748,-3.17073178291,10.8536586761,1.0,0.0,0.0,0.0,1.0,0.0,0.0,0.0,1.0,-3.26569106445,-2.01112939453,-9.11233151855,1.0,0.0,0.0,0.0,1.0,0.0,0.0,0.0,1.0
1463488213785935857,617,1463488213783646021,,13.447385788,-19.7524089813,-33.6922607422,0.00996300019324,1.0,0.0,0.0,0.0,1.0,0.0,0.0,0.0,1.0,7.74390268326,-8.10975551605,-4.57317066193,1.0,0.0,0.0,0.0,1.0,0.0,0.0,0.0,1.0,-5.98550415039,-2.40856701625,-10.5680061279,1.0,0.0,0.0,0.0,1.0,0.0,0.0,0.0,1.0
1463488213795984470,618,1463488213793684686,,13.5337028503,-19.714471817,-33.6691703796,0.0100050000474,1.0,0.0,0.0,0.0,1.0,0.0,0.0,0.0,1.0,10.2439022064,-3.04878044128,1.64634156227,1.0,0.0,0.0,0.0,1.0,0.0,0.0,0.0,1.0,-2.3654710941,-2.00634099121,-8.55687731792,1.0,0.0,0.0,0.0,1.0,0.0,0.0,0.0,1.0
1463488213806910320,619,1463488213803717518,,13.5068626404,-19.7468662262,-33.5169715881,0.0100050000474,1.0,0.0,0.0,0.0,1.0,0.0,0.0,0.0,1.0,5.60975599289,-1.09756100178,12.8048782349,1.0,0.0,0.0,0.0,1.0,0.0,0.0,0.0,1.0,-3.65834013672,-1.71903679199,-9.18415756836,1.0,0.0,0.0,0.0,1.0,0.0,0.0,0.0,1.0
1463488213815818885,620,1463488213813645715,,13.4750242233,-19.800245285,-33.3868789673,0.009990000166,1.0,0.0,0.0,0.0,1.0,0.0,0.0,0.0,1.0,4.45121955872,-1.70731711388,10.7926826477,1.0,0.0,0.0,0.0,1.0,0.0,0.0,0.0,1.0,-4.06535441895,-1.69988317871,-9.22725319824,1.0,0.0,0.0,0.0,1.0,0.0,0.0,0.0,1.0
1463488213825612291,621,1463488213823586308,,13.4656505585,-19.797044754,-33.2656707764,0.00999699998647,1.0,0.0,0.0,0.0,1.0,0.0,0.0,0.0,1.0,6.89024400711,1.2804877758,9.02439117432,1.0,0.0,0.0,0.0,1.0,0.0,0.0,0.0,1.0,-3.77326181641,-1.68072956543,-9.63426806499,1.0,0.0,0.0,0.0,1.0,0.0,0.0,0.0,1.0
1463488213835886164,622,1463488213833705077,,13.4645471573,-19.7780609131,-33.1536750793,0.0100079998374,1.0,0.0,0.0,0.0,1.0,0.0,0.0,0.0,1.0,7.43902492523,1.2804877758,8.10975551605,1.0,0.0,0.0,0.0,1.0,0.0,0.0,0.0,1.0,-3.43328518066,-1.64242233887,-9.43794235981,1.0,0.0,0.0,0.0,1.0,0.0,0.0,0.0,1.0
1463488213845953527,623,1463488213843647441,,13.460565567,-19.7674922943,-33.037776947,0.00999999977648,1.0,0.0,0.0,0.0,1.0,0.0,0.0,0.0,1.0,7.19512224197,0.243902444839,8.78048801422,1.0,0.0,0.0,0.0,1.0,0.0,0.0,0.0,1.0,-3.29442148437,-1.62326872559,-9.22725319824,1.0,0.0,0.0,0.0,1.0,0.0,0.0,0.0,1.0
1463488213856640576,624,1463488213853591523,,13.4602031708,-19.8045444489,-32.9250640869,0.0100109996274,1.0,0.0,0.0,0.0,1.0,0.0,0.0,0.0,1.0,7.68292665482,-2.74390244484,9.08536529541,1.0,0.0,0.0,0.0,1.0,0.0,0.0,0.0,1.0,-3.60087929687,-1.56101948242,-9.1697923584,1.0,0.0,0.0,0.0,1.0,0.0,0.0,0.0,1.0
1463488213866843668,625,1463488213863960344,,13.4630470276,-19.8796443939,-32.8137245178,0.00998099986464,1.0,0.0,0.0,0.0,1.0,0.0,0.0,0.0,1.0,7.13414621353,-6.70731735229,10.2439022064,1.0,0.0,0.0,0.0,1.0,0.0,0.0,0.0,1.0,-3.52905324707,-1.70467158203,-9.07402429199,1.0,0.0,0.0,0.0,1.0,0.0,0.0,0.0,1.0
1463488213876857593,626,1463488213873848489,,13.4525518417,-19.8187427521,-32.6566238403,0.0100010000169,1.0,0.0,0.0,0.0,1.0,0.0,0.0,0.0,1.0,8.17073154449,10.6097564697,10.1829271317,1.0,0.0,0.0,0.0,1.0,0.0,0.0,0.0,1.0,-4.14675698313,-1.53707746582,-9.08360109863,1.0,0.0,0.0,0.0,1.0,0.0,0.0,0.0,1.0
1463488213886667509,627,1463488213883843144,,13.4434537888,-19.6808338165,-32.4720954895,0.0100060002878,1.0,0.0,0.0,0.0,1.0,0.0,0.0,0.0,1.0,10.7926826477,11.1585359573,12.1341466904,1.0,0.0,0.0,0.0,1.0,0.0,0.0,0.0,1.0,-2.92571442871,-1.38384855957,-9.82580361328,1.0,0.0,0.0,0.0,1.0,0.0,0.0,0.0,1.0
1463488213896263780,628,1463488213893803632,,13.4425983429,-19.6829338074,-32.3204727173,0.0099950004369,1.0,0.0,0.0,0.0,1.0,0.0,0.0,0.0,1.0,9.93902492523,0.12195122242,11.8292684555,1.0,0.0,0.0,0.0,1.0,0.0,0.0,0.0,1.0,-3.40455476074,-1.41257897949,-9.40921193989,1.0,0.0,0.0,0.0,1.0,0.0,0.0,0.0,1.0
1463488213906177654,629,1463488213903892297,,13.4669961929,-19.6793632507,-32.166809082,0.0100060002878,1.0,0.0,0.0,0.0,1.0,0.0,0.0,0.0,1.0,10.7317075729,0.853658556938,12.5,1.0,0.0,0.0,0.0,1.0,0.0,0.0,0.0,1.0,-3.39976635742,-1.74297880859,-9.32302068013,1.0,0.0,0.0,0.0,1.0,0.0,0.0,0.0,1.0
1463488213916243091,630,1463488213913784349,,13.4971094131,-19.7013988495,-32.0167350769,0.009990000166,1.0,0.0,0.0,0.0,1.0,0.0,0.0,0.0,1.0,10.9146347046,0.18292683363,12.4390249252,1.0,0.0,0.0,0.0,1.0,0.0,0.0,0.0,1.0,-3.73016618652,-1.77649763184,-9.22246479492,1.0,0.0,0.0,0.0,1.0,0.0,0.0,0.0,1.0
1463488213926948004,631,1463488213923850253,,13.5142555237,-19.7034053802,-31.8513240814,0.0100100003183,1.0,0.0,0.0,0.0,1.0,0.0,0.0,0.0,1.0,9.81707286835,2.13414645195,13.5365858078,1.0,0.0,0.0,0.0,1.0,0.0,0.0,0.0,1.0,-3.66312854004,-1.838746875,-9.20809958496,1.0,0.0,0.0,0.0,1.0,0.0,0.0,0.0,1.0
1463488213936291046,632,1463488213933925742,,13.508149147,-19.7097206116,-31.6714572906,0.0100020002574,1.0,0.0,0.0,0.0,1.0,0.0,0.0,0.0,1.0,7.80487823486,2.19512200356,15.0000009537,1.0,0.0,0.0,0.0,1.0,0.0,0.0,0.0,1.0,-3.67749375,-1.86747729492,-9.16500395508,1.0,0.0,0.0,0.0,1.0,0.0,0.0,0.0,1.0
1463488213946490597,633,1463488213943802012,,13.5014848709,-19.7343559265,-31.5023212433,0.00999400019646,1.0,0.0,0.0,0.0,1.0,0.0,0.0,0.0,1.0,6.28048801422,1.15853655338,14.6341466904,1.0,0.0,0.0,0.0,1.0,0.0,0.0,0.0,1.0,-3.87860668945,-2.08295529821,-9.17458076172,1.0,0.0,0.0,0.0,1.0,0.0,0.0,0.0,1.0
1463488213956556553,634,1463488213953808854,,13.4849853516,-19.7485542297,-31.3557529449,0.0100020002574,1.0,0.0,0.0,0.0,1.0,0.0,0.0,0.0,1.0,4.81707286835,1.46341466904,12.2560977936,1.0,0.0,0.0,0.0,1.0,0.0,0.0,0.0,1.0,-3.82114584961,-2.01591779785,-9.12669672852,1.0,0.0,0.0,0.0,1.0,0.0,0.0,0.0,1.0
1463488213966598083,635,1463488213963864915,,13.480137825,-19.7465591431,-31.2403049469,0.00999599974602,1.0,0.0,0.0,0.0,1.0,0.0,0.0,0.0,1.0,4.14634132385,3.10975623131,9.14634132385,1.0,0.0,0.0,0.0,1.0,0.0,0.0,0.0,1.0,-4.01747038574,-2.18830031738,-9.22246479492,1.0,0.0,0.0,0.0,1.0,0.0,0.0,0.0,1.0
1463488213976962008,636,1463488213973816810,,13.4453792572,-19.7384567261,-31.1287460327,0.010006999597,1.0,0.0,0.0,0.0,1.0,0.0,0.0,0.0,1.0,2.80487799644,4.81707286835,7.68292665482,1.0,0.0,0.0,0.0,1.0,0.0,0.0,0.0,1.0,-4.21858303293,-1.8148048584,-9.13627353516,1.0,0.0,0.0,0.0,1.0,0.0,0.0,0.0,1.0
1463488213994157004,637,1463488213983827142,,13.3950948715,-19.7036056519,-31.0239086151,0.00999699998647,1.0,0.0,0.0,0.0,1.0,0.0,0.0,0.0,1.0,1.40243899822,5.91463422775,6.64634132385,1.0,0.0,0.0,0.0,1.0,0.0,0.0,0.0,1.0,-4.02704719238,-1.77649763184,-9.33259748677,1.0,0.0,0.0,0.0,1.0,0.0,0.0,0.0,1.0
1463488213996823037,638,1463488213994083880,,13.3355083466,-19.6606864929,-30.9262256622,0.0100109996274,1.0,0.0,0.0,0.0,1.0,0.0,0.0,0.0,1.0,0.670731723309,6.40243911743,5.67073154449,1.0,0.0,0.0,0.0,1.0,0.0,0.0,0.0,1.0,-4.00310517578,-1.68551796875,-9.35653950337,1.0,0.0,0.0,0.0,1.0,0.0,0.0,0.0,1.0
1463488214006338059,639,1463488214004011399,,13.2544107437,-19.5908432007,-30.8313865662,0.00998600013554,1.0,0.0,0.0,0.0,1.0,0.0,0.0,0.0,1.0,-0.426829278469,5.91463422775,5.12195110321,1.0,0.0,0.0,0.0,1.0,0.0,0.0,0.0,1.0,-3.47159240723,-1.49877023926,-9.58638403179,1.0,0.0,0.0,0.0,1.0,0.0,0.0,0.0,1.0
1463488214016289433,640,1463488214013750535,,13.1524934769,-19.5518493652,-30.7476329803,0.0100010000169,1.0,0.0,0.0,0.0,1.0,0.0,0.0,0.0,1.0,-2.13414645195,3.04878044128,4.45121955872,1.0,0.0,0.0,0.0,1.0,0.0,0.0,0.0,1.0,-3.42370837402,-1.29286889648,-9.27992563477,1.0,0.0,0.0,0.0,1.0,0.0,0.0,0.0,1.0
1463488214026968408,641,1463488214023838262,,13.0321931839,-19.5307769775,-30.6576099396,0.0100020002574,1.0,0.0,0.0,0.0,1.0,0.0,0.0,0.0,1.0,-2.25609779358,2.01219511032,4.75609779358,1.0,0.0,0.0,0.0,1.0,0.0,0.0,0.0,1.0,-3.56257207031,-0.995987890625,-9.37090471333,1.0,0.0,0.0,0.0,1.0,0.0,0.0,0.0,1.0
1463488214036976084,642,1463488214033880938,,12.9251203537,-19.5323886871,-30.5678920746,0.00999899953604,1.0,0.0,0.0,0.0,1.0,0.0,0.0,0.0,1.0,-1.03658533096,0.487804889679,5.12195110321,1.0,0.0,0.0,0.0,1.0,0.0,0.0,0.0,1.0,-3.67270534668,-0.981622680664,-9.31344387349,1.0,0.0,0.0,0.0,1.0,0.0,0.0,0.0,1.0
1463488214046580011,643,1463488214043873406,,12.8435115814,-19.5301132202,-30.4895553589,0.0100010000169,1.0,0.0,0.0,0.0,1.0,0.0,0.0,0.0,1.0,-0.365853667259,-0.304878056049,4.75609779358,1.0,0.0,0.0,0.0,1.0,0.0,0.0,0.0,1.0,-3.58172568359,-1.28808049316,-9.54807680523,1.0,0.0,0.0,0.0,1.0,0.0,0.0,0.0,1.0
1463488214056421229,644,1463488214053844050,,12.7655248642,-19.5467185974,-30.438325882,0.0100220004097,1.0,0.0,0.0,0.0,1.0,0.0,0.0,0.0,1.0,-1.2195122242,-2.5,2.74390244484,1.0,0.0,0.0,0.0,1.0,0.0,0.0,0.0,1.0,-3.63918652344,-1.34075292969,-9.58638403179,1.0,0.0,0.0,0.0,1.0,0.0,0.0,0.0,1.0
1463488214066634477,645,1463488214063781883,,12.6946706772,-19.5728797913,-30.4207630157,0.00997199956328,1.0,0.0,0.0,0.0,1.0,0.0,0.0,0.0,1.0,-1.70731711388,-5.42682933807,0.18292683363,1.0,0.0,0.0,0.0,1.0,0.0,0.0,0.0,1.0,-3.38540114746,-1.34075292969,-9.57680722515,1.0,0.0,0.0,0.0,1.0,0.0,0.0,0.0,1.0
1463488214076624185,646,1463488214073766225,,12.6491613388,-19.6239471436,-30.4227294922,0.0100050000474,1.0,0.0,0.0,0.0,1.0,0.0,0.0,0.0,1.0,0.12195122242,-8.04878044128,-1.09756100178,1.0,0.0,0.0,0.0,1.0,0.0,0.0,0.0,1.0,-3.51468803711,-1.37427175293,-9.81143840332,1.0,0.0,0.0,0.0,1.0,0.0,0.0,0.0,1.0
1463488214086656131,647,1463488214083839317,,12.6279020309,-19.6923923492,-30.4476127625,0.0100029995665,1.0,0.0,0.0,0.0,1.0,0.0,0.0,0.0,1.0,1.8902438879,-10.2439022064,-2.86585378647,1.0,0.0,0.0,0.0,1.0,0.0,0.0,0.0,1.0,-3.45243879395,-1.31681091309,-9.62469125835,1.0,0.0,0.0,0.0,1.0,0.0,0.0,0.0,1.0
1463488214096325631,648,1463488214093845118,,12.6293745041,-19.7505435944,-30.4818916321,0.0100010000169,1.0,0.0,0.0,0.0,1.0,0.0,0.0,0.0,1.0,1.8902438879,-10.548781395,-2.98780488968,1.0,0.0,0.0,0.0,1.0,0.0,0.0,0.0,1.0,-3.21780703125,-1.68551796875,-9.5432884019,1.0,0.0,0.0,0.0,1.0,0.0,0.0,0.0,1.0
1463488214106509817,649,1463488214103984252,,12.6295862198,-19.8184089661,-30.5219974518,0.0100050000474,1.0,0.0,0.0,0.0,1.0,0.0,0.0,0.0,1.0,1.52439022064,-12.4390249252,-3.10975623131,1.0,0.0,0.0,0.0,1.0,0.0,0.0,0.0,1.0,-3.1124621582,-1.71903679199,-9.67736311035,1.0,0.0,0.0,0.0,1.0,0.0,0.0,0.0,1.0
1463488214116521555,650,1463488214114002709,,12.6313810349,-19.9142150879,-30.568983078,0.00999999977648,1.0,0.0,0.0,0.0,1.0,0.0,0.0,0.0,1.0,2.01219511032,-15.0000009537,-3.41463422775,1.0,0.0,0.0,0.0,1.0,0.0,0.0,0.0,1.0,-3.21301862793,-1.61848032227,-9.75397756348,1.0,0.0,0.0,0.0,1.0,0.0,0.0,0.0,1.0
1463488214126950584,651,1463488214123805802,,12.6485443115,-20.0473423004,-30.6555404663,0.00999299995601,1.0,0.0,0.0,0.0,1.0,0.0,0.0,0.0,1.0,4.57317066193,-19.1463432312,-7.19512224197,1.0,0.0,0.0,0.0,1.0,0.0,0.0,0.0,1.0,-3.27047946777,-1.13485158691,-9.67257470703,1.0,0.0,0.0,0.0,1.0,0.0,0.0,0.0,1.0
1463488214136493417,652,1463488214133825197,,12.6625537872,-20.2172603607,-30.7014789581,0.00999999977648,1.0,0.0,0.0,0.0,1.0,0.0,0.0,0.0,1.0,5.12195110321,-19.8780498505,-2.92682933807,1.0,0.0,0.0,0.0,1.0,0.0,0.0,0.0,1.0,-3.75410820312,-1.24498486328,-9.82580361328,1.0,0.0,0.0,0.0,1.0,0.0,0.0,0.0,1.0
1463488214146653593,653,1463488214144002299,,12.7718133926,-20.3844814301,-30.7601985931,0.00999800022691,1.0,0.0,0.0,0.0,1.0,0.0,0.0,0.0,1.0,9.81707286835,-22.5,-1.8902438879,1.0,0.0,0.0,0.0,1.0,0.0,0.0,0.0,1.0,-3.14598098145,-2.06859023437,-9.4954043687,1.0,0.0,0.0,0.0,1.0,0.0,0.0,0.0,1.0
1463488214156079500,654,1463488214153821590,,12.8550405502,-20.5686645508,-30.812669754,0.00999999977648,1.0,0.0,0.0,0.0,1.0,0.0,0.0,0.0,1.0,8.29268264771,-23.0487823486,-1.46341466904,1.0,0.0,0.0,0.0,1.0,0.0,0.0,0.0,1.0,-3.43328518066,-1.94888015137,-9.67257470703,1.0,0.0,0.0,0.0,1.0,0.0,0.0,0.0,1.0
1463488214166394206,655,1463488214163830464,,12.9140644073,-20.7840194702,-30.8748512268,0.00999899953604,1.0,0.0,0.0,0.0,1.0,0.0,0.0,0.0,1.0,9.08536529541,-25.6097564697,-3.17073178291,1.0,0.0,0.0,0.0,1.0,0.0,0.0,0.0,1.0,-3.53863005371,-1.22104284668,-9.48103915874,1.0,0.0,0.0,0.0,1.0,0.0,0.0,0.0,1.0
1463488214176982244,656,1463488214173816369,,13.0323991776,-21.0060157776,-30.9491977692,0.0100060002878,1.0,0.0,0.0,0.0,1.0,0.0,0.0,0.0,1.0,10.1219511032,-25.9146347046,-2.5,1.0,0.0,0.0,0.0,1.0,0.0,0.0,0.0,1.0,-3.66791694336,-2.08774370153,-9.40921193989,1.0,0.0,0.0,0.0,1.0,0.0,0.0,0.0,1.0
1463488214186428985,657,1463488214183789566,,13.1244497299,-21.2678127289,-31.0207309723,0.00999299995601,1.0,0.0,0.0,0.0,1.0,0.0,0.0,0.0,1.0,9.87804889679,-27.9878063202,-2.62195134163,1.0,0.0,0.0,0.0,1.0,0.0,0.0,0.0,1.0,-3.97437475586,-1.6041151123,-9.18415756836,1.0,0.0,0.0,0.0,1.0,0.0,0.0,0.0,1.0
1463488214197910458,658,1463488214194583437,,13.2206268311,-21.5481815338,-31.0772895813,0.0100159998983,1.0,0.0,0.0,0.0,1.0,0.0,0.0,0.0,1.0,9.5731716156,-29.4512195587,-0.304878056049,1.0,0.0,0.0,0.0,1.0,0.0,0.0,0.0,1.0,-4.01268198242,-1.85311208496,-9.16500395508,1.0,0.0,0.0,0.0,1.0,0.0,0.0,0.0,1.0
1463488214207000897,659,1463488214204362885,,13.3074502945,-21.8953495026,-31.1211833954,0.0112659996375,1.0,0.0,0.0,0.0,1.0,0.0,0.0,0.0,1.0,10.9146347046,-29.8170719147,0.426829278469,1.0,0.0,0.0,0.0,1.0,0.0,0.0,0.0,1.0,-4.28562126394,-1.28329208984,-8.77714328613,1.0,0.0,0.0,0.0,1.0,0.0,0.0,0.0,1.0
1463488214215958316,660,1463488214214063166,,13.4018945694,-22.1999053955,-31.1422576904,0.00993499998003,1.0,0.0,0.0,0.0,1.0,0.0,0.0,0.0,1.0,11.2195119858,-29.6341457367,2.98780488968,1.0,0.0,0.0,0.0,1.0,0.0,0.0,0.0,1.0,-4.34308181152,-1.72861359863,-8.89206496582,1.0,0.0,0.0,0.0,1.0,0.0,0.0,0.0,1.0
1463488214226757552,661,1463488214224110425,,13.4850330353,-22.5102748871,-31.1629371643,0.0101100001484,1.0,0.0,0.0,0.0,1.0,0.0,0.0,0.0,1.0,12.0121955872,-29.5121974945,2.19512200356,1.0,0.0,0.0,0.0,1.0,0.0,0.0,0.0,1.0,-4.44842668457,-1.34554133301,-8.93037219238,1.0,0.0,0.0,0.0,1.0,0.0,0.0,0.0,1.0
1463488214236706217,662,1463488214234129194,,13.5809793472,-22.8615436554,-31.1465320587,0.0099419998005,1.0,0.0,0.0,0.0,1.0,0.0,0.0,0.0,1.0,13.9634151459,-26.9512195587,5.48780488968,1.0,0.0,0.0,0.0,1.0,0.0,0.0,0.0,1.0,-5.73171877441,-1.45088620605,-8.69574042969,1.0,0.0,0.0,0.0,1.0,0.0,0.0,0.0,1.0
1463488214247474516,663,1463488214244231922,,13.6758317947,-22.9178314209,-31.0793323517,0.0100100003183,1.0,0.0,0.0,0.0,1.0,0.0,0.0,0.0,1.0,17.0731716156,-4.14634132385,4.20731735229,1.0,0.0,0.0,0.0,1.0,0.0,0.0,0.0,1.0,-4.37181223145,-1.28808049316,-8.89685336914,1.0,0.0,0.0,0.0,1.0,0.0,0.0,0.0,1.0
1463488214258428022,664,1463488214253749599,,13.8156270981,-23.0353145599,-31.0099010468,0.00979099981487,1.0,0.0,0.0,0.0,1.0,0.0,0.0,0.0,1.0,21.6463432312,-14.9390249252,7.37804937363,1.0,0.0,0.0,0.0,1.0,0.0,0.0,0.0,1.0,-3.30878669434,-1.34075292969,-8.47068488911,1.0,0.0,0.0,0.0,1.0,0.0,0.0,0.0,1.0
1463488214266946692,665,1463488214264165816,,13.9571857452,-23.2711639404,-30.947177887,0.0104019995779,1.0,0.0,0.0,0.0,1.0,0.0,0.0,0.0,1.0,19.0853652954,-21.7073173523,8.71951198578,1.0,0.0,0.0,0.0,1.0,0.0,0.0,0.0,1.0,-4.17548740305,-1.67115275879,-8.76277807617,1.0,0.0,0.0,0.0,1.0,0.0,0.0,0.0,1.0
1463488214277327023,666,1463488214274271929,,14.0822820663,-23.4777565002,-30.8580245972,0.00992599967867,1.0,0.0,0.0,0.0,1.0,0.0,0.0,0.0,1.0,18.5975627899,-20.1829280853,11.4634151459,1.0,0.0,0.0,0.0,1.0,0.0,0.0,0.0,1.0,-4.06056601562,-1.838746875,-8.82023891602,1.0,0.0,0.0,0.0,1.0,0.0,0.0,0.0,1.0
1463488214288144175,667,1463488214284185021,,14.2079944611,-23.7005176544,-30.7625598907,0.0100239999592,1.0,0.0,0.0,0.0,1.0,0.0,0.0,0.0,1.0,18.4146347046,-20.5487823486,12.2560977936,1.0,0.0,0.0,0.0,1.0,0.0,0.0,0.0,1.0,-4.26646765066,-1.92493813477,-8.80587370605,1.0,0.0,0.0,0.0,1.0,0.0,0.0,0.0,1.0
1463488214296358784,668,1463488214294064364,,14.3534326553,-23.9054870605,-30.672662735,0.00995100010186,1.0,0.0,0.0,0.0,1.0,0.0,0.0,0.0,1.0,19.0243911743,-18.7195110321,11.9512195587,1.0,0.0,0.0,0.0,1.0,0.0,0.0,0.0,1.0,-4.42927307129,-2.22660754395,-8.90164177246,1.0,0.0,0.0,0.0,1.0,0.0,0.0,0.0,1.0
1463488214306593282,669,1463488214304055269,,14.4890985489,-24.1157989502,-30.5972080231,0.00993600022048,1.0,0.0,0.0,0.0,1.0,0.0,0.0,0.0,1.0,17.0121955872,-18.9634151459,10.9146347046,1.0,0.0,0.0,0.0,1.0,0.0,0.0,0.0,1.0,-4.55377155762,-2.32716386754,-8.81066210937,1.0,0.0,0.0,0.0,1.0,0.0,0.0,0.0,1.0
1463488214316143980,670,1463488214314135810,,14.6151866913,-24.3053894043,-30.5400733948,0.0100769996643,1.0,0.0,0.0,0.0,1.0,0.0,0.0,0.0,1.0,15.0609760284,-16.5853652954,8.5365858078,1.0,0.0,0.0,0.0,1.0,0.0,0.0,0.0,1.0,-4.66390454172,-2.33674067418,-8.72925925293,1.0,0.0,0.0,0.0,1.0,0.0,0.0,0.0,1.0
1463488214325986813,671,1463488214324195308,,14.7272787094,-24.4771709442,-30.5059051514,0.00991700030863,1.0,0.0,0.0,0.0,1.0,0.0,0.0,0.0,1.0,13.841463089,-15.6097564697,5.79268312454,1.0,0.0,0.0,0.0,1.0,0.0,0.0,0.0,1.0,-4.72615378489,-2.18351191406,-8.76277807617,1.0,0.0,0.0,0.0,1.0,0.0,0.0,0.0,1.0
1463488214336111780,672,1463488214334071630,,14.8272514343,-24.6282119751,-30.4872665405,0.0100199999288,1.0,0.0,0.0,0.0,1.0,0.0,0.0,0.0,1.0,12.9268293381,-14.0853662491,3.41463422775,1.0,0.0,0.0,0.0,1.0,0.0,0.0,0.0,1.0,-4.66869294504,-1.97282216797,-8.70531723633,1.0,0.0,0.0,0.0,1.0,0.0,0.0,0.0,1.0
1463488214346104508,673,1463488214344201389,,14.9156265259,-24.7569446564,-30.4618110657,0.00999699998647,1.0,0.0,0.0,0.0,1.0,0.0,0.0,0.0,1.0,12.8658542633,-12.5609760284,3.29268312454,1.0,0.0,0.0,0.0,1.0,0.0,0.0,0.0,1.0,-4.55377155762,-1.838746875,-8.72925925293,1.0,0.0,0.0,0.0,1.0,0.0,0.0,0.0,1.0
1463488214355967445,674,1463488214354050524,,15.0001411438,-24.8920631409,-30.4296474457,0.00994899962097,1.0,0.0,0.0,0.0,1.0,0.0,0.0,0.0,1.0,12.9878053665,-13.1707324982,4.02439022064,1.0,0.0,0.0,0.0,1.0,0.0,0.0,0.0,1.0,-4.55377155762,-1.8148048584,-8.71489404297,1.0,0.0,0.0,0.0,1.0,0.0,0.0,0.0,1.0
1463488214366703868,675,1463488214364070023,,15.0830535889,-25.0471801758,-30.3932266235,0.0101070003584,1.0,0.0,0.0,0.0,1.0,0.0,0.0,0.0,1.0,13.048781395,-15.3658533096,4.87804889679,1.0,0.0,0.0,0.0,1.0,0.0,0.0,0.0,1.0,-4.42448466797,-1.77649763184,-8.63828017437,1.0,0.0,0.0,0.0,1.0,0.0,0.0,0.0,1.0
1463488214376110661,676,1463488214374179781,,15.1746578217,-25.2187156677,-30.349571228,0.00992699991912,1.0,0.0,0.0,0.0,1.0,0.0,0.0,0.0,1.0,14.3902444839,-16.5853652954,5.97560977936,1.0,0.0,0.0,0.0,1.0,0.0,0.0,0.0,1.0,-4.52025273438,-1.78128603516,-8.58560773784,1.0,0.0,0.0,0.0,1.0,0.0,0.0,0.0,1.0
1463488214386094222,677,1463488214383993343,,15.2800359726,-25.4140396118,-30.3006858826,0.00999599974602,1.0,0.0,0.0,0.0,1.0,0.0,0.0,0.0,1.0,15.6707315445,-17.7439022064,6.89024400711,1.0,0.0,0.0,0.0,1.0,0.0,0.0,0.0,1.0,-4.74530798269,-1.84353527832,-8.59518454448,1.0,0.0,0.0,0.0,1.0,0.0,0.0,0.0,1.0
1463488214395963200,678,1463488214394016071,,15.3953084946,-25.6279067993,-30.2515583038,0.0100180003792,1.0,0.0,0.0,0.0,1.0,0.0,0.0,0.0,1.0,15.7317075729,-18.4146347046,7.56097555161,1.0,0.0,0.0,0.0,1.0,0.0,0.0,0.0,1.0,-4.93684382324,-2.01112939453,-8.46589648579,1.0,0.0,0.0,0.0,1.0,0.0,0.0,0.0,1.0
1463488214406196188,679,1463488214404182340,,15.5165300369,-25.8227291107,-30.2119522095,0.00999199971557,1.0,0.0,0.0,0.0,1.0,0.0,0.0,0.0,1.0,15.3048791885,-17.0121955872,6.64634132385,1.0,0.0,0.0,0.0,1.0,0.0,0.0,0.0,1.0,-5.05176550293,-2.20745393066,-8.64306857769,1.0,0.0,0.0,0.0,1.0,0.0,0.0,0.0,1.0
1463488214416395530,680,1463488214413929913,,15.6363830566,-26.0082645416,-30.1804141998,0.00994599983096,1.0,0.0,0.0,0.0,1.0,0.0,0.0,0.0,1.0,15.1829271317,-15.3048791885,5.30487823486,1.0,0.0,0.0,0.0,1.0,0.0,0.0,0.0,1.0,-5.20499440918,-2.11168571813,-8.44195446919,1.0,0.0,0.0,0.0,1.0,0.0,0.0,0.0,1.0
1463488214426068051,681,1463488214424175036,,15.7610778809,-26.1519641876,-30.1538486481,0.0100549999624,1.0,0.0,0.0,0.0,1.0,0.0,0.0,0.0,1.0,14.9390249252,-12.6219520569,4.2682929039,1.0,0.0,0.0,0.0,1.0,0.0,0.0,0.0,1.0,-5.06134230957,-2.26012636719,-8.63828017437,1.0,0.0,0.0,0.0,1.0,0.0,0.0,0.0,1.0
1463488214436032706,682,1463488214433960473,,15.8637313843,-26.2751617432,-30.1039237976,0.00995900016278,1.0,0.0,0.0,0.0,1.0,0.0,0.0,0.0,1.0,14.3292694092,-9.20731735229,5.30487823486,1.0,0.0,0.0,0.0,1.0,0.0,0.0,0.0,1.0,-5.23851323242,-2.15957004359,-8.528146898,1.0,0.0,0.0,0.0,1.0,0.0,0.0,0.0,1.0
1463488214446118558,683,1463488214444292575,,15.9483003616,-26.3604602814,-30.0305786133,0.0100499996915,1.0,0.0,0.0,0.0,1.0,0.0,0.0,0.0,1.0,13.7195129395,-6.0365858078,6.40243911743,1.0,0.0,0.0,0.0,1.0,0.0,0.0,0.0,1.0,-4.86501777344,-2.05901342773,-8.26478413086,1.0,0.0,0.0,0.0,1.0,0.0,0.0,0.0,1.0
1463488214455921704,684,1463488214453982804,,16.0192298889,-26.4372615814,-29.9356517792,0.00997400004417,1.0,0.0,0.0,0.0,1.0,0.0,0.0,0.0,1.0,13.7195129395,-5.12195110321,8.04878044128,1.0,0.0,0.0,0.0,1.0,0.0,0.0,0.0,1.0,-4.92247861328,-2.06380183105,-8.47547329243,1.0,0.0,0.0,0.0,1.0,0.0,0.0,0.0,1.0
1463488214466055733,685,1463488214463965167,,16.0802822113,-26.5227127075,-29.8288154602,0.00997500028461,1.0,0.0,0.0,0.0,1.0,0.0,0.0,0.0,1.0,13.7804880142,-5.79268312454,9.08536529541,1.0,0.0,0.0,0.0,1.0,0.0,0.0,0.0,1.0,-4.92247861328,-1.97761057129,-8.49941647808,1.0,0.0,0.0,0.0,1.0,0.0,0.0,0.0,1.0
1463488214475912264,686,1463488214474192061,,16.1403884888,-26.6321353912,-29.7212162018,0.0099950004369,1.0,0.0,0.0,0.0,1.0,0.0,0.0,0.0,1.0,14.1463422775,-8.10975551605,9.5731716156,1.0,0.0,0.0,0.0,1.0,0.0,0.0,0.0,1.0,-4.96078583984,-1.9105729248,-8.5520889146,1.0,0.0,0.0,0.0,1.0,0.0,0.0,0.0,1.0
1463488214486128689,687,1463488214484077654,,16.2118473053,-26.771320343,-29.6112632751,0.0100889997557,1.0,0.0,0.0,0.0,1.0,0.0,0.0,0.0,1.0,15.1219511032,-10.1219511032,10.3658542633,1.0,0.0,0.0,0.0,1.0,0.0,0.0,0.0,1.0,-5.09964953613,-1.93930334473,-8.49941647808,1.0,0.0,0.0,0.0,1.0,0.0,0.0,0.0,1.0
1463488214496124698,688,1463488214493980747,,16.280834198,-26.8997192383,-29.5060825348,0.00994000025094,1.0,0.0,0.0,0.0,1.0,0.0,0.0,0.0,1.0,15.0609760284,-10.0609760284,9.93902492523,1.0,0.0,0.0,0.0,1.0,0.0,0.0,0.0,1.0,-5.06134230957,-1.94409174805,-8.64306857769,1.0,0.0,0.0,0.0,1.0,0.0,0.0,0.0,1.0
1463488214506224093,689,1463488214504167745,,16.3674144745,-27.0138206482,-29.4060459137,0.0100309997797,1.0,0.0,0.0,0.0,1.0,0.0,0.0,0.0,1.0,16.2804889679,-9.93902492523,9.45121955872,1.0,0.0,0.0,0.0,1.0,0.0,0.0,0.0,1.0,-4.79798041921,-1.99197578125,-8.58560773784,1.0,0.0,0.0,0.0,1.0,0.0,0.0,0.0,1.0
1463488214516759527,690,1463488214514168650,,16.4861297607,-27.1397171021,-29.3259601593,0.0100959995762,1.0,0.0,0.0,0.0,1.0,0.0,0.0,0.0,1.0,16.8292694092,-11.4634151459,8.90243911743,1.0,0.0,0.0,0.0,1.0,0.0,0.0,0.0,1.0,-4.75488478933,-2.31279880371,-8.45153127583,1.0,0.0,0.0,0.0,1.0,0.0,0.0,0.0,1.0
1463488214526105330,691,1463488214524262888,,16.5955352783,-27.2519760132,-29.2423038483,0.0098959999159,1.0,0.0,0.0,0.0,1.0,0.0,0.0,0.0,1.0,16.4024391174,-10.2439022064,9.02439117432,1.0,0.0,0.0,0.0,1.0,0.0,0.0,0.0,1.0,-4.86980617676,-2.37025978969,-8.60954975444,1.0,0.0,0.0,0.0,1.0,0.0,0.0,0.0,1.0
1463488214535990038,692,1463488214533963898,,16.7024364471,-27.3499011993,-29.1586074829,0.0099670002237,1.0,0.0,0.0,0.0,1.0,0.0,0.0,0.0,1.0,15.0609760284,-8.17073154449,8.90243911743,1.0,0.0,0.0,0.0,1.0,0.0,0.0,0.0,1.0,-5.00388146973,-2.58573779297,-8.56645412456,1.0,0.0,0.0,0.0,1.0,0.0,0.0,0.0,1.0
1463488214546387608,693,1463488214544156990,,16.7910442352,-27.4319629669,-29.0730304718,0.0100090000778,1.0,0.0,0.0,0.0,1.0,0.0,0.0,0.0,1.0,14.2682924271,-6.64634132385,8.04878044128,1.0,0.0,0.0,0.0,1.0,0.0,0.0,0.0,1.0,-4.94163222656,-2.36068269078,-8.45631967915,1.0,0.0,0.0,0.0,1.0,0.0,0.0,0.0,1.0
1463488214555749609,694,1463488214554002271,,16.8787689209,-27.4963874817,-28.9870548248,0.0099849998951,1.0,0.0,0.0,0.0,1.0,0.0,0.0,0.0,1.0,13.9634151459,-5.54878091812,7.92682981491,1.0,0.0,0.0,0.0,1.0,0.0,0.0,0.0,1.0,-4.8793829834,-2.45645090332,-8.53772370464,1.0,0.0,0.0,0.0,1.0,0.0,0.0,0.0,1.0
1463488214566287387,695,1463488214563983176,,16.9406394958,-27.5653305054,-28.8838195801,0.0100029995665,1.0,0.0,0.0,0.0,1.0,0.0,0.0,0.0,1.0,13.1707324982,-6.15853643417,9.14634132385,1.0,0.0,0.0,0.0,1.0,0.0,0.0,0.0,1.0,-4.74530798269,-2.25533796387,-8.51378168804,1.0,0.0,0.0,0.0,1.0,0.0,0.0,0.0,1.0
1463488214576342563,696,1463488214574331007,,16.9830665588,-27.6619873047,-28.7638759613,0.00998399965465,1.0,0.0,0.0,0.0,1.0,0.0,0.0,0.0,1.0,12.8048782349,-7.62195110321,10.7317075729,1.0,0.0,0.0,0.0,1.0,0.0,0.0,0.0,1.0,-4.89853659668,-2.09253210485,-8.47547329243,1.0,0.0,0.0,0.0,1.0,0.0,0.0,0.0,1.0
1463488214586572269,697,1463488214584003580,,17.0197944641,-27.7508602142,-28.6261882782,0.010050999932,1.0,0.0,0.0,0.0,1.0,0.0,0.0,0.0,1.0,13.9634151459,-6.46341466904,11.4024391174,1.0,0.0,0.0,0.0,1.0,0.0,0.0,0.0,1.0,-4.97993945312,-1.93451494141,-8.61433815776,1.0,0.0,0.0,0.0,1.0,0.0,0.0,0.0,1.0
1463488214595837552,698,1463488214594073860,,17.0721607208,-27.8285980225,-28.483039856,0.0100159998983,1.0,0.0,0.0,0.0,1.0,0.0,0.0,0.0,1.0,15.4878053665,-4.87804889679,11.6463422775,1.0,0.0,0.0,0.0,1.0,0.0,0.0,0.0,1.0,-4.95599743652,-1.95845695801,-8.39885883931,1.0,0.0,0.0,0.0,1.0,0.0,0.0,0.0,1.0
1463488214606687360,699,1463488214604046327,,17.1376476288,-27.8896331787,-28.3345165253,0.00998700037599,1.0,0.0,0.0,0.0,1.0,0.0,0.0,0.0,1.0,16.5853652954,-2.62195134163,11.7682924271,1.0,0.0,0.0,0.0,1.0,0.0,0.0,0.0,1.0,-5.1379567627,-2.09253210485,-8.48983967144,1.0,0.0,0.0,0.0,1.0,0.0,0.0,0.0,1.0
1463488214616039882,700,1463488214614019107,,17.2073783875,-27.9153118134,-28.1751365662,0.00995799992234,1.0,0.0,0.0,0.0,1.0,0.0,0.0,0.0,1.0,18.1707305908,-0.12195122242,11.7073173523,1.0,0.0,0.0,0.0,1.0,0.0,0.0,0.0,1.0,-4.96078583984,-2.01112939453,-8.5999729478,1.0,0.0,0.0,0.0,1.0,0.0,0.0,0.0,1.0
1463488214626447348,701,1463488214624284022,,17.306180954,-27.926317215,-28.0234127045,0.0100189996883,1.0,0.0,0.0,0.0,1.0,0.0,0.0,0.0,1.0,19.5121955872,0.304878056049,11.4024391174,1.0,0.0,0.0,0.0,1.0,0.0,0.0,0.0,1.0,-4.74051957937,-2.23139594727,-8.48983967144,1.0,0.0,0.0,0.0,1.0,0.0,0.0,0.0,1.0
1463488214636575024,702,1463488214634040865,,17.4070568085,-27.9653186798,-27.8655147552,0.0100299995393,1.0,0.0,0.0,0.0,1.0,0.0,0.0,0.0,1.0,19.5731716156,-1.46341466904,12.7439022064,1.0,0.0,0.0,0.0,1.0,0.0,0.0,0.0,1.0,-4.8554409668,-2.31279880371,-8.41801245259,1.0,0.0,0.0,0.0,1.0,0.0,0.0,0.0,1.0
1463488214646640147,703,1463488214644198541,,17.4975395203,-28.0376205444,-27.6943378448,0.00999400019646,1.0,0.0,0.0,0.0,1.0,0.0,0.0,0.0,1.0,19.8780498505,-3.7804877758,14.3902444839,1.0,0.0,0.0,0.0,1.0,0.0,0.0,0.0,1.0,-5.02303508301,-2.2170307373,-8.50899328472,1.0,0.0,0.0,0.0,1.0,0.0,0.0,0.0,1.0
1463488214655901576,704,1463488214654076946,,17.5997314453,-28.1447200775,-27.5310611725,0.0100079998374,1.0,0.0,0.0,0.0,1.0,0.0,0.0,0.0,1.0,20.2439022064,-6.95121955872,14.8780498505,1.0,0.0,0.0,0.0,1.0,0.0,0.0,0.0,1.0,-5.03261188965,-2.28406838379,-8.3749168227,1.0,0.0,0.0,0.0,1.0,0.0,0.0,0.0,1.0
1463488214666581645,705,1463488214664045195,,17.710559845,-28.252286911,-27.3656463623,0.0100250001997,1.0,0.0,0.0,0.0,1.0,0.0,0.0,0.0,1.0,21.2195129395,-6.82926845551,15.0000009537,1.0,0.0,0.0,0.0,1.0,0.0,0.0,0.0,1.0,-5.04697709961,-2.28406838379,-8.33182119282,1.0,0.0,0.0,0.0,1.0,0.0,0.0,0.0,1.0
1463488214676019739,706,1463488214674245006,,17.8176651001,-28.3648071289,-27.2015247345,0.00993700046092,1.0,0.0,0.0,0.0,1.0,0.0,0.0,0.0,1.0,21.158536911,-7.68292665482,15.1829271317,1.0,0.0,0.0,0.0,1.0,0.0,0.0,0.0,1.0,-5.04697709961,-2.28406838379,-8.40364724263,1.0,0.0,0.0,0.0,1.0,0.0,0.0,0.0,1.0
1463488214686435331,707,1463488214684108932,,17.9348430634,-28.4860095978,-27.0402545929,0.0100689996034,1.0,0.0,0.0,0.0,1.0,0.0,0.0,0.0,1.0,21.7073173523,-7.80487823486,14.8170728683,1.0,0.0,0.0,0.0,1.0,0.0,0.0,0.0,1.0,-5.21457121582,-2.31758720703,-8.39885883931,1.0,0.0,0.0,0.0,1.0,0.0,0.0,0.0,1.0
1463488214695829936,708,1463488214694054681,,18.0556468964,-28.6009635925,-26.8819789886,0.00990699976683,1.0,0.0,0.0,0.0,1.0,0.0,0.0,0.0,1.0,21.6463432312,-7.56097555161,15.0609760284,1.0,0.0,0.0,0.0,1.0,0.0,0.0,0.0,1.0,-5.08528432617,-2.41335541957,-8.20732329102,1.0,0.0,0.0,0.0,1.0,0.0,0.0,0.0,1.0
1463488214706208496,709,1463488214704029701,,18.1725959778,-28.7287693024,-26.7167873383,0.0100830001757,1.0,0.0,0.0,0.0,1.0,0.0,0.0,0.0,1.0,21.2195129395,-7.98780536652,15.6097564697,1.0,0.0,0.0,0.0,1.0,0.0,0.0,0.0,1.0,-5.21935961914,-2.44687409668,-8.22168850098,1.0,0.0,0.0,0.0,1.0,0.0,0.0,0.0,1.0
1463488214716100547,710,1463488214714050085,,18.2815265656,-28.8519248962,-26.5430660248,0.00994800031185,1.0,0.0,0.0,0.0,1.0,0.0,0.0,0.0,1.0,20.6707324982,-7.68292665482,16.7682933807,1.0,0.0,0.0,0.0,1.0,0.0,0.0,0.0,1.0,-5.22414802246,-2.58094938965,-8.28393774414,1.0,0.0,0.0,0.0,1.0,0.0,0.0,0.0,1.0
1463488214726258899,711,1463488214724204896,,18.3731136322,-28.9736232758,-26.3510017395,0.0100290002301,1.0,0.0,0.0,0.0,1.0,0.0,0.0,0.0,1.0,20.0,-7.01219511032,17.9268302917,1.0,0.0,0.0,0.0,1.0,0.0,0.0,0.0,1.0,-5.27682045898,-2.55221896973,-8.34139799946,1.0,0.0,0.0,0.0,1.0,0.0,0.0,0.0,1.0
1463488214736726574,712,1463488214734040489,,18.4408988953,-29.0867767334,-26.1376266479,0.0100290002301,1.0,0.0,0.0,0.0,1.0,0.0,0.0,0.0,1.0,19.4512195587,-6.15853643417,19.1463432312,1.0,0.0,0.0,0.0,1.0,0.0,0.0,0.0,1.0,-5.1858407959,-2.40856701625,-8.3509748061,1.0,0.0,0.0,0.0,1.0,0.0,0.0,0.0,1.0
1463488214746183366,713,1463488214744016550,,18.4840145111,-29.1953926086,-25.9071102142,0.00998799968511,1.0,0.0,0.0,0.0,1.0,0.0,0.0,0.0,1.0,18.7804889679,-5.48780488968,20.0609760284,1.0,0.0,0.0,0.0,1.0,0.0,0.0,0.0,1.0,-5.2337248291,-2.26970317383,-8.47068488911,1.0,0.0,0.0,0.0,1.0,0.0,0.0,0.0,1.0
1463488214755978699,714,1463488214753973705,,18.5284080505,-29.3060722351,-25.6797370911,0.00992299988866,1.0,0.0,0.0,0.0,1.0,0.0,0.0,0.0,1.0,19.1463432312,-5.36585378647,19.6951236725,1.0,0.0,0.0,0.0,1.0,0.0,0.0,0.0,1.0,-5.2337248291,-2.1691467041,-8.28393774414,1.0,0.0,0.0,0.0,1.0,0.0,0.0,0.0,1.0
1463488214765938979,715,1463488214764042266,,18.5777873993,-29.4036998749,-25.457075119,0.0100400000811,1.0,0.0,0.0,0.0,1.0,0.0,0.0,0.0,1.0,19.1463432312,-4.32926845551,18.7195110321,1.0,0.0,0.0,0.0,1.0,0.0,0.0,0.0,1.0,-5.2576668457,-2.21224233398,-8.3270327895,1.0,0.0,0.0,0.0,1.0,0.0,0.0,0.0,1.0
1463488214776178998,716,1463488214774203952,,18.6366119385,-29.5012817383,-25.2602882385,0.00997999962419,1.0,0.0,0.0,0.0,1.0,0.0,0.0,0.0,1.0,19.3902435303,-5.54878091812,16.5853652954,1.0,0.0,0.0,0.0,1.0,0.0,0.0,0.0,1.0,-5.09964953613,-2.09732050817,-8.21211169434,1.0,0.0,0.0,0.0,1.0,0.0,0.0,0.0,1.0
1463488214786714693,717,1463488214783974389,,18.7328128815,-29.6032867432,-25.1016387939,0.0100100003183,1.0,0.0,0.0,0.0,1.0,0.0,0.0,0.0,1.0,20.3048782349,-6.34146356583,13.841463089,1.0,0.0,0.0,0.0,1.0,0.0,0.0,0.0,1.0,-5.21935961914,-2.27449157715,-8.14028564453,1.0,0.0,0.0,0.0,1.0,0.0,0.0,0.0,1.0
1463488214796062214,718,1463488214794072013,,18.8403549194,-29.7004432678,-24.9552059174,0.0100260004401,1.0,0.0,0.0,0.0,1.0,0.0,0.0,0.0,1.0,20.3048782349,-5.91463422775,12.8658542633,1.0,0.0,0.0,0.0,1.0,0.0,0.0,0.0,1.0,-5.28639726562,-2.38941340297,-8.11155522461,1.0,0.0,0.0,0.0,1.0,0.0,0.0,0.0,1.0
1463488214806619055,719,1463488214803998751,,18.9301242828,-29.7961730957,-24.8062744141,0.00997599959373,1.0,0.0,0.0,0.0,1.0,0.0,0.0,0.0,1.0,19.3902435303,-4.93902444839,12.4390249252,1.0,0.0,0.0,0.0,1.0,0.0,0.0,0.0,1.0,-5.52102902832,-2.28406838379,-8.17380446777,1.0,0.0,0.0,0.0,1.0,0.0,0.0,0.0,1.0
1463488214816465638,720,1463488214813948875,,19.023683548,-29.889043808,-24.6647796631,0.00997299980372,1.0,0.0,0.0,0.0,1.0,0.0,0.0,0.0,1.0,18.2926826477,-4.57317066193,12.3170728683,1.0,0.0,0.0,0.0,1.0,0.0,0.0,0.0,1.0,-5.57370146484,-2.5234885498,-8.11634362793,1.0,0.0,0.0,0.0,1.0,0.0,0.0,0.0,1.0
1463488214826365554,721,1463488214824261550,,19.0950775146,-29.9631385803,-24.5192298889,0.0100790001452,1.0,0.0,0.0,0.0,1.0,0.0,0.0,0.0,1.0,16.5243911743,-3.71951246262,12.0121955872,1.0,0.0,0.0,0.0,1.0,0.0,0.0,0.0,1.0,-5.34864650879,-2.45645090332,-8.11155522461,1.0,0.0,0.0,0.0,1.0,0.0,0.0,0.0,1.0
1463488214836347032,722,1463488214833996883,,19.1577415466,-30.0255718231,-24.3790073395,0.00995399989188,1.0,0.0,0.0,0.0,1.0,0.0,0.0,0.0,1.0,15.6097564697,-2.80487799644,11.341463089,1.0,0.0,0.0,0.0,1.0,0.0,0.0,0.0,1.0,-5.31512768555,-2.43729729004,-8.0397291748,1.0,0.0,0.0,0.0,1.0,0.0,0.0,0.0,1.0
1463488214846093406,723,1463488214844048934,,19.2144985199,-30.0730781555,-24.2367134094,0.00996899977326,1.0,0.0,0.0,0.0,1.0,0.0,0.0,0.0,1.0,15.4878053665,-1.76829278469,10.9146347046,1.0,0.0,0.0,0.0,1.0,0.0,0.0,0.0,1.0,-5.2337248291,-2.37025978969,-8.04451757812,1.0,0.0,0.0,0.0,1.0,0.0,0.0,0.0,1.0
1463488214855793531,724,1463488214854066193,,19.2892150879,-30.1246871948,-24.1134243011,0.0100809996948,1.0,0.0,0.0,0.0,1.0,0.0,0.0,0.0,1.0,15.2439022064,-2.5,9.87804889679,1.0,0.0,0.0,0.0,1.0,0.0,0.0,0.0,1.0,-5.19062919922,-2.53306535645,-7.90086547852,1.0,0.0,0.0,0.0,1.0,0.0,0.0,0.0,1.0
1463488214866580631,725,1463488214863935119,,19.3427810669,-30.1676101685,-23.983707428,0.0098729999736,1.0,0.0,0.0,0.0,1.0,0.0,0.0,0.0,1.0,14.2073173523,-1.34146344662,10.0,1.0,0.0,0.0,0.0,1.0,0.0,0.0,0.0,1.0,-5.41089575195,-2.5234885498,-8.16422766113,1.0,0.0,0.0,0.0,1.0,0.0,0.0,0.0,1.0
1463488214876123048,726,1463488214874218575,,19.3767337799,-30.2156944275,-23.8506755829,0.0100339995697,1.0,0.0,0.0,0.0,1.0,0.0,0.0,0.0,1.0,13.2926826477,-1.70731711388,9.5731716156,1.0,0.0,0.0,0.0,1.0,0.0,0.0,0.0,1.0,-5.55933625488,-2.36068269078,-8.37012841938,1.0,0.0,0.0,0.0,1.0,0.0,0.0,0.0,1.0
1463488214886454525,727,1463488214884002085,,19.4178962708,-30.2477283478,-23.7260799408,0.010048000142,1.0,0.0,0.0,0.0,1.0,0.0,0.0,0.0,1.0,12.8048782349,-0.853658556938,8.96341514587,1.0,0.0,0.0,0.0,1.0,0.0,0.0,0.0,1.0,-5.32949289551,-2.47081611328,-8.14507404785,1.0,0.0,0.0,0.0,1.0,0.0,0.0,0.0,1.0
1463488214896189077,728,1463488214894179396,,19.4573421478,-30.2815265656,-23.6105690002,0.0101269995794,1.0,0.0,0.0,0.0,1.0,0.0,0.0,0.0,1.0,11.6463422775,-0.731707334518,8.29268264771,1.0,0.0,0.0,0.0,1.0,0.0,0.0,0.0,1.0,-5.39174213867,-2.54264216309,-8.04451757812,1.0,0.0,0.0,0.0,1.0,0.0,0.0,0.0,1.0
1463488214906149930,729,1463488214904021499,,19.4834899902,-30.3045539856,-23.5077590942,0.0099060004577,1.0,0.0,0.0,0.0,1.0,0.0,0.0,0.0,1.0,10.0,-1.03658533096,7.37804937363,1.0,0.0,0.0,0.0,1.0,0.0,0.0,0.0,1.0,-5.24330163574,-2.55221896973,-8.13070883789,1.0,0.0,0.0,0.0,1.0,0.0,0.0,0.0,1.0
1463488214915782034,730,1463488214913975373,,19.5070133209,-30.3293094635,-23.4210147858,0.00994700007141,1.0,0.0,0.0,0.0,1.0,0.0,0.0,0.0,1.0,9.51219558716,-1.09756100178,5.48780488968,1.0,0.0,0.0,0.0,1.0,0.0,0.0,0.0,1.0,-5.32949289551,-2.39899020961,-8.06367119141,1.0,0.0,0.0,0.0,1.0,0.0,0.0,0.0,1.0
1463488214926203511,731,1463488214924235757,,19.5413761139,-30.3482208252,-23.3578472137,0.00998799968511,1.0,0.0,0.0,0.0,1.0,0.0,0.0,0.0,1.0,8.71951198578,-0.975609779358,3.65853667259,1.0,0.0,0.0,0.0,1.0,0.0,0.0,0.0,1.0,-5.38216533203,-2.53785375977,-8.04930598145,1.0,0.0,0.0,0.0,1.0,0.0,0.0,0.0,1.0
1463488214936213791,732,1463488214933944892,,19.5667209625,-30.3679428101,-23.3071937561,0.00998899992555,1.0,0.0,0.0,0.0,1.0,0.0,0.0,0.0,1.0,7.56097555161,-1.2804877758,2.37804889679,1.0,0.0,0.0,0.0,1.0,0.0,0.0,0.0,1.0,-5.39653054199,-2.4516625,-8.02057556152,1.0,0.0,0.0,0.0,1.0,0.0,0.0,0.0,1.0
1463488214946183498,733,1463488214944011943,,19.5889835358,-30.3882293701,-23.2594623566,0.0100640002638,1.0,0.0,0.0,0.0,1.0,0.0,0.0,0.0,1.0,7.31707334518,-0.853658556938,1.76829278469,1.0,0.0,0.0,0.0,1.0,0.0,0.0,0.0,1.0,-5.53539423828,-2.40377861293,-8.03494077148,1.0,0.0,0.0,0.0,1.0,0.0,0.0,0.0,1.0
1463488214956717162,734,1463488214954102066,,19.5926094055,-30.3957366943,-23.1973400116,0.010045000352,1.0,0.0,0.0,0.0,1.0,0.0,0.0,0.0,1.0,6.58536624908,-0.0609756112099,2.56097555161,1.0,0.0,0.0,0.0,1.0,0.0,0.0,0.0,1.0,-5.43004936523,-2.36068269078,-8.14507404785,1.0,0.0,0.0,0.0,1.0,0.0,0.0,0.0,1.0
1463488214966517338,735,1463488214963982607,,19.5751113892,-30.3948020935,-23.1214027405,0.00989300012589,1.0,0.0,0.0,0.0,1.0,0.0,0.0,0.0,1.0,5.79268312454,0.18292683363,3.47560977936,1.0,0.0,0.0,0.0,1.0,0.0,0.0,0.0,1.0,-5.35343491211,-2.30322199707,-8.36055161274,1.0,0.0,0.0,0.0,1.0,0.0,0.0,0.0,1.0
1463488214975933922,736,1463488214974215438,,19.5518474579,-30.3936309814,-23.0359325409,0.00996899977326,1.0,0.0,0.0,0.0,1.0,0.0,0.0,0.0,1.0,6.09756088257,0.731707334518,3.84146332741,1.0,0.0,0.0,0.0,1.0,0.0,0.0,0.0,1.0,-5.35343491211,-2.18351191406,-8.26957253418,1.0,0.0,0.0,0.0,1.0,0.0,0.0,0.0,1.0
1463488214986478003,737,1463488214983993219,,19.5498256683,-30.3755626678,-22.9602394104,0.0100429998711,1.0,0.0,0.0,0.0,1.0,0.0,0.0,0.0,1.0,5.85365867615,1.34146344662,3.84146332741,1.0,0.0,0.0,0.0,1.0,0.0,0.0,0.0,1.0,-5.08049592285,-2.5234885498,-8.07324799805,1.0,0.0,0.0,0.0,1.0,0.0,0.0,0.0,1.0
1463488214996019378,738,1463488214994014437,,19.5362586975,-30.3532791138,-22.8857421875,0.00997599959373,1.0,0.0,0.0,0.0,1.0,0.0,0.0,0.0,1.0,5.67073154449,1.09756100178,3.23170733452,1.0,0.0,0.0,0.0,1.0,0.0,0.0,0.0,1.0,-5.00388146973,-2.3415290775,-8.17380446777,1.0,0.0,0.0,0.0,1.0,0.0,0.0,0.0,1.0
1463488215007096165,739,1463488215004063310,,19.5143032074,-30.3418884277,-22.8176860809,0.0100100003183,1.0,0.0,0.0,0.0,1.0,0.0,0.0,0.0,1.0,5.60975599289,0.670731723309,2.07317066193,1.0,0.0,0.0,0.0,1.0,0.0,0.0,0.0,1.0,-5.28639726562,-2.14520483363,-8.35576320942,1.0,0.0,0.0,0.0,1.0,0.0,0.0,0.0,1.0
1463488215016578478,740,1463488215013955257,,19.5031375885,-30.3376674652,-22.7656440735,0.00999800022691,1.0,0.0,0.0,0.0,1.0,0.0,0.0,0.0,1.0,5.67073154449,-0.487804889679,1.15853655338,1.0,0.0,0.0,0.0,1.0,0.0,0.0,0.0,1.0,-5.2816088623,-2.18830031738,-8.36055161274,1.0,0.0,0.0,0.0,1.0,0.0,0.0,0.0,1.0
1463488215026234072,741,1463488215024227411,,19.5027160645,-30.328792572,-22.721031189,0.0100609995425,1.0,0.0,0.0,0.0,1.0,0.0,0.0,0.0,1.0,5.24390268326,0.853658556938,0.670731723309,1.0,0.0,0.0,0.0,1.0,0.0,0.0,0.0,1.0,-5.43004936523,-2.37504819301,-8.2025348877,1.0,0.0,0.0,0.0,1.0,0.0,0.0,0.0,1.0
1463488215036699454,742,1463488215034043682,,19.4785690308,-30.3100643158,-22.6781101227,0.00997699983418,1.0,0.0,0.0,0.0,1.0,0.0,0.0,0.0,1.0,3.96341490746,1.03658533096,-0.243902444839,1.0,0.0,0.0,0.0,1.0,0.0,0.0,0.0,1.0,-5.29597407227,-2.14041643031,-8.24563051758,1.0,0.0,0.0,0.0,1.0,0.0,0.0,0.0,1.0
1463488215045996612,743,1463488215044049326,,19.4909572601,-30.2772197723,-22.6664543152,0.0100269997492,1.0,0.0,0.0,0.0,1.0,0.0,0.0,0.0,1.0,4.2682929039,1.03658533096,-2.01219511032,1.0,0.0,0.0,0.0,1.0,0.0,0.0,0.0,1.0,-5.17147558594,-2.50433493652,-8.19774648437,1.0,0.0,0.0,0.0,1.0,0.0,0.0,0.0,1.0
1463488215055943402,744,1463488215054014086,,19.5024833679,-30.2544002533,-22.6673107147,0.00999199971557,1.0,0.0,0.0,0.0,1.0,0.0,0.0,0.0,1.0,3.90243911743,0.975609779358,-3.35365867615,1.0,0.0,0.0,0.0,1.0,0.0,0.0,0.0,1.0,-5.35822331543,-2.38941340297,-8.07803640137,1.0,0.0,0.0,0.0,1.0,0.0,0.0,0.0,1.0
