%time,field.header.seq,field.header.stamp,field.header.frame_id,field.orientation.x,field.orientation.y,field.orientation.z,field.orientation.w,field.orientation_covariance0,field.orientation_covariance1,field.orientation_covariance2,field.orientation_covariance3,field.orientation_covariance4,field.orientation_covariance5,field.orientation_covariance6,field.orientation_covariance7,field.orientation_covariance8,field.angular_velocity.x,field.angular_velocity.y,field.angular_velocity.z,field.angular_velocity_covariance0,field.angular_velocity_covariance1,field.angular_velocity_covariance2,field.angular_velocity_covariance3,field.angular_velocity_covariance4,field.angular_velocity_covariance5,field.angular_velocity_covariance6,field.angular_velocity_covariance7,field.angular_velocity_covariance8,field.linear_acceleration.x,field.linear_acceleration.y,field.linear_acceleration.z,field.linear_acceleration_covariance0,field.linear_acceleration_covariance1,field.linear_acceleration_covariance2,field.linear_acceleration_covariance3,field.linear_acceleration_covariance4,field.linear_acceleration_covariance5,field.linear_acceleration_covariance6,field.linear_acceleration_covariance7,field.linear_acceleration_covariance8
1463502867538033882,376,1463502867417070206,,32.2043876648,26.6022109985,66.8405914307,0.0267179999501,1.0,0.0,0.0,0.0,1.0,0.0,0.0,0.0,1.0,-24.2073173523,-7.62195110321,1.40243899822,1.0,0.0,0.0,0.0,1.0,0.0,0.0,0.0,1.0,3.94085593262,-4.88895979004,-7.24485422363,1.0,0.0,0.0,0.0,1.0,0.0,0.0,0.0,1.0
1463502867538070861,377,1463502867419726970,,32.0727043152,26.5486450195,66.8261871338,0.00462999986485,1.0,0.0,0.0,0.0,1.0,0.0,0.0,0.0,1.0,-23.9024391174,-7.50000047684,1.2804877758,1.0,0.0,0.0,0.0,1.0,0.0,0.0,0.0,1.0,4.01747038574,-4.82192243582,-7.31189187012,1.0,0.0,0.0,0.0,1.0,0.0,0.0,0.0,1.0
1463502867538108621,378,1463502867429564551,,31.8355255127,26.4214820862,66.8148727417,0.010269000195,1.0,0.0,0.0,0.0,1.0,0.0,0.0,0.0,1.0,-21.4634151459,-7.25609779358,2.01219511032,1.0,0.0,0.0,0.0,1.0,0.0,0.0,0.0,1.0,3.95043273926,-5.20499440918,-7.23048901367,1.0,0.0,0.0,0.0,1.0,0.0,0.0,0.0,1.0
1463502867538257735,379,1463502867440600359,,31.6349334717,26.3189277649,66.8306655884,0.00986600015312,1.0,0.0,0.0,0.0,1.0,0.0,0.0,0.0,1.0,-20.8536586761,-5.48780488968,3.17073178291,1.0,0.0,0.0,0.0,1.0,0.0,0.0,0.0,1.0,4.09887324219,-5.28639726562,-7.08683691406,1.0,0.0,0.0,0.0,1.0,0.0,0.0,0.0,1.0
1463502867538336381,380,1463502867450881116,,31.4461040497,26.2055587769,66.860496521,0.00998200010508,1.0,0.0,0.0,0.0,1.0,0.0,0.0,0.0,1.0,-19.0243911743,-5.54878091812,5.24390268326,1.0,0.0,0.0,0.0,1.0,0.0,0.0,0.0,1.0,4.10366164551,-5.08049592285,-7.19218178711,1.0,0.0,0.0,0.0,1.0,0.0,0.0,0.0,1.0
1463502867538375704,381,1463502867459103285,,31.3031368256,26.0907917023,66.9051513672,0.00998700037599,1.0,0.0,0.0,0.0,1.0,0.0,0.0,0.0,1.0,-16.7682933807,-4.75609779358,5.30487823486,1.0,0.0,0.0,0.0,1.0,0.0,0.0,0.0,1.0,4.02704719238,-5.45399138184,-7.20654699707,1.0,0.0,0.0,0.0,1.0,0.0,0.0,0.0,1.0
1463502867538487422,382,1463502867469130449,,31.1847171783,25.9909744263,66.9565887451,0.0100309997797,1.0,0.0,0.0,0.0,1.0,0.0,0.0,0.0,1.0,-14.7560987473,-3.53658556938,5.12195110321,1.0,0.0,0.0,0.0,1.0,0.0,0.0,0.0,1.0,4.10366164551,-5.50187541504,-7.23527741699,1.0,0.0,0.0,0.0,1.0,0.0,0.0,0.0,1.0
1463502867538567162,383,1463502867479013967,,31.0945491791,25.8918876648,67.011756897,0.00998799968511,1.0,0.0,0.0,0.0,1.0,0.0,0.0,0.0,1.0,-12.9268293381,-3.59756112099,5.12195110321,1.0,0.0,0.0,0.0,1.0,0.0,0.0,0.0,1.0,4.10845004883,-5.63116230469,-7.18260498047,1.0,0.0,0.0,0.0,1.0,0.0,0.0,0.0,1.0
1463502867538658099,384,1463502867489054152,,30.991147995,25.7891254425,67.0825119019,0.00999999977648,1.0,0.0,0.0,0.0,1.0,0.0,0.0,0.0,1.0,-13.1707324982,-4.08536577225,8.04878044128,1.0,0.0,0.0,0.0,1.0,0.0,0.0,0.0,1.0,4.2999864739,-5.21457121582,-7.20175859375,1.0,0.0,0.0,0.0,1.0,0.0,0.0,0.0,1.0
1463502867538748776,385,1463502867499140379,,30.8580780029,25.6872692108,67.1731643677,0.00999400019646,1.0,0.0,0.0,0.0,1.0,0.0,0.0,0.0,1.0,-15.2439022064,-3.41463422775,10.7317075729,1.0,0.0,0.0,0.0,1.0,0.0,0.0,0.0,1.0,4.51067592773,-4.9751510498,-7.48427438965,1.0,0.0,0.0,0.0,1.0,0.0,0.0,0.0,1.0
1463502867538851588,386,1463502867509120564,,30.7653331757,25.5339393616,67.3058700562,0.0100109996274,1.0,0.0,0.0,0.0,1.0,0.0,0.0,0.0,1.0,-15.7926826477,-5.18292713165,14.5731706619,1.0,0.0,0.0,0.0,1.0,0.0,0.0,0.0,1.0,4.18027580637,-5.43962617188,-7.24006582031,1.0,0.0,0.0,0.0,1.0,0.0,0.0,0.0,1.0
1463502867538969504,387,1463502867519762310,,30.6646595001,25.3895053864,67.4522705078,0.00999999977648,1.0,0.0,0.0,0.0,1.0,0.0,0.0,0.0,1.0,-17.0731716156,-3.7804877758,15.2439022064,1.0,0.0,0.0,0.0,1.0,0.0,0.0,0.0,1.0,4.16112219309,-5.42526096191,-7.27837304687,1.0,0.0,0.0,0.0,1.0,0.0,0.0,0.0,1.0
1463502867539008827,388,1463502867529408016,,30.5528526306,25.2317905426,67.5866699219,0.00999999977648,1.0,0.0,0.0,0.0,1.0,0.0,0.0,0.0,1.0,-17.8048782349,-4.20731735229,14.1463422775,1.0,0.0,0.0,0.0,1.0,0.0,0.0,0.0,1.0,3.96479794922,-5.60722028809,-7.51779321289,1.0,0.0,0.0,0.0,1.0,0.0,0.0,0.0,1.0
1463502867542866579,389,1463502867540481897,,30.3838920593,25.0872859955,67.7342987061,0.011371999979,1.0,0.0,0.0,0.0,1.0,0.0,0.0,0.0,1.0,-20.2439022064,-2.92682933807,13.4756097794,1.0,0.0,0.0,0.0,1.0,0.0,0.0,0.0,1.0,4.15633378977,-5.30555087891,-7.46033237305,1.0,0.0,0.0,0.0,1.0,0.0,0.0,0.0,1.0
1463502867550976091,390,1463502867549011773,,30.2502002716,24.9662399292,67.8386383057,0.00861299969256,1.0,0.0,0.0,0.0,1.0,0.0,0.0,0.0,1.0,-20.5487823486,-3.59756112099,12.9268293381,1.0,0.0,0.0,0.0,1.0,0.0,0.0,0.0,1.0,3.94564433594,-5.31512768555,-7.52258161621,1.0,0.0,0.0,0.0,1.0,0.0,0.0,0.0,1.0
1463502867561146328,391,1463502867559075551,,30.0785541534,24.8468856812,67.9564361572,0.010050999932,1.0,0.0,0.0,0.0,1.0,0.0,0.0,0.0,1.0,-22.8048782349,-2.74390244484,11.5243911743,1.0,0.0,0.0,0.0,1.0,0.0,0.0,0.0,1.0,4.09408483887,-5.49708701172,-7.50821640625,1.0,0.0,0.0,0.0,1.0,0.0,0.0,0.0,1.0
1463502867571252919,392,1463502867568953028,,29.8781147003,24.716047287,68.0576248169,0.00994099956006,1.0,0.0,0.0,0.0,1.0,0.0,0.0,0.0,1.0,-24.5121955872,-3.53658556938,10.7317075729,1.0,0.0,0.0,0.0,1.0,0.0,0.0,0.0,1.0,3.96479794922,-5.47314499512,-7.78115539551,1.0,0.0,0.0,0.0,1.0,0.0,0.0,0.0,1.0
1463502867582457528,393,1463502867580628522,,29.6619472504,24.5934505463,68.1335830688,0.0101600000635,1.0,0.0,0.0,0.0,1.0,0.0,0.0,0.0,1.0,-24.5731716156,-3.59756112099,7.86585378647,1.0,0.0,0.0,0.0,1.0,0.0,0.0,0.0,1.0,3.85466467285,-5.42526096191,-7.74284816895,1.0,0.0,0.0,0.0,1.0,0.0,0.0,0.0,1.0
1463502867591433601,394,1463502867590150687,,29.4589004517,24.4805316925,68.1926193237,0.00984300021082,1.0,0.0,0.0,0.0,1.0,0.0,0.0,0.0,1.0,-24.8780498505,-3.96341490746,5.67073154449,1.0,0.0,0.0,0.0,1.0,0.0,0.0,0.0,1.0,3.87381828613,-5.78917961426,-7.77157858887,1.0,0.0,0.0,0.0,1.0,0.0,0.0,0.0,1.0
1463502867602041909,395,1463502867600142799,,29.1807422638,24.3804283142,68.2320022583,0.0100170001388,1.0,0.0,0.0,0.0,1.0,0.0,0.0,0.0,1.0,-27.3780498505,-4.39024400711,5.73170757294,1.0,0.0,0.0,0.0,1.0,0.0,0.0,0.0,1.0,3.99831677246,-4.82192243582,-7.72369455566,1.0,0.0,0.0,0.0,1.0,0.0,0.0,0.0,1.0
1463502867613063550,396,1463502867610911680,,28.9047412872,24.2692928314,68.2740783691,0.00998099986464,1.0,0.0,0.0,0.0,1.0,0.0,0.0,0.0,1.0,-27.4390258789,-4.87804889679,6.21951246262,1.0,0.0,0.0,0.0,1.0,0.0,0.0,0.0,1.0,3.83072265625,-4.72615378489,-7.63271489258,1.0,0.0,0.0,0.0,1.0,0.0,0.0,0.0,1.0
1463502867623311130,397,1463502867620645407,,28.648651123,24.1324577332,68.3272171021,0.0100079998374,1.0,0.0,0.0,0.0,1.0,0.0,0.0,0.0,1.0,-28.2926845551,-6.34146356583,6.82926845551,1.0,0.0,0.0,0.0,1.0,0.0,0.0,0.0,1.0,3.71580097656,-5.21935961914,-7.6135612793,1.0,0.0,0.0,0.0,1.0,0.0,0.0,0.0,1.0
1463502867632780067,398,1463502867630821113,,28.325756073,23.9990577698,68.3724365234,0.0100229997188,1.0,0.0,0.0,0.0,1.0,0.0,0.0,0.0,1.0,-31.4024391174,-7.50000047684,8.23170757294,1.0,0.0,0.0,0.0,1.0,0.0,0.0,0.0,1.0,4.02704719238,-4.58729038086,-7.82425102539,1.0,0.0,0.0,0.0,1.0,0.0,0.0,0.0,1.0
1463502867641490723,399,1463502867639098958,,27.9889240265,23.8468093872,68.4326629639,0.00997400004417,1.0,0.0,0.0,0.0,1.0,0.0,0.0,0.0,1.0,-33.9024391174,-9.20731735229,10.4878053665,1.0,0.0,0.0,0.0,1.0,0.0,0.0,0.0,1.0,4.07014282227,-4.5489831543,-7.7332713623,1.0,0.0,0.0,0.0,1.0,0.0,0.0,0.0,1.0
1463502867654009028,400,1463502867648953883,,27.6406574249,23.6588973999,68.5102996826,0.00998600013554,1.0,0.0,0.0,0.0,1.0,0.0,0.0,0.0,1.0,-37.317073822,-11.5853662491,12.6219520569,1.0,0.0,0.0,0.0,1.0,0.0,0.0,0.0,1.0,3.96479794922,-4.79319201589,-7.64708010254,1.0,0.0,0.0,0.0,1.0,0.0,0.0,0.0,1.0
1463502867664355774,401,1463502867661783697,,27.1539592743,23.4138660431,68.6149139404,0.011103999801,1.0,0.0,0.0,0.0,1.0,0.0,0.0,0.0,1.0,-44.5121955872,-13.5365858078,16.4024391174,1.0,0.0,0.0,0.0,1.0,0.0,0.0,0.0,1.0,3.82114584961,-4.18506420969,-7.60398447266,1.0,0.0,0.0,0.0,1.0,0.0,0.0,0.0,1.0
1463502867671232633,402,1463502867669275450,,26.7327919006,23.1884937286,68.7304992676,0.0089090000838,1.0,0.0,0.0,0.0,1.0,0.0,0.0,0.0,1.0,-49.2682914734,-14.2073173523,20.2439022064,1.0,0.0,0.0,0.0,1.0,0.0,0.0,0.0,1.0,3.62482131348,-4.13239206543,-7.69017573242,1.0,0.0,0.0,0.0,1.0,0.0,0.0,0.0,1.0
1463502867681259745,403,1463502867679054073,,26.2377986908,22.9217586517,68.8886566162,0.0100109996274,1.0,0.0,0.0,0.0,1.0,0.0,0.0,0.0,1.0,-54.1463432312,-15.3658533096,22.7439041138,1.0,0.0,0.0,0.0,1.0,0.0,0.0,0.0,1.0,3.80199223633,-4.44842668457,-7.76679018555,1.0,0.0,0.0,0.0,1.0,0.0,0.0,0.0,1.0
1463502867692164616,404,1463502867689181862,,25.7055454254,22.63463974,69.0564346313,0.0102129997686,1.0,0.0,0.0,0.0,1.0,0.0,0.0,0.0,1.0,-58.0487823486,-16.8902435303,23.4146347046,1.0,0.0,0.0,0.0,1.0,0.0,0.0,0.0,1.0,3.64876333008,-4.41490786133,-7.47948598633,1.0,0.0,0.0,0.0,1.0,0.0,0.0,0.0,1.0
1463502867701126574,405,1463502867698901058,,25.1597938538,22.3534011841,69.2188262939,0.00977000035346,1.0,0.0,0.0,0.0,1.0,0.0,0.0,0.0,1.0,-61.4634132385,-16.2804889679,23.2317085266,1.0,0.0,0.0,0.0,1.0,0.0,0.0,0.0,1.0,3.35667072754,-4.2999864739,-7.58004245605,1.0,0.0,0.0,0.0,1.0,0.0,0.0,0.0,1.0
1463502867711286550,406,1463502867708963430,,24.5541229248,22.0553131104,69.3861846924,0.00999800022691,1.0,0.0,0.0,0.0,1.0,0.0,0.0,0.0,1.0,-64.8780441284,-17.134147644,24.0853652954,1.0,0.0,0.0,0.0,1.0,0.0,0.0,0.0,1.0,3.26090266113,-3.96958635254,-7.62313808594,1.0,0.0,0.0,0.0,1.0,0.0,0.0,0.0,1.0
1463502867721281735,407,1463502867718970907,,23.9378299713,21.7859687805,69.572517395,0.00999999977648,1.0,0.0,0.0,0.0,1.0,0.0,0.0,0.0,1.0,-67.9268264771,-16.0365848541,24.6341457367,1.0,0.0,0.0,0.0,1.0,0.0,0.0,0.0,1.0,3.57214887695,-4.13718046875,-7.60877287598,1.0,0.0,0.0,0.0,1.0,0.0,0.0,0.0,1.0
1463502867731264316,408,1463502867728981248,,23.2992668152,21.4838294983,69.7749481201,0.0100229997188,1.0,0.0,0.0,0.0,1.0,0.0,0.0,0.0,1.0,-71.8902435303,-18.475610733,26.4024391174,1.0,0.0,0.0,0.0,1.0,0.0,0.0,0.0,1.0,3.44765039062,-4.28083286062,-7.56088884277,1.0,0.0,0.0,0.0,1.0,0.0,0.0,0.0,1.0
1463502867741275803,409,1463502867739023985,,22.6329116821,21.1836051941,69.9819412231,0.00998300034553,1.0,0.0,0.0,0.0,1.0,0.0,0.0,0.0,1.0,-76.4634170532,-20.1829280853,26.7682933807,1.0,0.0,0.0,0.0,1.0,0.0,0.0,0.0,1.0,3.65834013672,-4.41490786133,-7.46033237305,1.0,0.0,0.0,0.0,1.0,0.0,0.0,0.0,1.0
1463502867751785570,410,1463502867750208230,,21.8857021332,20.8379573822,70.1769180298,0.00999100040644,1.0,0.0,0.0,0.0,1.0,0.0,0.0,0.0,1.0,-80.8536605835,-23.3536586761,27.8048782349,1.0,0.0,0.0,0.0,1.0,0.0,0.0,0.0,1.0,3.24653745117,-3.68228215332,-7.47948598633,1.0,0.0,0.0,0.0,1.0,0.0,0.0,0.0,1.0
1463502867761284975,411,1463502867758986178,,21.1376266479,20.4837398529,70.3645782471,0.0100100003183,1.0,0.0,0.0,0.0,1.0,0.0,0.0,0.0,1.0,-80.7317123413,-24.0853652954,26.7682933807,1.0,0.0,0.0,0.0,1.0,0.0,0.0,0.0,1.0,3.0406361084,-3.59609089355,-7.44117875977,1.0,0.0,0.0,0.0,1.0,0.0,0.0,0.0,1.0
1463502867770887244,412,1463502867768961520,,20.3508300781,20.1270923615,70.5303192139,0.00999100040644,1.0,0.0,0.0,0.0,1.0,0.0,0.0,0.0,1.0,-81.0975646973,-26.4634151459,26.2195129395,1.0,0.0,0.0,0.0,1.0,0.0,0.0,0.0,1.0,3.15555778809,-2.9927520752,-7.47469758301,1.0,0.0,0.0,0.0,1.0,0.0,0.0,0.0,1.0
1463502867782632842,413,1463502867779633526,,19.6163959503,19.7950496674,70.7095336914,0.00999999977648,1.0,0.0,0.0,0.0,1.0,0.0,0.0,0.0,1.0,-79.2682952881,-27.0731716156,26.0975627899,1.0,0.0,0.0,0.0,1.0,0.0,0.0,0.0,1.0,3.56257207031,-3.3710359375,-7.32625708008,1.0,0.0,0.0,0.0,1.0,0.0,0.0,0.0,1.0
1463502867793380942,414,1463502867789369389,,18.8994426727,19.4152069092,70.8863677979,0.0100250001997,1.0,0.0,0.0,0.0,1.0,0.0,0.0,0.0,1.0,-79.1463470459,-30.4878044128,25.7926845551,1.0,0.0,0.0,0.0,1.0,0.0,0.0,0.0,1.0,3.24653745117,-3.61524450684,-7.34062229004,1.0,0.0,0.0,0.0,1.0,0.0,0.0,0.0,1.0
1463502867801984359,415,1463502867799014679,,18.1496620178,19.0208530426,71.0825424194,0.00997299980372,1.0,0.0,0.0,0.0,1.0,0.0,0.0,0.0,1.0,-81.707321167,-33.3536605835,28.9634151459,1.0,0.0,0.0,0.0,1.0,0.0,0.0,0.0,1.0,3.3710359375,-3.14598098145,-7.19697019043,1.0,0.0,0.0,0.0,1.0,0.0,0.0,0.0,1.0
1463502867811712774,416,1463502867809161530,,17.3845348358,18.5763988495,71.2945022583,0.010050999932,1.0,0.0,0.0,0.0,1.0,0.0,0.0,0.0,1.0,-83.4146347046,-37.1951255798,30.9146327972,1.0,0.0,0.0,0.0,1.0,0.0,0.0,0.0,1.0,3.29442148437,-3.20344182129,-7.43160195312,1.0,0.0,0.0,0.0,1.0,0.0,0.0,0.0,1.0
1463502867821726032,417,1463502867819290152,,16.5929737091,18.0943431854,71.5130615234,0.0100250001997,1.0,0.0,0.0,0.0,1.0,0.0,0.0,0.0,1.0,-85.1219558716,-41.1585350037,32.682926178,1.0,0.0,0.0,0.0,1.0,0.0,0.0,0.0,1.0,3.14598098145,-2.82036955566,-7.28794985352,1.0,0.0,0.0,0.0,1.0,0.0,0.0,0.0,1.0
1463502867831877466,418,1463502867829149400,,15.7479734421,17.5768642426,71.7310333252,0.0100060002878,1.0,0.0,0.0,0.0,1.0,0.0,0.0,0.0,1.0,-86.8902435303,-43.5975608826,33.9024391174,1.0,0.0,0.0,0.0,1.0,0.0,0.0,0.0,1.0,2.92571442871,-2.22660754395,-7.61834968262,1.0,0.0,0.0,0.0,1.0,0.0,0.0,0.0,1.0
1463502867841232236,419,1463502867838952710,,14.9145545959,17.0302467346,71.95337677,0.00991799961776,1.0,0.0,0.0,0.0,1.0,0.0,0.0,0.0,1.0,-85.6707305908,-46.4634170532,34.817073822,1.0,0.0,0.0,0.0,1.0,0.0,0.0,0.0,1.0,2.7102362793,-1.97761057129,-7.61834968262,1.0,0.0,0.0,0.0,1.0,0.0,0.0,0.0,1.0
1463502867851733618,420,1463502867849287790,,14.141295433,16.4911117554,72.1870498657,0.0100570004433,1.0,0.0,0.0,0.0,1.0,0.0,0.0,0.0,1.0,-82.5,-47.5609779358,33.9024391174,1.0,0.0,0.0,0.0,1.0,0.0,0.0,0.0,1.0,2.83952316895,-2.37025978969,-7.22570061035,1.0,0.0,0.0,0.0,1.0,0.0,0.0,0.0,1.0
1463502867861755678,421,1463502867859406777,,13.3968048096,15.9250555038,72.419708252,0.0100050000474,1.0,0.0,0.0,0.0,1.0,0.0,0.0,0.0,1.0,-80.792678833,-48.5975608826,33.1707305908,1.0,0.0,0.0,0.0,1.0,0.0,0.0,0.0,1.0,2.49475812988,-2.50433493652,-7.52737001953,1.0,0.0,0.0,0.0,1.0,0.0,0.0,0.0,1.0
1463502867872099456,422,1463502867869046703,,12.6544723511,15.3619318008,72.6605987549,0.00995699968189,1.0,0.0,0.0,0.0,1.0,0.0,0.0,0.0,1.0,-80.8536605835,-49.634147644,33.7195129395,1.0,0.0,0.0,0.0,1.0,0.0,0.0,0.0,1.0,2.58573779297,-2.4277204834,-7.69017573242,1.0,0.0,0.0,0.0,1.0,0.0,0.0,0.0,1.0
1463502867881963808,423,1463502867879131731,,11.9030046463,14.788233757,72.9104614258,0.00999599974602,1.0,0.0,0.0,0.0,1.0,0.0,0.0,0.0,1.0,-81.341468811,-51.1585388184,34.2073173523,1.0,0.0,0.0,0.0,1.0,0.0,0.0,0.0,1.0,2.58094938965,-2.31758720703,-7.75721337891,1.0,0.0,0.0,0.0,1.0,0.0,0.0,0.0,1.0
1463502867891729462,424,1463502867889174051,,11.1470050812,14.1786298752,73.161491394,0.0100400000811,1.0,0.0,0.0,0.0,1.0,0.0,0.0,0.0,1.0,-79.0853652954,-52.6829299927,34.3902435303,1.0,0.0,0.0,0.0,1.0,0.0,0.0,0.0,1.0,2.1930887207,-1.9105729248,-7.95353791504,1.0,0.0,0.0,0.0,1.0,0.0,0.0,0.0,1.0
1463502867901730637,425,1463502867899215018,,10.4195346832,13.5765457153,73.4132766724,0.00996000040323,1.0,0.0,0.0,0.0,1.0,0.0,0.0,0.0,1.0,-76.8292694092,-53.9634170532,34.1463432312,1.0,0.0,0.0,0.0,1.0,0.0,0.0,0.0,1.0,2.30322199707,-1.85311208496,-8.05409438477,1.0,0.0,0.0,0.0,1.0,0.0,0.0,0.0,1.0
1463502867912043269,426,1463502867909188953,,9.72336483002,12.94713974,73.6854400635,0.010006999597,1.0,0.0,0.0,0.0,1.0,0.0,0.0,0.0,1.0,-74.4512252808,-54.7560997009,35.2439041138,1.0,0.0,0.0,0.0,1.0,0.0,0.0,0.0,1.0,1.95366855469,-1.90578452148,-8.13549724121,1.0,0.0,0.0,0.0,1.0,0.0,0.0,0.0,1.0
1463502867922060433,427,1463502867919005180,,9.04431152344,12.3181333542,73.974609375,0.00997800007463,1.0,0.0,0.0,0.0,1.0,0.0,0.0,0.0,1.0,-71.8902435303,-55.3048820496,36.7073173523,1.0,0.0,0.0,0.0,1.0,0.0,0.0,0.0,1.0,1.93930334473,-1.65678754883,-8.3270327895,1.0,0.0,0.0,0.0,1.0,0.0,0.0,0.0,1.0
1463502867931520307,428,1463502867929427030,,8.40519618988,11.6815919876,74.2931518555,0.0100520001724,1.0,0.0,0.0,0.0,1.0,0.0,0.0,0.0,1.0,-69.0853652954,-55.6707344055,38.4756126404,1.0,0.0,0.0,0.0,1.0,0.0,0.0,0.0,1.0,1.84832368164,-1.78128603516,-8.33182119282,1.0,0.0,0.0,0.0,1.0,0.0,0.0,0.0,1.0
1463502867941729085,429,1463502867939580080,,7.79538631439,11.0437889099,74.6339569092,0.0100010000169,1.0,0.0,0.0,0.0,1.0,0.0,0.0,0.0,1.0,-67.3170776367,-56.2804870605,40.1829299927,1.0,0.0,0.0,0.0,1.0,0.0,0.0,0.0,1.0,1.7669208252,-1.80522805176,-8.3749168227,1.0,0.0,0.0,0.0,1.0,0.0,0.0,0.0,1.0
1463502867951718280,430,1463502867949296411,,7.19871997833,10.3906517029,74.9945755005,0.0100029995665,1.0,0.0,0.0,0.0,1.0,0.0,0.0,0.0,1.0,-66.1585388184,-57.134147644,41.6463432312,1.0,0.0,0.0,0.0,1.0,0.0,0.0,0.0,1.0,1.57059628906,-1.77649763184,-8.57124252788,1.0,0.0,0.0,0.0,1.0,0.0,0.0,0.0,1.0
1463502867962856275,431,1463502867959354461,,6.60986566544,9.74677753448,75.3721618652,0.0100039998069,1.0,0.0,0.0,0.0,1.0,0.0,0.0,0.0,1.0,-64.8780441284,-58.2317085266,42.9878044128,1.0,0.0,0.0,0.0,1.0,0.0,0.0,0.0,1.0,1.78128603516,-1.64721074219,-8.71010563965,1.0,0.0,0.0,0.0,1.0,0.0,0.0,0.0,1.0
1463502867971672453,432,1463502867969161365,,6.0255188942,9.08311080933,75.7336807251,0.00994899962097,1.0,0.0,0.0,0.0,1.0,0.0,0.0,0.0,1.0,-62.0731735229,-59.5731735229,41.5243911743,1.0,0.0,0.0,0.0,1.0,0.0,0.0,0.0,1.0,1.4844050293,-1.27850368652,-9.11233151855,1.0,0.0,0.0,0.0,1.0,0.0,0.0,0.0,1.0
1463502867981725398,433,1463502867979466809,,5.4664721489,8.37469482422,76.0742034912,0.0100109996274,1.0,0.0,0.0,0.0,1.0,0.0,0.0,0.0,1.0,-57.6219482422,-60.4878044128,38.8414649963,1.0,0.0,0.0,0.0,1.0,0.0,0.0,0.0,1.0,0.751779321289,-1.0534486574,-9.1219083252,1.0,0.0,0.0,0.0,1.0,0.0,0.0,0.0,1.0
1463502867991777927,434,1463502867989309755,,4.96620368958,7.6961722374,76.4190063477,0.010045000352,1.0,0.0,0.0,0.0,1.0,0.0,0.0,0.0,1.0,-53.9024391174,-58.7195129395,38.0487823486,1.0,0.0,0.0,0.0,1.0,0.0,0.0,0.0,1.0,0.828393774414,-1.43652099609,-9.2942902602,1.0,0.0,0.0,0.0,1.0,0.0,0.0,0.0,1.0
1463502868001797643,435,1463502867999241867,,4.47865438461,7.03458547592,76.7515029907,0.00997699983418,1.0,0.0,0.0,0.0,1.0,0.0,0.0,0.0,1.0,-50.9146347046,-58.9634132385,36.8292694092,1.0,0.0,0.0,0.0,1.0,0.0,0.0,0.0,1.0,0.905008227539,-1.10612116699,-9.39484672993,1.0,0.0,0.0,0.0,1.0,0.0,0.0,0.0,1.0
1463502868011909963,436,1463502868009075178,,4.0335021019,6.39836359024,77.089012146,0.0100159998983,1.0,0.0,0.0,0.0,1.0,0.0,0.0,0.0,1.0,-47.317073822,-58.6585388184,36.5853652954,1.0,0.0,0.0,0.0,1.0,0.0,0.0,0.0,1.0,1.18273554705,-1.24019645996,-9.52413478862,1.0,0.0,0.0,0.0,1.0,0.0,0.0,0.0,1.0
1463502868022205772,437,1463502868019029842,,3.64201641083,5.76493215561,77.4271087646,0.00994700007141,1.0,0.0,0.0,0.0,1.0,0.0,0.0,0.0,1.0,-44.5731735229,-58.3536605835,36.1585350037,1.0,0.0,0.0,0.0,1.0,0.0,0.0,0.0,1.0,0.948103857422,-1.62805712891,-9.50976957866,1.0,0.0,0.0,0.0,1.0,0.0,0.0,0.0,1.0
1463502868031600021,438,1463502868029340391,,3.23055744171,5.13640737534,77.7700576782,0.0100830001757,1.0,0.0,0.0,0.0,1.0,0.0,0.0,0.0,1.0,-43.4756126404,-57.8658561707,36.0365867615,1.0,0.0,0.0,0.0,1.0,0.0,0.0,0.0,1.0,0.948103857422,-1.1875240965,-9.55765361187,1.0,0.0,0.0,0.0,1.0,0.0,0.0,0.0,1.0
1463502868042141090,439,1463502868039212451,,2.85256719589,4.51827526093,78.1028442383,0.00993799977005,1.0,0.0,0.0,0.0,1.0,0.0,0.0,0.0,1.0,-40.7926826477,-58.1097564697,35.1219520569,1.0,0.0,0.0,0.0,1.0,0.0,0.0,0.0,1.0,0.866701000977,-1.21625444336,-9.65821008159,1.0,0.0,0.0,0.0,1.0,0.0,0.0,0.0,1.0
1463502868051390444,440,1463502868049005605,,2.49103760719,3.91914534569,78.4442672729,0.00997500028461,1.0,0.0,0.0,0.0,1.0,0.0,0.0,0.0,1.0,-39.9390258789,-56.6463394165,35.3658561707,1.0,0.0,0.0,0.0,1.0,0.0,0.0,0.0,1.0,0.837970581055,-1.35990654297,-9.60553764507,1.0,0.0,0.0,0.0,1.0,0.0,0.0,0.0,1.0
1463502868061971773,441,1463502868059190582,,2.13054871559,3.30278325081,78.8019638062,0.0100999996066,1.0,0.0,0.0,0.0,1.0,0.0,0.0,0.0,1.0,-39.4512214661,-56.6463394165,36.2195129395,1.0,0.0,0.0,0.0,1.0,0.0,0.0,0.0,1.0,0.536301208408,-1.35032973633,-9.56244201519,1.0,0.0,0.0,0.0,1.0,0.0,0.0,0.0,1.0
1463502868071525345,442,1463502868069358370,,1.75521159172,2.71126627922,79.1702804565,0.00999199971557,1.0,0.0,0.0,0.0,1.0,0.0,0.0,0.0,1.0,-39.2073173523,-55.9146347046,37.4390220642,1.0,0.0,0.0,0.0,1.0,0.0,0.0,0.0,1.0,0.593762048251,-0.986411083984,-9.67736311035,1.0,0.0,0.0,0.0,1.0,0.0,0.0,0.0,1.0
1463502868081696675,443,1463502868079138348,,1.38906812668,2.13448309898,79.5572738647,0.00994999986142,1.0,0.0,0.0,0.0,1.0,0.0,0.0,0.0,1.0,-39.0243911743,-55.4268302917,39.0853652954,1.0,0.0,0.0,0.0,1.0,0.0,0.0,0.0,1.0,0.579396801758,-1.05823706072,-9.5432884019,1.0,0.0,0.0,0.0,1.0,0.0,0.0,0.0,1.0
1463502868092141963,444,1463502868089184418,,1.02259790897,1.56481087208,79.9648513794,0.0100060002878,1.0,0.0,0.0,0.0,1.0,0.0,0.0,0.0,1.0,-38.1707305908,-54.9390258789,40.6097564697,1.0,0.0,0.0,0.0,1.0,0.0,0.0,0.0,1.0,0.550666381836,-0.957680664062,-9.76834277344,1.0,0.0,0.0,0.0,1.0,0.0,0.0,0.0,1.0
1463502868102288033,445,1463502868099013926,,0.67768651247,0.983117580414,80.3769378662,0.00995900016278,1.0,0.0,0.0,0.0,1.0,0.0,0.0,0.0,1.0,-36.9512214661,-55.3048820496,40.9146385193,1.0,0.0,0.0,0.0,1.0,0.0,0.0,0.0,1.0,0.220266552734,-1.11569797363,-9.93593688965,1.0,0.0,0.0,0.0,1.0,0.0,0.0,0.0,1.0
1463502868111654990,446,1463502868109312808,,0.355903416872,0.410604983568,80.7781600952,0.0100849997252,1.0,0.0,0.0,0.0,1.0,0.0,0.0,0.0,1.0,-34.9390258789,-54.6951217651,39.0243911743,1.0,0.0,0.0,0.0,1.0,0.0,0.0,0.0,1.0,0.253785375977,-1.25456166992,-9.88805285645,1.0,0.0,0.0,0.0,1.0,0.0,0.0,0.0,1.0
1463502868121700644,447,1463502868119448566,,0.0126852039248,-0.157123118639,81.1921157837,0.0103249996901,1.0,0.0,0.0,0.0,1.0,0.0,0.0,0.0,1.0,-33.5365867615,-53.9634170532,39.0853652954,1.0,0.0,0.0,0.0,1.0,0.0,0.0,0.0,1.0,0.325611425781,-0.857124194336,-10.8313683105,1.0,0.0,0.0,0.0,1.0,0.0,0.0,0.0,1.0
1463502868131667340,448,1463502868129481928,,-0.250443726778,-0.688844799995,81.5663909912,0.00965700019151,1.0,0.0,0.0,0.0,1.0,0.0,0.0,0.0,1.0,-29.8170719147,-52.9268302917,37.5,1.0,0.0,0.0,0.0,1.0,0.0,0.0,0.0,1.0,-0.0335188255255,-1.23061965332,-10.2136642822,1.0,0.0,0.0,0.0,1.0,0.0,0.0,0.0,1.0
1463502868141631066,449,1463502868139207843,,-0.555883407593,-1.22213149071,81.9593963623,0.0100239999592,1.0,0.0,0.0,0.0,1.0,0.0,0.0,0.0,1.0,-27.6219520569,-51.8902435303,37.682926178,1.0,0.0,0.0,0.0,1.0,0.0,0.0,0.0,1.0,-0.0143652099609,-0.248996972656,-9.57201882183,1.0,0.0,0.0,0.0,1.0,0.0,0.0,0.0,1.0
1463502868151496304,450,1463502868149074643,,-0.833724737167,-1.7430434227,82.3438186646,0.00993300043046,1.0,0.0,0.0,0.0,1.0,0.0,0.0,0.0,1.0,-25.975610733,-50.7926826477,36.9512214661,1.0,0.0,0.0,0.0,1.0,0.0,0.0,0.0,1.0,-0.205901342773,-0.426167895508,-10.180145459,1.0,0.0,0.0,0.0,1.0,0.0,0.0,0.0,1.0
1463502868161468520,451,1463502868159046911,,-1.10343372822,-2.23523974419,82.7458114624,0.00997900031507,1.0,0.0,0.0,0.0,1.0,0.0,0.0,0.0,1.0,-23.7804889679,-49.5731735229,38.2926864624,1.0,0.0,0.0,0.0,1.0,0.0,0.0,0.0,1.0,0.00478840332031,-0.205901342773,-9.39005832661,1.0,0.0,0.0,0.0,1.0,0.0,0.0,0.0,1.0
1463502868171654330,452,1463502868169314439,,-1.33795511723,-2.73129606247,83.160118103,0.0100779999048,1.0,0.0,0.0,0.0,1.0,0.0,0.0,0.0,1.0,-20.4878044128,-47.8048782349,38.9634132385,1.0,0.0,0.0,0.0,1.0,0.0,0.0,0.0,1.0,-0.407014282227,-0.320823022461,-9.94072529297,1.0,0.0,0.0,0.0,1.0,0.0,0.0,0.0,1.0
1463502868181715139,453,1463502868179101604,,-1.51742219925,-3.21241402626,83.5534515381,0.00993099994957,1.0,0.0,0.0,0.0,1.0,0.0,0.0,0.0,1.0,-17.8048782349,-47.5,37.4390220642,1.0,0.0,0.0,0.0,1.0,0.0,0.0,0.0,1.0,-0.430956298828,-0.775721337891,-9.96945571289,1.0,0.0,0.0,0.0,1.0,0.0,0.0,0.0,1.0
1463502868191331159,454,1463502868189033872,,-1.65505945683,-3.67329001427,83.9301376343,0.00997800007463,1.0,0.0,0.0,0.0,1.0,0.0,0.0,0.0,1.0,-14.7560987473,-45.9756088257,35.6097564697,1.0,0.0,0.0,0.0,1.0,0.0,0.0,0.0,1.0,-0.402225878906,-1.01992990723,-10.1466266357,1.0,0.0,0.0,0.0,1.0,0.0,0.0,0.0,1.0
1463502868201450718,455,1463502868199007599,,-1.80439579487,-4.12137508392,84.2973251343,0.0100010000169,1.0,0.0,0.0,0.0,1.0,0.0,0.0,0.0,1.0,-13.5365858078,-45.0,34.3902435303,1.0,0.0,0.0,0.0,1.0,0.0,0.0,0.0,1.0,-0.421379492187,-0.60812722168,-10.1274730225,1.0,0.0,0.0,0.0,1.0,0.0,0.0,0.0,1.0
1463502868211811267,456,1463502868209298460,,-1.92205166817,-4.5554728508,84.6646270752,0.0100910002366,1.0,0.0,0.0,0.0,1.0,0.0,0.0,0.0,1.0,-9.51219558716,-44.6951217651,33.9634132385,1.0,0.0,0.0,0.0,1.0,0.0,0.0,0.0,1.0,-0.248996972656,-0.493205541992,-10.1322614258,1.0,0.0,0.0,0.0,1.0,0.0,0.0,0.0,1.0
1463502868221387338,457,1463502868219076354,,-2.00374102592,-4.97721815109,85.0147476196,0.00992699991912,1.0,0.0,0.0,0.0,1.0,0.0,0.0,0.0,1.0,-5.91463422775,-43.7804870605,32.8048782349,1.0,0.0,0.0,0.0,1.0,0.0,0.0,0.0,1.0,-0.397437475586,-0.474051928711,-10.1035310059,1.0,0.0,0.0,0.0,1.0,0.0,0.0,0.0,1.0
1463502868232002887,458,1463502868229152633,,-2.07414126396,-5.38946676254,85.3653793335,0.0100819999352,1.0,0.0,0.0,0.0,1.0,0.0,0.0,0.0,1.0,-2.5,-42.682926178,32.134147644,1.0,0.0,0.0,0.0,1.0,0.0,0.0,0.0,1.0,-0.373495458984,-0.105344873047,-9.72045874023,1.0,0.0,0.0,0.0,1.0,0.0,0.0,0.0,1.0
1463502868241342656,459,1463502868239348547,,-2.1075861454,-5.80661916733,85.7087783813,0.0099060004577,1.0,0.0,0.0,0.0,1.0,0.0,0.0,0.0,1.0,0.792682945728,-41.5243911743,32.0731697083,1.0,0.0,0.0,0.0,1.0,0.0,0.0,0.0,1.0,-0.837970581055,-0.186747729492,-9.48103915874,1.0,0.0,0.0,0.0,1.0,0.0,0.0,0.0,1.0
1463502868252266016,460,1463502868249266700,,-2.131534338,-6.2072763443,86.0550231934,0.0100760003552,1.0,0.0,0.0,0.0,1.0,0.0,0.0,0.0,1.0,2.86585378647,-38.6585388184,31.7682914734,1.0,0.0,0.0,0.0,1.0,0.0,0.0,0.0,1.0,-1.03429511719,-0.0383072265625,-9.84016882324,1.0,0.0,0.0,0.0,1.0,0.0,0.0,0.0,1.0
1463502868262430055,461,1463502868259201417,,-2.11740779877,-6.58526706696,86.3948669434,0.00993799977005,1.0,0.0,0.0,0.0,1.0,0.0,0.0,0.0,1.0,5.36585378647,-36.6463432312,31.8292694092,1.0,0.0,0.0,0.0,1.0,0.0,0.0,0.0,1.0,-1.19231249982,-0.31124621582,-10.1705686523,1.0,0.0,0.0,0.0,1.0,0.0,0.0,0.0,1.0
1463502868271664200,462,1463502868269396341,,-2.07499742508,-6.9422917366,86.7346496582,0.0102359997109,1.0,0.0,0.0,0.0,1.0,0.0,0.0,0.0,1.0,6.7682929039,-34.5731735229,31.0975627899,1.0,0.0,0.0,0.0,1.0,0.0,0.0,0.0,1.0,-1.05823706072,-0.574608398438,-10.2088758789,1.0,0.0,0.0,0.0,1.0,0.0,0.0,0.0,1.0
1463502868281474750,463,1463502868279018037,,-2.02437114716,-7.26970815659,87.0427474976,0.00975100044161,1.0,0.0,0.0,0.0,1.0,0.0,0.0,0.0,1.0,8.78048801422,-34.0853691101,29.4512195587,1.0,0.0,0.0,0.0,1.0,0.0,0.0,0.0,1.0,-0.986411083984,-0.416591088867,-10.4913916748,1.0,0.0,0.0,0.0,1.0,0.0,0.0,0.0,1.0
1463502868291341029,464,1463502868289296347,,-1.93442440033,-7.59080266953,87.3412246704,0.0100840004161,1.0,0.0,0.0,0.0,1.0,0.0,0.0,0.0,1.0,10.3048782349,-33.6585388184,27.8048782349,1.0,0.0,0.0,0.0,1.0,0.0,0.0,0.0,1.0,-0.76135612793,-0.804451757813,-10.2184526855,1.0,0.0,0.0,0.0,1.0,0.0,0.0,0.0,1.0
1463502868302339597,465,1463502868299228042,,-1.84000706673,-7.92218160629,87.6171569824,0.00996199995279,1.0,0.0,0.0,0.0,1.0,0.0,0.0,0.0,1.0,9.26829242706,-33.0487823486,26.2195129395,1.0,0.0,0.0,0.0,1.0,0.0,0.0,0.0,1.0,-1.21625444336,-1.14921679688,-10.6206785645,1.0,0.0,0.0,0.0,1.0,0.0,0.0,0.0,1.0
1463502868311632128,466,1463502868309042238,,-1.80659806728,-8.23036766052,87.9160003662,0.00994999986142,1.0,0.0,0.0,0.0,1.0,0.0,0.0,0.0,1.0,7.62195110321,-30.6097583771,28.1097564697,1.0,0.0,0.0,0.0,1.0,0.0,0.0,0.0,1.0,-1.25935007324,-0.383072265625,-10.1609918457,1.0,0.0,0.0,0.0,1.0,0.0,0.0,0.0,1.0
1463502868322032260,467,1463502868319190287,,-1.7705218792,-8.51444149017,88.2212524414,0.0100010000169,1.0,0.0,0.0,0.0,1.0,0.0,0.0,0.0,1.0,7.74390268326,-28.6585388184,28.7195110321,1.0,0.0,0.0,0.0,1.0,0.0,0.0,0.0,1.0,-1.19231249982,-0.450109912109,-10.0795889893,1.0,0.0,0.0,0.0,1.0,0.0,0.0,0.0,1.0
1463502868331820518,468,1463502868329286149,,-1.74441599846,-8.80712223053,88.5434570312,0.0100790001452,1.0,0.0,0.0,0.0,1.0,0.0,0.0,0.0,1.0,7.80487823486,-28.475610733,30.0609760284,1.0,0.0,0.0,0.0,1.0,0.0,0.0,0.0,1.0,-1.35511813965,-0.320823022461,-9.7827079834,1.0,0.0,0.0,0.0,1.0,0.0,0.0,0.0,1.0
1463502868341605183,469,1463502868339416282,,-1.6897329092,-9.08269882202,88.8543243408,0.0100079998374,1.0,0.0,0.0,0.0,1.0,0.0,0.0,0.0,1.0,7.98780536652,-25.5487804413,29.6951236725,1.0,0.0,0.0,0.0,1.0,0.0,0.0,0.0,1.0,-1.69509477539,-0.833182177734,-10.0508585693,1.0,0.0,0.0,0.0,1.0,0.0,0.0,0.0,1.0
1463502868351514639,470,1463502868349098603,,-1.64208042622,-9.3436794281,89.1511993408,0.00990900024772,1.0,0.0,0.0,0.0,1.0,0.0,0.0,0.0,1.0,8.90243911743,-24.4512195587,28.4146347046,1.0,0.0,0.0,0.0,1.0,0.0,0.0,0.0,1.0,-1.71903679199,-0.550666381836,-10.0700121826,1.0,0.0,0.0,0.0,1.0,0.0,0.0,0.0,1.0
1463502868361479407,471,1463502868359038475,,-1.53706991673,-9.56704235077,89.4176940918,0.0100119998679,1.0,0.0,0.0,0.0,1.0,0.0,0.0,0.0,1.0,9.39024448395,-21.2804889679,26.0365848541,1.0,0.0,0.0,0.0,1.0,0.0,0.0,0.0,1.0,-1.59932670898,-1.45567460937,-10.1609918457,1.0,0.0,0.0,0.0,1.0,0.0,0.0,0.0,1.0
1463502868371363655,472,1463502868369096473,,-1.48366320133,-9.78085803986,89.6776657104,0.00999400019646,1.0,0.0,0.0,0.0,1.0,0.0,0.0,0.0,1.0,7.86585378647,-21.2804889679,24.8780498505,1.0,0.0,0.0,0.0,1.0,0.0,0.0,0.0,1.0,-1.49398183594,-0.809240161133,-10.3764699951,1.0,0.0,0.0,0.0,1.0,0.0,0.0,0.0,1.0
1463502868382336806,473,1463502868379124314,,-1.4173681736,-9.96480846405,89.9274673462,0.0100010000169,1.0,0.0,0.0,0.0,1.0,0.0,0.0,0.0,1.0,8.96341514587,-19.0853652954,23.9634151459,1.0,0.0,0.0,0.0,1.0,0.0,0.0,0.0,1.0,-1.32638771973,-0.809240161133,-10.0269165527,1.0,0.0,0.0,0.0,1.0,0.0,0.0,0.0,1.0
1463502868398742081,474,1463502868395030735,,-1.36159300804,-10.1637792587,90.203666687,0.0105820000172,1.0,0.0,0.0,0.0,1.0,0.0,0.0,0.0,1.0,7.13414621353,-18.2926826477,25.2439041138,1.0,0.0,0.0,0.0,1.0,0.0,0.0,0.0,1.0,-1.55144267578,-0.948103857422,-9.86411083984,1.0,0.0,0.0,0.0,1.0,0.0,0.0,0.0,1.0
1463502868405971543,475,1463502868403090091,,-1.3133392334,-10.4178295135,90.5599517822,0.0131639996544,1.0,0.0,0.0,0.0,1.0,0.0,0.0,0.0,1.0,5.12195110321,-18.2317085266,26.3414649963,1.0,0.0,0.0,0.0,1.0,0.0,0.0,0.0,1.0,-1.70467158203,-1.09654436035,-9.96945571289,1.0,0.0,0.0,0.0,1.0,0.0,0.0,0.0,1.0
1463502868413898608,476,1463502868409373618,,-1.29984867573,-10.5350675583,90.7412567139,0.00653999997303,1.0,0.0,0.0,0.0,1.0,0.0,0.0,0.0,1.0,4.14634132385,-17.3780498505,26.9512195587,1.0,0.0,0.0,0.0,1.0,0.0,0.0,0.0,1.0,-1.62805712891,-1.01035310059,-9.80186159668,1.0,0.0,0.0,0.0,1.0,0.0,0.0,0.0,1.0
1463502868423837960,477,1463502868421289893,,-1.30135893822,-10.7121496201,91.0192642212,0.00980800017715,1.0,0.0,0.0,0.0,1.0,0.0,0.0,0.0,1.0,1.58536589146,-16.7073173523,27.682926178,1.0,0.0,0.0,0.0,1.0,0.0,0.0,0.0,1.0,-1.90099611816,-1.17794714373,-10.3860468018,1.0,0.0,0.0,0.0,1.0,0.0,0.0,0.0,1.0
1463502868433726947,478,1463502868428994145,,-1.33006238937,-10.8818426132,91.3004455566,0.00990900024772,1.0,0.0,0.0,0.0,1.0,0.0,0.0,0.0,1.0,-1.03658533096,-15.1219511032,27.7439041138,1.0,0.0,0.0,0.0,1.0,0.0,0.0,0.0,1.0,-1.95366855469,-1.11569797363,-9.84495722656,1.0,0.0,0.0,0.0,1.0,0.0,0.0,0.0,1.0
1463502868442562135,479,1463502868438916258,,-1.38446724415,-11.0491542816,91.5845108032,0.00998799968511,1.0,0.0,0.0,0.0,1.0,0.0,0.0,0.0,1.0,-3.7804877758,-14.7560987473,27.8658542633,1.0,0.0,0.0,0.0,1.0,0.0,0.0,0.0,1.0,-2.05901342773,-1.20667770978,-10.2040874756,1.0,0.0,0.0,0.0,1.0,0.0,0.0,0.0,1.0
1463502868451314770,480,1463502868449195661,,-1.47566318512,-11.1832313538,91.8637313843,0.0100020002574,1.0,0.0,0.0,0.0,1.0,0.0,0.0,0.0,1.0,-5.97560977936,-13.5975618362,27.0731716156,1.0,0.0,0.0,0.0,1.0,0.0,0.0,0.0,1.0,-1.64242233887,-0.881066210937,-9.94551369629,1.0,0.0,0.0,0.0,1.0,0.0,0.0,0.0,1.0
1463502868461897298,481,1463502868458949805,,-1.58486247063,-11.3080244064,92.1316452026,0.00999800022691,1.0,0.0,0.0,0.0,1.0,0.0,0.0,0.0,1.0,-6.21951246262,-13.658536911,25.6097564697,1.0,0.0,0.0,0.0,1.0,0.0,0.0,0.0,1.0,-1.53707746582,-0.565031591797,-10.2376062988,1.0,0.0,0.0,0.0,1.0,0.0,0.0,0.0,1.0
1463502868471768785,482,1463502868468979781,,-1.68524289131,-11.4397373199,92.3859863281,0.010006999597,1.0,0.0,0.0,0.0,1.0,0.0,0.0,0.0,1.0,-5.54878091812,-14.5121955872,24.2073173523,1.0,0.0,0.0,0.0,1.0,0.0,0.0,0.0,1.0,-1.49877023926,-0.536301208408,-10.0317049561,1.0,0.0,0.0,0.0,1.0,0.0,0.0,0.0,1.0
1463502868481715324,483,1463502868478969237,,-1.77285766602,-11.5810127258,92.623298645,0.0100189996883,1.0,0.0,0.0,0.0,1.0,0.0,0.0,0.0,1.0,-4.87804889679,-14.3292694092,22.5609760284,1.0,0.0,0.0,0.0,1.0,0.0,0.0,0.0,1.0,-1.69988317871,-0.574608398438,-9.88805285645,1.0,0.0,0.0,0.0,1.0,0.0,0.0,0.0,1.0
1463502868491824884,484,1463502868488957912,,-1.84916543961,-11.7408742905,92.8523406982,0.00999400019646,1.0,0.0,0.0,0.0,1.0,0.0,0.0,0.0,1.0,-4.75609779358,-15.0000009537,21.9512195587,1.0,0.0,0.0,0.0,1.0,0.0,0.0,0.0,1.0,-1.96324536133,-0.732625708008,-9.96466730957,1.0,0.0,0.0,0.0,1.0,0.0,0.0,0.0,1.0
1463502868502314964,485,1463502868499104034,,-1.92664730549,-11.9045438766,93.0771026611,0.00999800022691,1.0,0.0,0.0,0.0,1.0,0.0,0.0,0.0,1.0,-5.73170757294,-14.2073173523,21.7073173523,1.0,0.0,0.0,0.0,1.0,0.0,0.0,0.0,1.0,-2.21224233398,-0.881066210937,-9.97424411621,1.0,0.0,0.0,0.0,1.0,0.0,0.0,0.0,1.0
1463502868512115618,486,1463502868508979636,,-2.01786828041,-12.0529718399,93.2989120483,0.0100389998406,1.0,0.0,0.0,0.0,1.0,0.0,0.0,0.0,1.0,-6.95121955872,-12.5,21.341463089,1.0,0.0,0.0,0.0,1.0,0.0,0.0,0.0,1.0,-2.27927998047,-0.847547387695,-10.0221281494,1.0,0.0,0.0,0.0,1.0,0.0,0.0,0.0,1.0
1463502868521752627,487,1463502868518941071,,-2.11732912064,-12.177148819,93.5139923096,0.00995699968189,1.0,0.0,0.0,0.0,1.0,0.0,0.0,0.0,1.0,-7.62195110321,-12.1951217651,20.7926826477,1.0,0.0,0.0,0.0,1.0,0.0,0.0,0.0,1.0,-2.01112939453,-0.799663354492,-10.4004120117,1.0,0.0,0.0,0.0,1.0,0.0,0.0,0.0,1.0
1463502868531743124,488,1463502868529037037,,-2.21967220306,-12.2944746017,93.7264022827,0.00999699998647,1.0,0.0,0.0,0.0,1.0,0.0,0.0,0.0,1.0,-7.37804937363,-12.4390249252,20.3048782349,1.0,0.0,0.0,0.0,1.0,0.0,0.0,0.0,1.0,-1.80522805176,-0.660799658203,-10.1322614258,1.0,0.0,0.0,0.0,1.0,0.0,0.0,0.0,1.0
1463502868546611267,489,1463502868544372157,,-2.32704281807,-12.4880647659,94.0059661865,0.0142820002511,1.0,0.0,0.0,0.0,1.0,0.0,0.0,0.0,1.0,-4.32926845551,-13.3536586761,18.475610733,1.0,0.0,0.0,0.0,1.0,0.0,0.0,0.0,1.0,-2.02070620117,-0.536301208408,-10.2902787354,1.0,0.0,0.0,0.0,1.0,0.0,0.0,0.0,1.0
1463502868557564158,490,1463502868549623968,,-2.36922597885,-12.5704994202,94.1191635132,0.00586900021881,1.0,0.0,0.0,0.0,1.0,0.0,0.0,0.0,1.0,-2.5,-14.2682924271,17.8048782349,1.0,0.0,0.0,0.0,1.0,0.0,0.0,0.0,1.0,-1.98718737793,-0.229843359375,-10.3285859619,1.0,0.0,0.0,0.0,1.0,0.0,0.0,0.0,1.0
1463502868562109199,491,1463502868559177852,,-2.39316701889,-12.7135896683,94.2785873413,0.00987400021404,1.0,0.0,0.0,0.0,1.0,0.0,0.0,0.0,1.0,0.792682945728,-15.3048791885,14.8780498505,1.0,0.0,0.0,0.0,1.0,0.0,0.0,0.0,1.0,-1.84832368164,-0.373495458984,-10.2136642822,1.0,0.0,0.0,0.0,1.0,0.0,0.0,0.0,1.0
1463502868571752562,492,1463502868569330641,,-2.35709404945,-12.8687057495,94.406578064,0.0100239999592,1.0,0.0,0.0,0.0,1.0,0.0,0.0,0.0,1.0,3.35365867615,-15.975610733,12.1951217651,1.0,0.0,0.0,0.0,1.0,0.0,0.0,0.0,1.0,-1.9105729248,-0.895431420898,-10.2376062988,1.0,0.0,0.0,0.0,1.0,0.0,0.0,0.0,1.0
1463502868582438371,493,1463502868579190670,,-2.3597843647,-13.0251140594,94.5312347412,0.0100440001115,1.0,0.0,0.0,0.0,1.0,0.0,0.0,0.0,1.0,4.02439022064,-16.4024391174,10.7926826477,1.0,0.0,0.0,0.0,1.0,0.0,0.0,0.0,1.0,-1.8866309082,-0.0335188255255,-10.2950671387,1.0,0.0,0.0,0.0,1.0,0.0,0.0,0.0,1.0
1463502868591560433,494,1463502868589219657,,-2.33459329605,-13.181353569,94.6689147949,0.0100039998069,1.0,0.0,0.0,0.0,1.0,0.0,0.0,0.0,1.0,6.95121955872,-16.8902435303,12.1341466904,1.0,0.0,0.0,0.0,1.0,0.0,0.0,0.0,1.0,-1.71903679199,-0.067037651051,-9.61032604839,1.0,0.0,0.0,0.0,1.0,0.0,0.0,0.0,1.0
1463502868602056085,495,1463502868599149373,,-2.31236791611,-13.3594608307,94.8355865479,0.00996099971235,1.0,0.0,0.0,0.0,1.0,0.0,0.0,0.0,1.0,7.37804937363,-17.6219520569,15.0000009537,1.0,0.0,0.0,0.0,1.0,0.0,0.0,0.0,1.0,-2.06380183105,-0.076614453125,-9.73961235352,1.0,0.0,0.0,0.0,1.0,0.0,0.0,0.0,1.0
1463502868611718146,496,1463502868609077371,,-2.30304741859,-13.5289001465,95.041557312,0.0100079998374,1.0,0.0,0.0,0.0,1.0,0.0,0.0,0.0,1.0,9.08536529541,-17.8048782349,18.2317085266,1.0,0.0,0.0,0.0,1.0,0.0,0.0,0.0,1.0,-1.85311208496,0.282515795898,-9.40921193989,1.0,0.0,0.0,0.0,1.0,0.0,0.0,0.0,1.0
1463502868623437858,497,1463502868619048129,,-2.22942304611,-13.7080841064,95.2553024292,0.00993200019002,1.0,0.0,0.0,0.0,1.0,0.0,0.0,0.0,1.0,12.2560977936,-16.7682933807,20.0609760284,1.0,0.0,0.0,0.0,1.0,0.0,0.0,0.0,1.0,-2.29843359375,-0.359130249023,-9.56723041851,1.0,0.0,0.0,0.0,1.0,0.0,0.0,0.0,1.0
1463502868631786589,498,1463502868629246386,,-2.11639332771,-13.9165239334,95.4568328857,0.0100990002975,1.0,0.0,0.0,0.0,1.0,0.0,0.0,0.0,1.0,13.658536911,-18.3536586761,19.0243911743,1.0,0.0,0.0,0.0,1.0,0.0,0.0,0.0,1.0,-2.51391174316,-0.756567724609,-9.63426806499,1.0,0.0,0.0,0.0,1.0,0.0,0.0,0.0,1.0
1463502868641173702,499,1463502868639018082,,-1.94272947311,-14.0742702484,95.6063842773,0.00990200042725,1.0,0.0,0.0,0.0,1.0,0.0,0.0,0.0,1.0,16.0365848541,-15.8536596298,15.1829271317,1.0,0.0,0.0,0.0,1.0,0.0,0.0,0.0,1.0,-2.24576115723,-1.36948334961,-10.2423947021,1.0,0.0,0.0,0.0,1.0,0.0,0.0,0.0,1.0
1463502868654463463,500,1463502868649582953,,-1.8090389967,-14.2386598587,95.7457351685,0.0100710000843,1.0,0.0,0.0,0.0,1.0,0.0,0.0,0.0,1.0,13.7804880142,-16.8292694092,13.4146347046,1.0,0.0,0.0,0.0,1.0,0.0,0.0,0.0,1.0,-2.18830031738,-0.972045874023,-10.419565625,1.0,0.0,0.0,0.0,1.0,0.0,0.0,0.0,1.0
1463502868663688650,501,1463502868659078713,,-1.67164576054,-14.3796033859,95.8859863281,0.00999100040644,1.0,0.0,0.0,0.0,1.0,0.0,0.0,0.0,1.0,14.5121955872,-15.4878053665,13.658536911,1.0,0.0,0.0,0.0,1.0,0.0,0.0,0.0,1.0,-1.97761057129,-0.928950244141,-10.0700121826,1.0,0.0,0.0,0.0,1.0,0.0,0.0,0.0,1.0
1463502868671186497,502,1463502868669302387,,-1.5366050005,-14.5476980209,96.0212402344,0.00999699998647,1.0,0.0,0.0,0.0,1.0,0.0,0.0,0.0,1.0,12.5609760284,-16.9512195587,13.5975618362,1.0,0.0,0.0,0.0,1.0,0.0,0.0,0.0,1.0,-2.3654710941,-1.35032973633,-10.7020814209,1.0,0.0,0.0,0.0,1.0,0.0,0.0,0.0,1.0
1463502868685433182,503,1463502868679265645,,-1.43020737171,-14.7279491425,96.1846542358,0.00999400019646,1.0,0.0,0.0,0.0,1.0,0.0,0.0,0.0,1.0,12.0731716156,-18.4146347046,15.9146347046,1.0,0.0,0.0,0.0,1.0,0.0,0.0,0.0,1.0,-2.10210891149,-0.933738647461,-9.53371159526,1.0,0.0,0.0,0.0,1.0,0.0,0.0,0.0,1.0
1463502868691618324,504,1463502868689194580,,-1.35379588604,-14.9077558517,96.3540802002,0.0100440001115,1.0,0.0,0.0,0.0,1.0,0.0,0.0,0.0,1.0,12.0731716156,-17.0731716156,15.7317075729,1.0,0.0,0.0,0.0,1.0,0.0,0.0,0.0,1.0,-2.44687409668,-0.45968671875,-9.93593688965,1.0,0.0,0.0,0.0,1.0,0.0,0.0,0.0,1.0
1463502868703229495,505,1463502868699191588,,-1.25112748146,-15.1258020401,96.5043869019,0.00993099994957,1.0,0.0,0.0,0.0,1.0,0.0,0.0,0.0,1.0,12.2560977936,-18.841463089,14.6341466904,1.0,0.0,0.0,0.0,1.0,0.0,0.0,0.0,1.0,-2.94007963867,-0.905008227539,-10.0748005859,1.0,0.0,0.0,0.0,1.0,0.0,0.0,0.0,1.0
1463502868711735204,506,1463502868709221095,,-1.14189934731,-15.2918386459,96.6408538818,0.00998799968511,1.0,0.0,0.0,0.0,1.0,0.0,0.0,0.0,1.0,12.5,-14.6951217651,13.3536586761,1.0,0.0,0.0,0.0,1.0,0.0,0.0,0.0,1.0,-2.67671745605,-0.900219824219,-9.83538041992,1.0,0.0,0.0,0.0,1.0,0.0,0.0,0.0,1.0
1463502868722676897,507,1463502868719039458,,-0.992506027222,-15.4701547623,96.7232513428,0.00998200010508,1.0,0.0,0.0,0.0,1.0,0.0,0.0,0.0,1.0,11.6463422775,-15.6097564697,9.14634132385,1.0,0.0,0.0,0.0,1.0,0.0,0.0,0.0,1.0,-2.86825358887,-1.66157595215,-10.2759135254,1.0,0.0,0.0,0.0,1.0,0.0,0.0,0.0,1.0
1463502868731738543,508,1463502868729268809,,-0.877184689045,-15.6122083664,96.7842330933,0.0100630000234,1.0,0.0,0.0,0.0,1.0,0.0,0.0,0.0,1.0,9.69512176514,-14.5121955872,6.52439069748,1.0,0.0,0.0,0.0,1.0,0.0,0.0,0.0,1.0,-2.33674067418,-1.22583125,-10.1035310059,1.0,0.0,0.0,0.0,1.0,0.0,0.0,0.0,1.0
1463502868742580809,509,1463502868739261077,,-0.823064863682,-15.7558584213,96.8470687866,0.00999800022691,1.0,0.0,0.0,0.0,1.0,0.0,0.0,0.0,1.0,8.35365867615,-13.9634151459,5.48780488968,1.0,0.0,0.0,0.0,1.0,0.0,0.0,0.0,1.0,-2.54264216309,-0.363918652344,-10.2088758789,1.0,0.0,0.0,0.0,1.0,0.0,0.0,0.0,1.0
1463502868751705267,510,1463502868749300325,,-0.77421104908,-15.8943386078,96.8938217163,0.0100060002878,1.0,0.0,0.0,0.0,1.0,0.0,0.0,0.0,1.0,7.50000047684,-15.7926826477,3.90243911743,1.0,0.0,0.0,0.0,1.0,0.0,0.0,0.0,1.0,-2.11647412145,-0.349553442383,-10.2040874756,1.0,0.0,0.0,0.0,1.0,0.0,0.0,0.0,1.0
1463502868761418161,511,1463502868759024781,,-0.695474147797,-16.0213775635,96.9184112549,0.00993099994957,1.0,0.0,0.0,0.0,1.0,0.0,0.0,0.0,1.0,7.62195110321,-14.9390249252,2.5,1.0,0.0,0.0,0.0,1.0,0.0,0.0,0.0,1.0,-2.05422502441,-0.790086547852,-9.99339772949,1.0,0.0,0.0,0.0,1.0,0.0,0.0,0.0,1.0
1463502868772206105,512,1463502868769323091,,-0.625432133675,-16.1912841797,96.9386901855,0.010053999722,1.0,0.0,0.0,0.0,1.0,0.0,0.0,0.0,1.0,5.73170757294,-16.341463089,2.31707310677,1.0,0.0,0.0,0.0,1.0,0.0,0.0,0.0,1.0,-2.54743056641,-0.957680664062,-9.86411083984,1.0,0.0,0.0,0.0,1.0,0.0,0.0,0.0,1.0
1463502868783199881,513,1463502868779189474,,-0.586700320244,-16.3554496765,96.9638977051,0.0100360000506,1.0,0.0,0.0,0.0,1.0,0.0,0.0,0.0,1.0,2.01219511032,-15.7317075729,3.04878044128,1.0,0.0,0.0,0.0,1.0,0.0,0.0,0.0,1.0,-2.5234885498,-1.08696755371,-9.60553764507,1.0,0.0,0.0,0.0,1.0,0.0,0.0,0.0,1.0
1463502868793454805,514,1463502868789161326,,-0.604615271091,-16.5144309998,97.0100326538,0.00993399973959,1.0,0.0,0.0,0.0,1.0,0.0,0.0,0.0,1.0,-2.86585378647,-15.6097564697,5.06097555161,1.0,0.0,0.0,0.0,1.0,0.0,0.0,0.0,1.0,-2.62404501953,-1.10612116699,-10.0221281494,1.0,0.0,0.0,0.0,1.0,0.0,0.0,0.0,1.0
1463502868802609732,515,1463502868799026511,,-0.689479291439,-16.6621799469,97.0783615112,0.00997699983418,1.0,0.0,0.0,0.0,1.0,0.0,0.0,0.0,1.0,-5.97560977936,-15.8536596298,6.28048801422,1.0,0.0,0.0,0.0,1.0,0.0,0.0,0.0,1.0,-2.27927998047,-0.507570751953,-9.56244201519,1.0,0.0,0.0,0.0,1.0,0.0,0.0,0.0,1.0
1463502868814281215,516,1463502868809681226,,-0.801604390144,-16.8020744324,97.1569671631,0.010050999932,1.0,0.0,0.0,0.0,1.0,0.0,0.0,0.0,1.0,-7.56097555161,-15.7926826477,6.95121955872,1.0,0.0,0.0,0.0,1.0,0.0,0.0,0.0,1.0,-2.17393510742,-0.354341845703,-9.61511445171,1.0,0.0,0.0,0.0,1.0,0.0,0.0,0.0,1.0
1463502868824566087,517,1463502868819728858,,-0.879056036472,-16.9666175842,97.2122497559,0.00994800031185,1.0,0.0,0.0,0.0,1.0,0.0,0.0,0.0,1.0,-8.5365858078,-18.475610733,5.85365867615,1.0,0.0,0.0,0.0,1.0,0.0,0.0,0.0,1.0,-2.26491477051,-1.0534486574,-9.97903251953,1.0,0.0,0.0,0.0,1.0,0.0,0.0,0.0,1.0
1463502868831144040,518,1463502868829298680,,-0.957255005836,-17.1352443695,97.2485351562,0.0100530004129,1.0,0.0,0.0,0.0,1.0,0.0,0.0,0.0,1.0,-9.45121955872,-19.3292694092,4.08536577225,1.0,0.0,0.0,0.0,1.0,0.0,0.0,0.0,1.0,-2.13083962367,-1.08696755371,-9.77791958008,1.0,0.0,0.0,0.0,1.0,0.0,0.0,0.0,1.0
1463502868844023697,519,1463502868841840265,,-1.01978254318,-17.3095493317,97.2338790894,0.0100309997797,1.0,0.0,0.0,0.0,1.0,0.0,0.0,0.0,1.0,-10.2439022064,-19.3902435303,-0.487804889679,1.0,0.0,0.0,0.0,1.0,0.0,0.0,0.0,1.0,-2.34631748082,-1.29286889648,-10.2184526855,1.0,0.0,0.0,0.0,1.0,0.0,0.0,0.0,1.0
1463502868854651537,520,1463502868849264050,,-1.11316418648,-17.515247345,97.1917877197,0.010050999932,1.0,0.0,0.0,0.0,1.0,0.0,0.0,0.0,1.0,-12.6219520569,-21.8292694092,-3.59756112099,1.0,0.0,0.0,0.0,1.0,0.0,0.0,0.0,1.0,-2.4995465332,-0.991199487305,-10.2280294922,1.0,0.0,0.0,0.0,1.0,0.0,0.0,0.0,1.0
1463502868862690477,521,1463502868859001683,,-1.2282743454,-17.6836128235,97.1600799561,0.00986700039357,1.0,0.0,0.0,0.0,1.0,0.0,0.0,0.0,1.0,-12.5,-19.817073822,-3.35365867615,1.0,0.0,0.0,0.0,1.0,0.0,0.0,0.0,1.0,-2.29843359375,-0.541089611728,-10.3237975586,1.0,0.0,0.0,0.0,1.0,0.0,0.0,0.0,1.0
1463502868872716287,522,1463502868869333743,,-1.33721208572,-17.889591217,97.1126785278,0.0100619997829,1.0,0.0,0.0,0.0,1.0,0.0,0.0,0.0,1.0,-13.658536911,-20.8536586761,-4.32926845551,1.0,0.0,0.0,0.0,1.0,0.0,0.0,0.0,1.0,-2.72938989258,-0.818816967773,-10.1274730225,1.0,0.0,0.0,0.0,1.0,0.0,0.0,0.0,1.0
1463502868882114650,523,1463502868879415021,,-1.48875701427,-18.087053299,97.0859909058,0.010006999597,1.0,0.0,0.0,0.0,1.0,0.0,0.0,0.0,1.0,-15.3048791885,-19.1463432312,-3.04878044128,1.0,0.0,0.0,0.0,1.0,0.0,0.0,0.0,1.0,-2.82515795898,-0.383072265625,-9.65342167827,1.0,0.0,0.0,0.0,1.0,0.0,0.0,0.0,1.0
1463502868891703899,524,1463502868889121717,,-1.63820421696,-18.2447071075,97.0726699829,0.00994700007141,1.0,0.0,0.0,0.0,1.0,0.0,0.0,0.0,1.0,-15.7317075729,-17.0731716156,-1.46341466904,1.0,0.0,0.0,0.0,1.0,0.0,0.0,0.0,1.0,-2.53785375977,-0.531512805087,-9.67257470703,1.0,0.0,0.0,0.0,1.0,0.0,0.0,0.0,1.0
1463502868902195333,525,1463502868899007580,,-1.79944527149,-18.4104690552,97.0638046265,0.0099849998951,1.0,0.0,0.0,0.0,1.0,0.0,0.0,0.0,1.0,-14.5731706619,-18.5365848541,-1.8292683363,1.0,0.0,0.0,0.0,1.0,0.0,0.0,0.0,1.0,-2.53785375977,-0.110133276367,-10.060435376,1.0,0.0,0.0,0.0,1.0,0.0,0.0,0.0,1.0
1463502868912479371,526,1463502868909331670,,-1.92951452732,-18.5423774719,97.0502166748,0.0100589999929,1.0,0.0,0.0,0.0,1.0,0.0,0.0,0.0,1.0,-11.2195119858,-17.5000019073,-2.37804889679,1.0,0.0,0.0,0.0,1.0,0.0,0.0,0.0,1.0,-2.08774370153,-0.0239420166016,-9.97903251953,1.0,0.0,0.0,0.0,1.0,0.0,0.0,0.0,1.0
1463502868922016797,527,1463502868919330345,,-2.05184054375,-18.7076358795,97.0398178101,0.0100199999288,1.0,0.0,0.0,0.0,1.0,0.0,0.0,0.0,1.0,-10.3048782349,-18.841463089,-2.19512200356,1.0,0.0,0.0,0.0,1.0,0.0,0.0,0.0,1.0,-2.64798703613,0.0143652099609,-10.5967365479,1.0,0.0,0.0,0.0,1.0,0.0,0.0,0.0,1.0
1463502868932133127,528,1463502868929335946,,-2.16451382637,-18.860244751,97.0280609131,0.00999400019646,1.0,0.0,0.0,0.0,1.0,0.0,0.0,0.0,1.0,-8.10975551605,-18.7195110321,-2.80487799644,1.0,0.0,0.0,0.0,1.0,0.0,0.0,0.0,1.0,-2.37025978969,0.292092584273,-10.2088758789,1.0,0.0,0.0,0.0,1.0,0.0,0.0,0.0,1.0
1463502868943150914,529,1463502868939271079,,-2.23917102814,-19.0207061768,97.0023727417,0.00998899992555,1.0,0.0,0.0,0.0,1.0,0.0,0.0,0.0,1.0,-5.79268312454,-18.1707305908,-3.7804877758,1.0,0.0,0.0,0.0,1.0,0.0,0.0,0.0,1.0,-2.78685073242,0.114921679688,-10.7499654541,1.0,0.0,0.0,0.0,1.0,0.0,0.0,0.0,1.0
1463502868952446569,530,1463502868949487305,,-2.28114080429,-19.1784820557,96.9695205688,0.00997800007463,1.0,0.0,0.0,0.0,1.0,0.0,0.0,0.0,1.0,-2.74390244484,-17.3780498505,-4.45121955872,1.0,0.0,0.0,0.0,1.0,0.0,0.0,0.0,1.0,-2.85867678223,0.129286889648,-10.5105452881,1.0,0.0,0.0,0.0,1.0,0.0,0.0,0.0,1.0
1463502868962471702,531,1463502868959050460,,-2.28759980202,-19.3167476654,96.9168319702,0.00999100040644,1.0,0.0,0.0,0.0,1.0,0.0,0.0,0.0,1.0,-1.09756100178,-15.1829271317,-5.79268312454,1.0,0.0,0.0,0.0,1.0,0.0,0.0,0.0,1.0,-2.92571442871,-0.119710083008,-10.5344873047,1.0,0.0,0.0,0.0,1.0,0.0,0.0,0.0,1.0
1463502868972256731,532,1463502868969309290,,-2.27142524719,-19.4504566193,96.8494796753,0.0100410003215,1.0,0.0,0.0,0.0,1.0,0.0,0.0,0.0,1.0,-0.487804889679,-14.8780498505,-6.70731735229,1.0,0.0,0.0,0.0,1.0,0.0,0.0,0.0,1.0,-2.92092602539,-0.359130249023,-10.6158901611,1.0,0.0,0.0,0.0,1.0,0.0,0.0,0.0,1.0
1463502868982127333,533,1463502868979203538,,-2.2517786026,-19.5490055084,96.7694244385,0.00994700007141,1.0,0.0,0.0,0.0,1.0,0.0,0.0,0.0,1.0,-1.09756100178,-12.6829271317,-7.68292665482,1.0,0.0,0.0,0.0,1.0,0.0,0.0,0.0,1.0,-2.69587106934,-0.46447512207,-10.6254669678,1.0,0.0,0.0,0.0,1.0,0.0,0.0,0.0,1.0
1463502868991845175,534,1463502868989007265,,-2.23801732063,-19.6494579315,96.6782836914,0.00997900031507,1.0,0.0,0.0,0.0,1.0,0.0,0.0,0.0,1.0,-1.76829278469,-12.3780488968,-8.78048801422,1.0,0.0,0.0,0.0,1.0,0.0,0.0,0.0,1.0,-2.82515795898,-0.411802685547,-10.7164466309,1.0,0.0,0.0,0.0,1.0,0.0,0.0,0.0,1.0
1463502869001854944,535,1463502868998996721,,-2.23089385033,-19.740278244,96.5760421753,0.0100010000169,1.0,0.0,0.0,0.0,1.0,0.0,0.0,0.0,1.0,-2.31707310677,-11.6463422775,-9.93902492523,1.0,0.0,0.0,0.0,1.0,0.0,0.0,0.0,1.0,-2.79642753906,-0.31124621582,-10.7547538574,1.0,0.0,0.0,0.0,1.0,0.0,0.0,0.0,1.0
1463502869011940753,536,1463502869009306541,,-2.21943449974,-19.8131923676,96.4579925537,0.0100630000234,1.0,0.0,0.0,0.0,1.0,0.0,0.0,0.0,1.0,-2.31707310677,-10.6707315445,-11.341463089,1.0,0.0,0.0,0.0,1.0,0.0,0.0,0.0,1.0,-2.69108266602,-0.296881024126,-11.0085392334,1.0,0.0,0.0,0.0,1.0,0.0,0.0,0.0,1.0
1463502869021956303,537,1463502869019257299,,-2.1972990036,-19.8965377808,96.3267059326,0.00996300019324,1.0,0.0,0.0,0.0,1.0,0.0,0.0,0.0,1.0,-2.98780488968,-11.341463089,-12.2560977936,1.0,0.0,0.0,0.0,1.0,0.0,0.0,0.0,1.0,-2.79642753906,-0.569819995117,-11.0420580566,1.0,0.0,0.0,0.0,1.0,0.0,0.0,0.0,1.0
1463502869032806486,538,1463502869029541650,,-2.2026758194,-19.9568500519,96.2019577026,0.0100379996002,1.0,0.0,0.0,0.0,1.0,0.0,0.0,0.0,1.0,-4.2682929039,-10.3048782349,-11.9512195587,1.0,0.0,0.0,0.0,1.0,0.0,0.0,0.0,1.0,-2.60010300293,-0.31124621582,-11.2766898193,1.0,0.0,0.0,0.0,1.0,0.0,0.0,0.0,1.0
1463502869042213131,539,1463502869039285481,,-2.23567986488,-20.0138492584,96.0849990845,0.00993700046092,1.0,0.0,0.0,0.0,1.0,0.0,0.0,0.0,1.0,-6.52439069748,-10.7317075729,-11.4634151459,1.0,0.0,0.0,0.0,1.0,0.0,0.0,0.0,1.0,-2.61446821289,-0.253785375977,-11.9422778809,1.0,0.0,0.0,0.0,1.0,0.0,0.0,0.0,1.0
1463502869051921962,540,1463502869048956136,,-2.25105714798,-20.0669441223,95.9690551758,0.00999899953604,1.0,0.0,0.0,0.0,1.0,0.0,0.0,0.0,1.0,-6.70731735229,-10.4878053665,-10.548781395,1.0,0.0,0.0,0.0,1.0,0.0,0.0,0.0,1.0,-2.53785375977,-0.699106884766,-11.7267997314,1.0,0.0,0.0,0.0,1.0,0.0,0.0,0.0,1.0
1463502869062186938,541,1463502869059360851,,-2.29832935333,-20.1264286041,95.8642578125,0.0100720003247,1.0,0.0,0.0,0.0,1.0,0.0,0.0,0.0,1.0,-8.17073154449,-11.2804880142,-9.93902492523,1.0,0.0,0.0,0.0,1.0,0.0,0.0,0.0,1.0,-2.51870014648,-0.402225878906,-11.7363765381,1.0,0.0,0.0,0.0,1.0,0.0,0.0,0.0,1.0
1463502869072259102,542,1463502869069010881,,-2.35947465897,-20.1847381592,95.7701187134,0.00992599967867,1.0,0.0,0.0,0.0,1.0,0.0,0.0,0.0,1.0,-9.26829242706,-10.8536586761,-9.08536529541,1.0,0.0,0.0,0.0,1.0,0.0,0.0,0.0,1.0,-2.64319863281,-0.383072265625,-11.8225677979,1.0,0.0,0.0,0.0,1.0,0.0,0.0,0.0,1.0
1463502869082128975,543,1463502869079214294,,-2.40741753578,-20.2563209534,95.6755065918,0.010150000453,1.0,0.0,0.0,0.0,1.0,0.0,0.0,0.0,1.0,-8.65853691101,-10.4268293381,-8.59756088257,1.0,0.0,0.0,0.0,1.0,0.0,0.0,0.0,1.0,-3.0166940918,-0.579396801758,-11.8417214111,1.0,0.0,0.0,0.0,1.0,0.0,0.0,0.0,1.0
1463502869091735723,544,1463502869089048855,,-2.44079208374,-20.3289775848,95.5775985718,0.00985100027174,1.0,0.0,0.0,0.0,1.0,0.0,0.0,0.0,1.0,-7.98780536652,-9.39024448395,-8.96341514587,1.0,0.0,0.0,0.0,1.0,0.0,0.0,0.0,1.0,-3.28484467773,-0.670376464844,-11.6741272949,1.0,0.0,0.0,0.0,1.0,0.0,0.0,0.0,1.0
1463502869101980908,545,1463502869099275966,,-2.48141646385,-20.3780727386,95.4713134766,0.0100010000169,1.0,0.0,0.0,0.0,1.0,0.0,0.0,0.0,1.0,-6.89024400711,-5.18292713165,-10.1829271317,1.0,0.0,0.0,0.0,1.0,0.0,0.0,0.0,1.0,-3.59130249023,-0.201112939453,-11.3724578857,1.0,0.0,0.0,0.0,1.0,0.0,0.0,0.0,1.0
1463502869111712031,546,1463502869109055423,,-2.46831417084,-20.3889141083,95.3304519653,0.0100010000169,1.0,0.0,0.0,0.0,1.0,0.0,0.0,0.0,1.0,-4.81707286835,-0.670731723309,-12.4390249252,1.0,0.0,0.0,0.0,1.0,0.0,0.0,0.0,1.0,-3.80678063965,-0.684741674805,-11.631031665,1.0,0.0,0.0,0.0,1.0,0.0,0.0,0.0,1.0
1463502869121896434,547,1463502869119036181,,-2.42535853386,-20.3539524078,95.1628799438,0.00999999977648,1.0,0.0,0.0,0.0,1.0,0.0,0.0,0.0,1.0,-2.19512200356,4.32926845551,-14.9390249252,1.0,0.0,0.0,0.0,1.0,0.0,0.0,0.0,1.0,-3.82593425293,-0.550666381836,-11.4634375488,1.0,0.0,0.0,0.0,1.0,0.0,0.0,0.0,1.0
1463502869131923650,548,1463502869129773655,,-2.38047289848,-20.250667572,94.9644546509,0.0103529999033,1.0,0.0,0.0,0.0,1.0,0.0,0.0,0.0,1.0,-0.914634168148,10.0,-17.7439022064,1.0,0.0,0.0,0.0,1.0,0.0,0.0,0.0,1.0,-3.64397492676,-0.0861912597656,-11.5448404053,1.0,0.0,0.0,0.0,1.0,0.0,0.0,0.0,1.0
1463502869141689773,549,1463502869139276133,,-2.33078789711,-20.1203632355,94.7948455811,0.0097129996866,1.0,0.0,0.0,0.0,1.0,0.0,0.0,0.0,1.0,-0.975609779358,13.5365858078,-15.4878053665,1.0,0.0,0.0,0.0,1.0,0.0,0.0,0.0,1.0,-3.50989963379,-0.411802685547,-11.0707884766,1.0,0.0,0.0,0.0,1.0,0.0,0.0,0.0,1.0
1463502869152018499,550,1463502869149020538,,-2.29321312904,-19.9241542816,94.62915802,0.00993300043046,1.0,0.0,0.0,0.0,1.0,0.0,0.0,0.0,1.0,-3.7804877758,17.9268302917,-13.9634151459,1.0,0.0,0.0,0.0,1.0,0.0,0.0,0.0,1.0,-3.25611425781,-0.847547387695,-11.7315881348,1.0,0.0,0.0,0.0,1.0,0.0,0.0,0.0,1.0
1463502869161893372,551,1463502869158979056,,-2.28891062737,-19.6839313507,94.4995727539,0.0100039998069,1.0,0.0,0.0,0.0,1.0,0.0,0.0,0.0,1.0,-4.14634132385,21.7073173523,-10.9756097794,1.0,0.0,0.0,0.0,1.0,0.0,0.0,0.0,1.0,-2.93529123535,-0.435744702148,-10.9654436035,1.0,0.0,0.0,0.0,1.0,0.0,0.0,0.0,1.0
1463502869172099234,552,1463502869169301532,,-2.31483387947,-19.4010410309,94.3916015625,0.0100619997829,1.0,0.0,0.0,0.0,1.0,0.0,0.0,0.0,1.0,-1.52439022064,26.2195129395,-10.4878053665,1.0,0.0,0.0,0.0,1.0,0.0,0.0,0.0,1.0,-2.98317526855,0.593762048251,-10.9510783936,1.0,0.0,0.0,0.0,1.0,0.0,0.0,0.0,1.0
1463502869181849471,553,1463502869179219061,,-2.23439621925,-19.1245193481,94.2471694946,0.00994999986142,1.0,0.0,0.0,0.0,1.0,0.0,0.0,0.0,1.0,4.93902444839,26.8292694092,-12.9878053665,1.0,0.0,0.0,0.0,1.0,0.0,0.0,0.0,1.0,-3.16992299805,-0.0430956298828,-11.2288057861,1.0,0.0,0.0,0.0,1.0,0.0,0.0,0.0,1.0
1463502869191714396,554,1463502869189264975,,-2.1160159111,-18.8145580292,94.0852355957,0.0100600002334,1.0,0.0,0.0,0.0,1.0,0.0,0.0,0.0,1.0,9.32926845551,32.2560958862,-14.7560987473,1.0,0.0,0.0,0.0,1.0,0.0,0.0,0.0,1.0,-3.28963308105,0.172382519531,-10.1945106689,1.0,0.0,0.0,0.0,1.0,0.0,0.0,0.0,1.0
1463502869202044164,555,1463502869199000525,,-1.92682027817,-18.4716339111,93.8996276855,0.0099240001291,1.0,0.0,0.0,0.0,1.0,0.0,0.0,0.0,1.0,11.8292684555,36.5243911743,-15.7926826477,1.0,0.0,0.0,0.0,1.0,0.0,0.0,0.0,1.0,-3.46201560059,-0.689530078125,-10.6254669678,1.0,0.0,0.0,0.0,1.0,0.0,0.0,0.0,1.0
1463502869211816589,556,1463502869209018002,,-1.77644860744,-18.088186264,93.7315063477,0.0100029995665,1.0,0.0,0.0,0.0,1.0,0.0,0.0,0.0,1.0,10.6097564697,38.6585388184,-14.8170728683,1.0,0.0,0.0,0.0,1.0,0.0,0.0,0.0,1.0,-2.88740720215,-0.258573779297,-9.97424411621,1.0,0.0,0.0,0.0,1.0,0.0,0.0,0.0,1.0
1463502869222211825,557,1463502869219038760,,-1.61997509003,-17.6617832184,93.5680465698,0.00999699998647,1.0,0.0,0.0,0.0,1.0,0.0,0.0,0.0,1.0,9.69512176514,42.5609779358,-13.841463089,1.0,0.0,0.0,0.0,1.0,0.0,0.0,0.0,1.0,-2.83473476562,-0.646434448242,-10.3046439453,1.0,0.0,0.0,0.0,1.0,0.0,0.0,0.0,1.0
1463502869231785709,558,1463502869229337486,,-1.48047637939,-17.2177448273,93.4036636353,0.0100619997829,1.0,0.0,0.0,0.0,1.0,0.0,0.0,0.0,1.0,7.31707334518,42.7439041138,-13.7804880142,1.0,0.0,0.0,0.0,1.0,0.0,0.0,0.0,1.0,-2.57616098633,-0.828393774414,-10.5919481445,1.0,0.0,0.0,0.0,1.0,0.0,0.0,0.0,1.0
1463502869241737144,559,1463502869239302254,,-1.36531853676,-16.7516326904,93.2352905273,0.0100170001388,1.0,0.0,0.0,0.0,1.0,0.0,0.0,0.0,1.0,4.57317066193,43.7804870605,-14.2682924271,1.0,0.0,0.0,0.0,1.0,0.0,0.0,0.0,1.0,-2.18351191406,-0.900219824219,-10.405200415,1.0,0.0,0.0,0.0,1.0,0.0,0.0,0.0,1.0
1463502869251994464,560,1463502869249055200,,-1.28663814068,-16.291431427,93.0591049194,0.00997100025415,1.0,0.0,0.0,0.0,1.0,0.0,0.0,0.0,1.0,2.01219511032,43.4146347046,-15.6097564697,1.0,0.0,0.0,0.0,1.0,0.0,0.0,0.0,1.0,-2.17872351074,-0.713472094727,-10.7978494873,1.0,0.0,0.0,0.0,1.0,0.0,0.0,0.0,1.0
1463502869262146419,561,1463502869259010229,,-1.23897099495,-15.8482465744,92.8890380859,0.00994999986142,1.0,0.0,0.0,0.0,1.0,0.0,0.0,0.0,1.0,1.34146344662,41.5243911743,-15.8536596298,1.0,0.0,0.0,0.0,1.0,0.0,0.0,0.0,1.0,-2.05422502441,-0.292092584273,-10.8696755371,1.0,0.0,0.0,0.0,1.0,0.0,0.0,0.0,1.0
1463502869272136344,562,1463502869269038487,,-1.22108900547,-15.4160490036,92.7166900635,0.0100320000201,1.0,0.0,0.0,0.0,1.0,0.0,0.0,0.0,1.0,1.03658533096,40.9756088257,-16.7682933807,1.0,0.0,0.0,0.0,1.0,0.0,0.0,0.0,1.0,-2.07816689489,0.220266552734,-10.5057568848,1.0,0.0,0.0,0.0,1.0,0.0,0.0,0.0,1.0
1463502869282026581,563,1463502869279270963,,-1.15345048904,-15.0032739639,92.5371246338,0.0099670002237,1.0,0.0,0.0,0.0,1.0,0.0,0.0,0.0,1.0,3.35365867615,39.2682914734,-16.9512195587,1.0,0.0,0.0,0.0,1.0,0.0,0.0,0.0,1.0,-2.03028300781,-0.296881024126,-10.7356002441,1.0,0.0,0.0,0.0,1.0,0.0,0.0,0.0,1.0
1463502869291734892,564,1463502869289093284,,-1.0716445446,-14.5936775208,92.357131958,0.0100029995665,1.0,0.0,0.0,0.0,1.0,0.0,0.0,0.0,1.0,1.8902438879,36.5243911743,-16.2804889679,1.0,0.0,0.0,0.0,1.0,0.0,0.0,0.0,1.0,-1.45088620605,-0.866701000977,-10.3477395752,1.0,0.0,0.0,0.0,1.0,0.0,0.0,0.0,1.0
1463502869301804816,565,1463502869299000812,,-1.03367853165,-14.1979446411,92.1895370483,0.00999699998647,1.0,0.0,0.0,0.0,1.0,0.0,0.0,0.0,1.0,-1.8292683363,34.1463432312,-15.3048791885,1.0,0.0,0.0,0.0,1.0,0.0,0.0,0.0,1.0,-1.21625444336,-0.847547387695,-10.553640918,1.0,0.0,0.0,0.0,1.0,0.0,0.0,0.0,1.0
1463502869312005574,566,1463502869309674798,,-1.04877567291,-13.851272583,92.0519485474,0.0100630000234,1.0,0.0,0.0,0.0,1.0,0.0,0.0,0.0,1.0,-4.02439022064,28.8414649963,-13.048781395,1.0,0.0,0.0,0.0,1.0,0.0,0.0,0.0,1.0,-1.07739082014,-0.397437475586,-10.1131078125,1.0,0.0,0.0,0.0,1.0,0.0,0.0,0.0,1.0
1463502869321849405,567,1463502869319021807,,-1.07068431377,-13.5320367813,91.9264144897,0.00993799977005,1.0,0.0,0.0,0.0,1.0,0.0,0.0,0.0,1.0,-4.08536577225,26.2195129395,-12.1951217651,1.0,0.0,0.0,0.0,1.0,0.0,0.0,0.0,1.0,-0.952892260742,-0.330399829102,-9.99339772949,1.0,0.0,0.0,0.0,1.0,0.0,0.0,0.0,1.0
1463502869331691101,568,1463502869329262513,,-1.09216463566,-13.2734498978,91.8169326782,0.0100589999929,1.0,0.0,0.0,0.0,1.0,0.0,0.0,0.0,1.0,-3.84146332741,20.7317085266,-10.548781395,1.0,0.0,0.0,0.0,1.0,0.0,0.0,0.0,1.0,-1.06302561017,-0.378283862305,-9.94072529297,1.0,0.0,0.0,0.0,1.0,0.0,0.0,0.0,1.0
1463502869341849671,569,1463502869339275354,,-1.09512984753,-13.0445375443,91.7108688354,0.0100020002574,1.0,0.0,0.0,0.0,1.0,0.0,0.0,0.0,1.0,-2.19512200356,16.7073173523,-10.3048782349,1.0,0.0,0.0,0.0,1.0,0.0,0.0,0.0,1.0,-0.799663354492,-0.426167895508,-9.90720646973,1.0,0.0,0.0,0.0,1.0,0.0,0.0,0.0,1.0
1463502869352118293,570,1463502869349020696,,-1.06830441952,-12.8834152222,91.6050949097,0.00993600022048,1.0,0.0,0.0,0.0,1.0,0.0,0.0,0.0,1.0,0.18292683363,11.9512195587,-10.3048782349,1.0,0.0,0.0,0.0,1.0,0.0,0.0,0.0,1.0,-1.12527478027,-0.555454785156,-10.1178962158,1.0,0.0,0.0,0.0,1.0,0.0,0.0,0.0,1.0
1463502869361842853,571,1463502869359001870,,-1.03009784222,-12.7627477646,91.4991607666,0.0100020002574,1.0,0.0,0.0,0.0,1.0,0.0,0.0,0.0,1.0,2.5,8.10975551605,-10.6097564697,1.0,0.0,0.0,0.0,1.0,0.0,0.0,0.0,1.0,-1.16837033709,-0.349553442383,-10.2280294922,1.0,0.0,0.0,0.0,1.0,0.0,0.0,0.0,1.0
1463502869371949236,572,1463502869369264711,,-0.96415156126,-12.6900272369,91.3945922852,0.0100579997525,1.0,0.0,0.0,0.0,1.0,0.0,0.0,0.0,1.0,4.57317066193,5.85365867615,-10.3048782349,1.0,0.0,0.0,0.0,1.0,0.0,0.0,0.0,1.0,-1.59932670898,-0.488417138672,-10.0700121826,1.0,0.0,0.0,0.0,1.0,0.0,0.0,0.0,1.0
1463502869381751505,573,1463502869379382969,,-0.869038641453,-12.6404561996,91.2897872925,0.00999400019646,1.0,0.0,0.0,0.0,1.0,0.0,0.0,0.0,1.0,5.12195110321,4.63414621353,-9.87804889679,1.0,0.0,0.0,0.0,1.0,0.0,0.0,0.0,1.0,-1.838746875,-0.981622680664,-10.405200415,1.0,0.0,0.0,0.0,1.0,0.0,0.0,0.0,1.0
1463502869392160908,574,1463502869389068467,,-0.773475527763,-12.6120462418,91.1931304932,0.010006999597,1.0,0.0,0.0,0.0,1.0,0.0,0.0,0.0,1.0,5.85365867615,3.90243911743,-9.20731735229,1.0,0.0,0.0,0.0,1.0,0.0,0.0,0.0,1.0,-2.07816689489,-0.895431420898,-10.2950671387,1.0,0.0,0.0,0.0,1.0,0.0,0.0,0.0,1.0
1463502869401688594,575,1463502869398999017,,-0.6937687397,-12.5979661942,91.0891036987,0.00993900001049,1.0,0.0,0.0,0.0,1.0,0.0,0.0,0.0,1.0,5.24390268326,3.71951246262,-10.2439022064,1.0,0.0,0.0,0.0,1.0,0.0,0.0,0.0,1.0,-2.34631748082,-0.718260498047,-10.4578728516,1.0,0.0,0.0,0.0,1.0,0.0,0.0,0.0,1.0
1463502869412042840,576,1463502869409272430,,-0.608476698399,-12.5965967178,90.9839019775,0.0100630000234,1.0,0.0,0.0,0.0,1.0,0.0,0.0,0.0,1.0,5.97560977936,3.04878044128,-10.3048782349,1.0,0.0,0.0,0.0,1.0,0.0,0.0,0.0,1.0,-2.50912333984,-0.694318481445,-10.6446205811,1.0,0.0,0.0,0.0,1.0,0.0,0.0,0.0,1.0
1463502869421907869,577,1463502869419207980,,-0.519058942795,-12.5782232285,90.8549957275,0.0100339995697,1.0,0.0,0.0,0.0,1.0,0.0,0.0,0.0,1.0,6.15853643417,4.45121955872,-12.6829271317,1.0,0.0,0.0,0.0,1.0,0.0,0.0,0.0,1.0,-2.57137258301,-0.689530078125,-11.1761333496,1.0,0.0,0.0,0.0,1.0,0.0,0.0,0.0,1.0
1463502869431698003,578,1463502869429046186,,-0.392131954432,-12.5657672882,90.6940383911,0.00991200003773,1.0,0.0,0.0,0.0,1.0,0.0,0.0,0.0,1.0,7.62195110321,4.08536577225,-15.6097564697,1.0,0.0,0.0,0.0,1.0,0.0,0.0,0.0,1.0,-2.60967980957,-1.06302561017,-11.1713449463,1.0,0.0,0.0,0.0,1.0,0.0,0.0,0.0,1.0
1463502869441977770,579,1463502869438999131,,-0.248466402292,-12.5305280685,90.4961395264,0.00999299995601,1.0,0.0,0.0,0.0,1.0,0.0,0.0,0.0,1.0,8.71951198578,5.67073154449,-19.1463432312,1.0,0.0,0.0,0.0,1.0,0.0,0.0,0.0,1.0,-2.43729729004,-1.01035310059,-11.03248125,1.0,0.0,0.0,0.0,1.0,0.0,0.0,0.0,1.0
1463502869452011601,580,1463502869449375461,,-0.111801087856,-12.494890213,90.2786254883,0.0101439999416,1.0,0.0,0.0,0.0,1.0,0.0,0.0,0.0,1.0,7.62195110321,5.36585378647,-20.7926826477,1.0,0.0,0.0,0.0,1.0,0.0,0.0,0.0,1.0,-2.38941340297,-1.01035310059,-11.0803652832,1.0,0.0,0.0,0.0,1.0,0.0,0.0,0.0,1.0
1463502869462118921,581,1463502869459327365,,0.0367567203939,-12.4510297775,90.0543823242,0.00995500013232,1.0,0.0,0.0,0.0,1.0,0.0,0.0,0.0,1.0,7.62195110321,5.73170757294,-21.5853652954,1.0,0.0,0.0,0.0,1.0,0.0,0.0,0.0,1.0,-2.27927998047,-1.28808049316,-11.0564232666,1.0,0.0,0.0,0.0,1.0,0.0,0.0,0.0,1.0
1463502869472180825,582,1463502869469009947,,0.172397866845,-12.4131622314,89.8132247925,0.00990200042725,1.0,0.0,0.0,0.0,1.0,0.0,0.0,0.0,1.0,6.15853643417,4.45121955872,-23.4146347046,1.0,0.0,0.0,0.0,1.0,0.0,0.0,0.0,1.0,-2.14520483363,-1.28808049316,-11.0851536865,1.0,0.0,0.0,0.0,1.0,0.0,0.0,0.0,1.0
1463502869481710073,583,1463502869479004976,,0.294535070658,-12.3936805725,89.5651779175,0.0100130001083,1.0,0.0,0.0,0.0,1.0,0.0,0.0,0.0,1.0,4.63414621353,3.7804877758,-23.8414649963,1.0,0.0,0.0,0.0,1.0,0.0,0.0,0.0,1.0,-2.29843359375,-1.25456166992,-10.6302553711,1.0,0.0,0.0,0.0,1.0,0.0,0.0,0.0,1.0
1463502869500869143,584,1463502869492681610,,0.391539424658,-12.3639907837,89.3052139282,0.0101140001789,1.0,0.0,0.0,0.0,1.0,0.0,0.0,0.0,1.0,1.03658533096,2.37804889679,-24.5731716156,1.0,0.0,0.0,0.0,1.0,0.0,0.0,0.0,1.0,-1.89620771484,-1.47482822266,-10.9845972168,1.0,0.0,0.0,0.0,1.0,0.0,0.0,0.0,1.0
1463502869505723611,585,1463502869503522366,,0.392704367638,-12.3927564621,89.0294799805,0.0112859997898,1.0,0.0,0.0,0.0,1.0,0.0,0.0,0.0,1.0,-3.29268312454,-0.792682945728,-24.3902435303,1.0,0.0,0.0,0.0,1.0,0.0,0.0,0.0,1.0,-2.35110588414,-0.497993945312,-10.927136377,1.0,0.0,0.0,0.0,1.0,0.0,0.0,0.0,1.0
1463502869511699587,586,1463502869509099385,,0.398095697165,-12.3967008591,88.8273773193,0.00861500017345,1.0,0.0,0.0,0.0,1.0,0.0,0.0,0.0,1.0,-3.53658556938,-0.548780500889,-23.2317085266,1.0,0.0,0.0,0.0,1.0,0.0,0.0,0.0,1.0,-1.8866309082,-0.656011254883,-10.3860468018,1.0,0.0,0.0,0.0,1.0,0.0,0.0,0.0,1.0
1463502869521706334,587,1463502869519151861,,0.400962620974,-12.4440546036,88.6018753052,0.00997400004417,1.0,0.0,0.0,0.0,1.0,0.0,0.0,0.0,1.0,-3.96341490746,-3.71951246262,-22.3170719147,1.0,0.0,0.0,0.0,1.0,0.0,0.0,0.0,1.0,-2.11168571813,-0.713472094727,-10.4435076416,1.0,0.0,0.0,0.0,1.0,0.0,0.0,0.0,1.0
1463502869531296468,588,1463502869529108296,,0.419907003641,-12.4861984253,88.3684310913,0.00999899953604,1.0,0.0,0.0,0.0,1.0,0.0,0.0,0.0,1.0,-2.68292689323,-4.39024400711,-22.9878044128,1.0,0.0,0.0,0.0,1.0,0.0,0.0,0.0,1.0,-1.83395847168,-0.718260498047,-10.1226846191,1.0,0.0,0.0,0.0,1.0,0.0,0.0,0.0,1.0
1463502869541060091,589,1463502869539055825,,0.498224258423,-12.5526218414,88.1142196655,0.0100330002606,1.0,0.0,0.0,0.0,1.0,0.0,0.0,0.0,1.0,-0.609756112099,-5.85365867615,-24.1463432312,1.0,0.0,0.0,0.0,1.0,0.0,0.0,0.0,1.0,-2.07816689489,-1.40300217285,-10.405200415,1.0,0.0,0.0,0.0,1.0,0.0,0.0,0.0,1.0
1463502869553764749,590,1463502869550717464,,0.586062729359,-12.6377830505,87.8433914185,0.0100130001083,1.0,0.0,0.0,0.0,1.0,0.0,0.0,0.0,1.0,0.365853667259,-8.10975551605,-25.8536586761,1.0,0.0,0.0,0.0,1.0,0.0,0.0,0.0,1.0,-2.01591779785,-1.32638771973,-10.3333743652,1.0,0.0,0.0,0.0,1.0,0.0,0.0,0.0,1.0
1463502869561701293,591,1463502869558998331,,0.686328053474,-12.7193803787,87.5584869385,0.00995299965143,1.0,0.0,0.0,0.0,1.0,0.0,0.0,0.0,1.0,0.792682945728,-6.82926845551,-27.2560977936,1.0,0.0,0.0,0.0,1.0,0.0,0.0,0.0,1.0,-2.18830031738,-1.41736738281,-10.1418382324,1.0,0.0,0.0,0.0,1.0,0.0,0.0,0.0,1.0
1463502869572192727,592,1463502869568956536,,0.761888444424,-12.8192033768,87.2824783325,0.00999800022691,1.0,0.0,0.0,0.0,1.0,0.0,0.0,0.0,1.0,1.70731711388,-8.29268264771,-26.9512195587,1.0,0.0,0.0,0.0,1.0,0.0,0.0,0.0,1.0,-2.20745393066,-0.794874951172,-9.85932243652,1.0,0.0,0.0,0.0,1.0,0.0,0.0,0.0,1.0
1463502869582016871,593,1463502869579174638,,0.849368155003,-12.9040708542,87.0162200928,0.0100050000474,1.0,0.0,0.0,0.0,1.0,0.0,0.0,0.0,1.0,0.975609779358,-7.31707334518,-25.4878044128,1.0,0.0,0.0,0.0,1.0,0.0,0.0,0.0,1.0,-2.10210891149,-1.17794714373,-9.71567033691,1.0,0.0,0.0,0.0,1.0,0.0,0.0,0.0,1.0
1463502869590854037,594,1463502869588951750,,0.890765726566,-13.0013513565,86.7816085815,0.00999400019646,1.0,0.0,0.0,0.0,1.0,0.0,0.0,0.0,1.0,-1.2195122242,-7.80487823486,-22.8048782349,1.0,0.0,0.0,0.0,1.0,0.0,0.0,0.0,1.0,-2.18830031738,-0.852335791016,-9.43794235981,1.0,0.0,0.0,0.0,1.0,0.0,0.0,0.0,1.0
1463502869600781150,595,1463502869598912873,,0.910740375519,-13.0855636597,86.5729141235,0.010006999597,1.0,0.0,0.0,0.0,1.0,0.0,0.0,0.0,1.0,-1.52439022064,-7.19512224197,-20.5487823486,1.0,0.0,0.0,0.0,1.0,0.0,0.0,0.0,1.0,-2.04943662109,-0.622492431641,-9.31823227681,1.0,0.0,0.0,0.0,1.0,0.0,0.0,0.0,1.0
1463502869611902947,596,1463502869608886704,,0.93674659729,-13.1862468719,86.370223999,0.00998700037599,1.0,0.0,0.0,0.0,1.0,0.0,0.0,0.0,1.0,-1.76829278469,-7.80487823486,-19.7560977936,1.0,0.0,0.0,0.0,1.0,0.0,0.0,0.0,1.0,-2.36068269078,-0.833182177734,-9.78749638672,1.0,0.0,0.0,0.0,1.0,0.0,0.0,0.0,1.0
1463502869621072509,597,1463502869619126888,,0.980204164982,-13.2594852448,86.1766586304,0.0100149996579,1.0,0.0,0.0,0.0,1.0,0.0,0.0,0.0,1.0,-1.58536589146,-6.21951246262,-18.4146347046,1.0,0.0,0.0,0.0,1.0,0.0,0.0,0.0,1.0,-2.10210891149,-1.12527478027,-9.5193463853,1.0,0.0,0.0,0.0,1.0,0.0,0.0,0.0,1.0
1463502869630794673,598,1463502869628958948,,1.00263047218,-13.3499269485,85.9923858643,0.00999699998647,1.0,0.0,0.0,0.0,1.0,0.0,0.0,0.0,1.0,-2.86585378647,-5.85365867615,-17.6829280853,1.0,0.0,0.0,0.0,1.0,0.0,0.0,0.0,1.0,-2.62883342285,-1.08217922346,-10.0508585693,1.0,0.0,0.0,0.0,1.0,0.0,0.0,0.0,1.0
1463502869640720900,599,1463502869638952988,,1.02223360538,-13.4191417694,85.8140869141,0.00999699998647,1.0,0.0,0.0,0.0,1.0,0.0,0.0,0.0,1.0,-3.53658556938,-3.35365867615,-17.0121955872,1.0,0.0,0.0,0.0,1.0,0.0,0.0,0.0,1.0,-2.62404501953,-1.14442839355,-9.70609353027,1.0,0.0,0.0,0.0,1.0,0.0,0.0,0.0,1.0
1463502869650794366,600,1463502869648901819,,1.03073716164,-13.4691753387,85.643913269,0.0099950004369,1.0,0.0,0.0,0.0,1.0,0.0,0.0,0.0,1.0,-2.56097555161,-1.70731711388,-16.7073173523,1.0,0.0,0.0,0.0,1.0,0.0,0.0,0.0,1.0,-2.61925661621,-0.804451757813,-9.84016882324,1.0,0.0,0.0,0.0,1.0,0.0,0.0,0.0,1.0
1463502869660721947,601,1463502869658954868,,1.04600727558,-13.5035247803,85.4769897461,0.00999899953604,1.0,0.0,0.0,0.0,1.0,0.0,0.0,0.0,1.0,-1.64634156227,0.609756112099,-16.4634151459,1.0,0.0,0.0,0.0,1.0,0.0,0.0,0.0,1.0,-2.83473476562,-0.794874951172,-10.0795889893,1.0,0.0,0.0,0.0,1.0,0.0,0.0,0.0,1.0
1463502869670838174,602,1463502869668926095,,1.09148681164,-13.5085086823,85.2947387695,0.0100220004097,1.0,0.0,0.0,0.0,1.0,0.0,0.0,0.0,1.0,-0.426829278469,3.90243911743,-17.6219520569,1.0,0.0,0.0,0.0,1.0,0.0,0.0,0.0,1.0,-2.93529123535,-1.08217922346,-10.1418382324,1.0,0.0,0.0,0.0,1.0,0.0,0.0,0.0,1.0
1463502869680775286,603,1463502869678957582,,1.15889644623,-13.4880838394,85.1001739502,0.0099849998951,1.0,0.0,0.0,0.0,1.0,0.0,0.0,0.0,1.0,0.304878056049,6.82926845551,-18.658536911,1.0,0.0,0.0,0.0,1.0,0.0,0.0,0.0,1.0,-2.97359846191,-1.30244570312,-9.98382092285,1.0,0.0,0.0,0.0,1.0,0.0,0.0,0.0,1.0
1463502869690817502,604,1463502869688918913,,1.18834388256,-13.4223566055,84.9154129028,0.00999100040644,1.0,0.0,0.0,0.0,1.0,0.0,0.0,0.0,1.0,-0.670731723309,10.7317075729,-18.4146347046,1.0,0.0,0.0,0.0,1.0,0.0,0.0,0.0,1.0,-2.86825358887,-0.823605371094,-10.0652237793,1.0,0.0,0.0,0.0,1.0,0.0,0.0,0.0,1.0
1463502869701023364,605,1463502869698893525,,1.17635715008,-13.3195028305,84.7528152466,0.0100020002574,1.0,0.0,0.0,0.0,1.0,0.0,0.0,0.0,1.0,-2.37804889679,13.2317075729,-16.7682933807,1.0,0.0,0.0,0.0,1.0,0.0,0.0,0.0,1.0,-2.71981308594,-0.483628735352,-10.4626612549,1.0,0.0,0.0,0.0,1.0,0.0,0.0,0.0,1.0
1463502869710800945,606,1463502869708900949,,1.1781027317,-13.2092266083,84.5989456177,0.00999899953604,1.0,0.0,0.0,0.0,1.0,0.0,0.0,0.0,1.0,-2.92682933807,16.4634151459,-15.4878053665,1.0,0.0,0.0,0.0,1.0,0.0,0.0,0.0,1.0,-2.99754047852,-0.857124194336,-9.82101520996,1.0,0.0,0.0,0.0,1.0,0.0,0.0,0.0,1.0
1463502869721061546,607,1463502869718917645,,1.15296328068,-13.0533781052,84.4694595337,0.00999999977648,1.0,0.0,0.0,0.0,1.0,0.0,0.0,0.0,1.0,-4.39024400711,19.8780498505,-13.3536586761,1.0,0.0,0.0,0.0,1.0,0.0,0.0,0.0,1.0,-2.85388837891,-0.76135612793,-10.1897222656,1.0,0.0,0.0,0.0,1.0,0.0,0.0,0.0,1.0
1463502869735711095,608,1463502869732699123,,1.11250698566,-12.8740901947,84.3619613647,0.0100180003792,1.0,0.0,0.0,0.0,1.0,0.0,0.0,0.0,1.0,-4.51219558716,22.5609760284,-11.4634151459,1.0,0.0,0.0,0.0,1.0,0.0,0.0,0.0,1.0,-2.88261879883,-0.588973571866,-10.180145459,1.0,0.0,0.0,0.0,1.0,0.0,0.0,0.0,1.0
1463502869741901185,609,1463502869738947285,,1.08146798611,-12.6546878815,84.2524719238,0.00999299995601,1.0,0.0,0.0,0.0,1.0,0.0,0.0,0.0,1.0,-4.51219558716,25.1219520569,-11.5243911743,1.0,0.0,0.0,0.0,1.0,0.0,0.0,0.0,1.0,-2.63362182617,-0.775721337891,-10.4770264648,1.0,0.0,0.0,0.0,1.0,0.0,0.0,0.0,1.0
1463502869752520431,610,1463502869748913148,,1.04392647743,-12.4290094376,84.1515045166,0.00999699998647,1.0,0.0,0.0,0.0,1.0,0.0,0.0,0.0,1.0,-4.32926845551,26.158536911,-10.8536586761,1.0,0.0,0.0,0.0,1.0,0.0,0.0,0.0,1.0,-2.60967980957,-0.636857641602,-10.2471831055,1.0,0.0,0.0,0.0,1.0,0.0,0.0,0.0,1.0
1463502869760709839,611,1463502869758922031,,1.00798249245,-12.1724205017,84.0527572632,0.00999899953604,1.0,0.0,0.0,0.0,1.0,0.0,0.0,0.0,1.0,-3.35365867615,29.0243911743,-10.8536586761,1.0,0.0,0.0,0.0,1.0,0.0,0.0,0.0,1.0,-2.53785375977,-0.493205541992,-10.314220752,1.0,0.0,0.0,0.0,1.0,0.0,0.0,0.0,1.0
1463502869771221064,612,1463502869768951590,,0.992435932159,-11.9194793701,83.9605407715,0.00999800022691,1.0,0.0,0.0,0.0,1.0,0.0,0.0,0.0,1.0,-0.975609779358,28.3536586761,-10.2439022064,1.0,0.0,0.0,0.0,1.0,0.0,0.0,0.0,1.0,-2.42293208008,-0.45489831543,-10.299855542,1.0,0.0,0.0,0.0,1.0,0.0,0.0,0.0,1.0
1463502869780697761,613,1463502869778934484,,0.993303835392,-11.6352510452,83.8698959351,0.0100060002878,1.0,0.0,0.0,0.0,1.0,0.0,0.0,0.0,1.0,0.12195122242,30.4268321991,-10.0,1.0,0.0,0.0,0.0,1.0,0.0,0.0,0.0,1.0,-2.12605122035,-0.555454785156,-10.060435376,1.0,0.0,0.0,0.0,1.0,0.0,0.0,0.0,1.0
1463502869791884610,614,1463502869789296387,,1.00089502335,-11.3559627533,83.7915344238,0.0100029995665,1.0,0.0,0.0,0.0,1.0,0.0,0.0,0.0,1.0,0.0,30.2439022064,-8.59756088257,1.0,0.0,0.0,0.0,1.0,0.0,0.0,0.0,1.0,-2.12605122035,-0.756567724609,-10.060435376,1.0,0.0,0.0,0.0,1.0,0.0,0.0,0.0,1.0
1463502869801195109,615,1463502869798997093,,0.991931319237,-11.0606079102,83.7236938477,0.00999299995601,1.0,0.0,0.0,0.0,1.0,0.0,0.0,0.0,1.0,-0.426829278469,30.7317066193,-7.80487823486,1.0,0.0,0.0,0.0,1.0,0.0,0.0,0.0,1.0,-1.80522805176,-0.555454785156,-9.76834277344,1.0,0.0,0.0,0.0,1.0,0.0,0.0,0.0,1.0
1463502869811642637,616,1463502869808951132,,0.978518426418,-10.7609567642,83.6701583862,0.00999699998647,1.0,0.0,0.0,0.0,1.0,0.0,0.0,0.0,1.0,-0.609756112099,30.6097583771,-6.40243911743,1.0,0.0,0.0,0.0,1.0,0.0,0.0,0.0,1.0,-1.68072956543,-0.569819995117,-9.93593688965,1.0,0.0,0.0,0.0,1.0,0.0,0.0,0.0,1.0
1463502869821897508,617,1463502869819287983,,0.974151551723,-10.479552269,83.627532959,0.0100130001083,1.0,0.0,0.0,0.0,1.0,0.0,0.0,0.0,1.0,0.487804889679,29.2073173523,-5.30487823486,1.0,0.0,0.0,0.0,1.0,0.0,0.0,0.0,1.0,-1.72382519531,-0.579396801758,-10.0269165527,1.0,0.0,0.0,0.0,1.0,0.0,0.0,0.0,1.0
1463502869830777384,618,1463502869828973325,,0.997885882854,-10.1894044876,83.5770263672,0.00999299995601,1.0,0.0,0.0,0.0,1.0,0.0,0.0,0.0,1.0,1.70731711388,30.3658542633,-5.85365867615,1.0,0.0,0.0,0.0,1.0,0.0,0.0,0.0,1.0,-1.69509477539,-0.837970581055,-9.90241806641,1.0,0.0,0.0,0.0,1.0,0.0,0.0,0.0,1.0
1463502869840777569,619,1463502869838991271,,0.973520517349,-9.9184513092,83.5498580933,0.0100020002574,1.0,0.0,0.0,0.0,1.0,0.0,0.0,0.0,1.0,1.2804877758,28.8414649963,-4.2682929039,1.0,0.0,0.0,0.0,1.0,0.0,0.0,0.0,1.0,-1.67594116211,-0.124498486328,-9.69172832031,1.0,0.0,0.0,0.0,1.0,0.0,0.0,0.0,1.0
1463502869850672806,620,1463502869848954789,,0.957152247429,-9.64231491089,83.5357971191,0.00999999977648,1.0,0.0,0.0,0.0,1.0,0.0,0.0,0.0,1.0,2.07317066193,28.7804889679,-2.92682933807,1.0,0.0,0.0,0.0,1.0,0.0,0.0,0.0,1.0,-1.51792385254,-0.162805712891,-9.66778688823,1.0,0.0,0.0,0.0,1.0,0.0,0.0,0.0,1.0
1463502869861535124,621,1463502869858977630,,0.972890377045,-9.36452579498,83.5264434814,0.00999400019646,1.0,0.0,0.0,0.0,1.0,0.0,0.0,0.0,1.0,2.31707310677,29.2073173523,-1.95121955872,1.0,0.0,0.0,0.0,1.0,0.0,0.0,0.0,1.0,-1.52750065918,-0.703895288086,-9.77313117676,1.0,0.0,0.0,0.0,1.0,0.0,0.0,0.0,1.0
1463502869870987446,622,1463502869869014846,,0.977962255478,-9.07777690887,83.5329055786,0.0100029995665,1.0,0.0,0.0,0.0,1.0,0.0,0.0,0.0,1.0,2.01219511032,28.6585388184,-0.487804889679,1.0,0.0,0.0,0.0,1.0,0.0,0.0,0.0,1.0,-1.23061965332,-0.61770402832,-9.82580361328,1.0,0.0,0.0,0.0,1.0,0.0,0.0,0.0,1.0
1463502869880867735,623,1463502869878995813,,0.972929060459,-8.8064289093,83.5465545654,0.0100029995665,1.0,0.0,0.0,0.0,1.0,0.0,0.0,0.0,1.0,2.07317066193,28.3536586761,0.0609756112099,1.0,0.0,0.0,0.0,1.0,0.0,0.0,0.0,1.0,-1.38863696289,-0.445321508789,-9.76834277344,1.0,0.0,0.0,0.0,1.0,0.0,0.0,0.0,1.0
1463502869890856410,624,1463502869888976206,,0.976317644119,-8.56251525879,83.5818786621,0.0100010000169,1.0,0.0,0.0,0.0,1.0,0.0,0.0,0.0,1.0,0.792682945728,29.0853672028,2.56097555161,1.0,0.0,0.0,0.0,1.0,0.0,0.0,0.0,1.0,-1.97761057129,-0.895431420898,-9.89762966309,1.0,0.0,0.0,0.0,1.0,0.0,0.0,0.0,1.0
1463502869900790397,625,1463502869899011495,,0.948035120964,-8.30467700958,83.6406555176,0.00999599974602,1.0,0.0,0.0,0.0,1.0,0.0,0.0,0.0,1.0,-1.15853655338,27.8658542633,4.75609779358,1.0,0.0,0.0,0.0,1.0,0.0,0.0,0.0,1.0,-1.49877023926,-0.751779321289,-10.2088758789,1.0,0.0,0.0,0.0,1.0,0.0,0.0,0.0,1.0
1463502869913714065,626,1463502869910325844,,0.86178123951,-8.04570198059,83.7395706177,0.0099950004369,1.0,0.0,0.0,0.0,1.0,0.0,0.0,0.0,1.0,-2.98780488968,27.9878063202,8.23170757294,1.0,0.0,0.0,0.0,1.0,0.0,0.0,0.0,1.0,-1.38863696289,-0.110133276367,-9.8305920166,1.0,0.0,0.0,0.0,1.0,0.0,0.0,0.0,1.0
1463502869922397222,627,1463502869918997542,,0.758623540401,-7.7850317955,83.8684921265,0.00999999977648,1.0,0.0,0.0,0.0,1.0,0.0,0.0,0.0,1.0,-2.37804889679,27.5,10.9756097794,1.0,0.0,0.0,0.0,1.0,0.0,0.0,0.0,1.0,-1.24498486328,0.248996972656,-9.99339772949,1.0,0.0,0.0,0.0,1.0,0.0,0.0,0.0,1.0
1463502869933825060,628,1463502869928948196,,0.697134494781,-7.54850435257,84.0033493042,0.0100029995665,1.0,0.0,0.0,0.0,1.0,0.0,0.0,0.0,1.0,0.853658556938,25.7317085266,11.7682924271,1.0,0.0,0.0,0.0,1.0,0.0,0.0,0.0,1.0,-1.26892687988,0.0909796630859,-9.62469125835,1.0,0.0,0.0,0.0,1.0,0.0,0.0,0.0,1.0
1463502869941973687,629,1463502869938911558,,0.672631561756,-7.32226514816,84.1346054077,0.00999400019646,1.0,0.0,0.0,0.0,1.0,0.0,0.0,0.0,1.0,3.59756112099,24.3292694092,11.5853662491,1.0,0.0,0.0,0.0,1.0,0.0,0.0,0.0,1.0,-1.19231249982,-0.0478840332031,-9.86889924316,1.0,0.0,0.0,0.0,1.0,0.0,0.0,0.0,1.0
1463502869952377568,630,1463502869948953722,,0.677261710167,-7.12428474426,84.275390625,0.0100020002574,1.0,0.0,0.0,0.0,1.0,0.0,0.0,0.0,1.0,6.64634132385,21.0975627899,12.5609760284,1.0,0.0,0.0,0.0,1.0,0.0,0.0,0.0,1.0,-1.10133276367,-0.0335188255255,-10.0364933594,1.0,0.0,0.0,0.0,1.0,0.0,0.0,0.0,1.0
1463502869961890359,631,1463502869958989324,,0.687370657921,-6.91920518875,84.4325332642,0.0099950004369,1.0,0.0,0.0,0.0,1.0,0.0,0.0,0.0,1.0,7.31707334518,20.5487823486,14.2073173523,1.0,0.0,0.0,0.0,1.0,0.0,0.0,0.0,1.0,-0.799663354492,-0.0383072265625,-9.61990285503,1.0,0.0,0.0,0.0,1.0,0.0,0.0,0.0,1.0
1463502869971941325,632,1463502869968981488,,0.706452608109,-6.75859546661,84.6216049194,0.0100710000843,1.0,0.0,0.0,0.0,1.0,0.0,0.0,0.0,1.0,7.68292665482,17.1951217651,17.3780498505,1.0,0.0,0.0,0.0,1.0,0.0,0.0,0.0,1.0,-0.986411083984,-0.186747729492,-9.81622680664,1.0,0.0,0.0,0.0,1.0,0.0,0.0,0.0,1.0
1463502869982017083,633,1463502869978970371,,0.730826020241,-6.61597490311,84.8374557495,0.00994499959052,1.0,0.0,0.0,0.0,1.0,0.0,0.0,0.0,1.0,7.98780536652,15.6707315445,20.3658542633,1.0,0.0,0.0,0.0,1.0,0.0,0.0,0.0,1.0,-0.972045874023,-0.287304199219,-9.88326445312,1.0,0.0,0.0,0.0,1.0,0.0,0.0,0.0,1.0
1463502869991676018,634,1463502869988927014,,0.772319614887,-6.49168109894,85.067237854,0.0099950004369,1.0,0.0,0.0,0.0,1.0,0.0,0.0,0.0,1.0,8.90243911743,13.4146347046,21.7682933807,1.0,0.0,0.0,0.0,1.0,0.0,0.0,0.0,1.0,-0.885854614258,-0.450109912109,-9.94551369629,1.0,0.0,0.0,0.0,1.0,0.0,0.0,0.0,1.0
1463502870001754068,635,1463502869998916627,,0.841879069805,-6.38983917236,85.3004608154,0.00999699998647,1.0,0.0,0.0,0.0,1.0,0.0,0.0,0.0,1.0,10.0609760284,11.0975618362,22.3170719147,1.0,0.0,0.0,0.0,1.0,0.0,0.0,0.0,1.0,-0.871489404297,-0.77093293457,-10.2328178955,1.0,0.0,0.0,0.0,1.0,0.0,0.0,0.0,1.0
1463502870011760659,636,1463502870008921499,,0.904845058918,-6.32311344147,85.5425796509,0.00999699998647,1.0,0.0,0.0,0.0,1.0,0.0,0.0,0.0,1.0,9.39024448395,8.90243911743,23.2317085266,1.0,0.0,0.0,0.0,1.0,0.0,0.0,0.0,1.0,-1.10133276367,-0.809240161133,-10.3716815918,1.0,0.0,0.0,0.0,1.0,0.0,0.0,0.0,1.0
1463502870021833083,637,1463502870019116475,,0.961202263832,-6.25808334351,85.7925567627,0.0100130001083,1.0,0.0,0.0,0.0,1.0,0.0,0.0,0.0,1.0,7.43902492523,6.64634132385,24.1463432312,1.0,0.0,0.0,0.0,1.0,0.0,0.0,0.0,1.0,-0.723048901367,-1.10612116699,-10.7499654541,1.0,0.0,0.0,0.0,1.0,0.0,0.0,0.0,1.0
1463502870031868112,638,1463502870028930098,,0.964497864246,-6.27298116684,86.0658111572,0.00999400019646,1.0,0.0,0.0,0.0,1.0,0.0,0.0,0.0,1.0,5.18292713165,5.06097555161,26.2195129395,1.0,0.0,0.0,0.0,1.0,0.0,0.0,0.0,1.0,-2.03507141113,-0.612915625,-11.286266626,1.0,0.0,0.0,0.0,1.0,0.0,0.0,0.0,1.0
1463502870041736631,639,1463502870038918512,,0.942820966244,-6.28934717178,86.3790359497,0.00999599974602,1.0,0.0,0.0,0.0,1.0,0.0,0.0,0.0,1.0,3.59756112099,5.30487823486,30.1219520569,1.0,0.0,0.0,0.0,1.0,0.0,0.0,0.0,1.0,-2.10210891149,-0.517147558594,-11.2671130127,1.0,0.0,0.0,0.0,1.0,0.0,0.0,0.0,1.0
1463502870051836295,640,1463502870048916145,,0.915031731129,-6.29789209366,86.7143783569,0.00999899953604,1.0,0.0,0.0,0.0,1.0,0.0,0.0,0.0,1.0,4.57317066193,6.70731735229,32.134147644,1.0,0.0,0.0,0.0,1.0,0.0,0.0,0.0,1.0,-2.17393510742,-0.234631762695,-10.9941740234,1.0,0.0,0.0,0.0,1.0,0.0,0.0,0.0,1.0
1463502870061529762,641,1463502870058909507,,0.943862736225,-6.316801548,87.0258026123,0.00999800022691,1.0,0.0,0.0,0.0,1.0,0.0,0.0,0.0,1.0,5.79268312454,6.0365858078,30.2439022064,1.0,0.0,0.0,0.0,1.0,0.0,0.0,0.0,1.0,-2.42293208008,-1.14442839355,-11.7698953613,1.0,0.0,0.0,0.0,1.0,0.0,0.0,0.0,1.0
1463502870071651769,642,1463502870068994223,,0.982511997223,-6.30792331696,87.3288955688,0.00999999977648,1.0,0.0,0.0,0.0,1.0,0.0,0.0,0.0,1.0,5.85365867615,5.36585378647,29.5121974945,1.0,0.0,0.0,0.0,1.0,0.0,0.0,0.0,1.0,-1.65678754883,-1.2976572998,-11.5879360352,1.0,0.0,0.0,0.0,1.0,0.0,0.0,0.0,1.0
1463502870081906902,643,1463502870078962690,,0.970422804356,-6.29353380203,87.6371383667,0.010006999597,1.0,0.0,0.0,0.0,1.0,0.0,0.0,0.0,1.0,4.20731735229,4.75609779358,29.6341457367,1.0,0.0,0.0,0.0,1.0,0.0,0.0,0.0,1.0,-1.42694418945,-0.603338854892,-11.7411649414,1.0,0.0,0.0,0.0,1.0,0.0,0.0,0.0,1.0
1463502870091804587,644,1463502870088923656,,0.97768676281,-6.30916929245,87.9414367676,0.00999699998647,1.0,0.0,0.0,0.0,1.0,0.0,0.0,0.0,1.0,6.09756088257,1.52439022064,29.3292694092,1.0,0.0,0.0,0.0,1.0,0.0,0.0,0.0,1.0,-1.32638771973,-0.579396801758,-11.3054202393,1.0,0.0,0.0,0.0,1.0,0.0,0.0,0.0,1.0
1463502870101973209,645,1463502870098914779,,0.980411171913,-6.33364152908,88.2627944946,0.00999699998647,1.0,0.0,0.0,0.0,1.0,0.0,0.0,0.0,1.0,7.01219511032,0.12195122242,30.9146327972,1.0,0.0,0.0,0.0,1.0,0.0,0.0,0.0,1.0,-1.1540052002,-0.325611425781,-10.7068698242,1.0,0.0,0.0,0.0,1.0,0.0,0.0,0.0,1.0
1463502870111454697,646,1463502870108926891,,0.961088597775,-6.38246870041,88.6109085083,0.00999800022691,1.0,0.0,0.0,0.0,1.0,0.0,0.0,0.0,1.0,6.40243911743,-3.29268312454,33.4756126404,1.0,0.0,0.0,0.0,1.0,0.0,0.0,0.0,1.0,-0.905008227539,-0.076614453125,-10.046070166,1.0,0.0,0.0,0.0,1.0,0.0,0.0,0.0,1.0
1463502870121584986,647,1463502870118909367,,0.95399171114,-6.43431615829,89.0009231567,0.0100039998069,1.0,0.0,0.0,0.0,1.0,0.0,0.0,0.0,1.0,6.89024400711,-7.07317113876,37.8048782349,1.0,0.0,0.0,0.0,1.0,0.0,0.0,0.0,1.0,-0.258573779297,-0.268150604204,-9.18415756836,1.0,0.0,0.0,0.0,1.0,0.0,0.0,0.0,1.0
1463502870131843452,648,1463502870128950854,,0.955896735191,-6.53711700439,89.4320526123,0.010006999597,1.0,0.0,0.0,0.0,1.0,0.0,0.0,0.0,1.0,7.37804937363,-9.81707286835,42.0121955872,1.0,0.0,0.0,0.0,1.0,0.0,0.0,0.0,1.0,-0.627280834961,-0.411802685547,-9.02614025879,1.0,0.0,0.0,0.0,1.0,0.0,0.0,0.0,1.0
1463502870141747283,649,1463502870138936612,,0.969307661057,-6.67392730713,89.8840408325,0.00999299995601,1.0,0.0,0.0,0.0,1.0,0.0,0.0,0.0,1.0,8.47560977936,-15.1219511032,44.2682914734,1.0,0.0,0.0,0.0,1.0,0.0,0.0,0.0,1.0,-0.320823022461,-0.45489831543,-8.64785698101,1.0,0.0,0.0,0.0,1.0,0.0,0.0,0.0,1.0
1463502870151587676,650,1463502870148937370,,0.988545060158,-6.86488485336,90.348236084,0.00999999977648,1.0,0.0,0.0,0.0,1.0,0.0,0.0,0.0,1.0,9.81707286835,-17.6829280853,45.4268302917,1.0,0.0,0.0,0.0,1.0,0.0,0.0,0.0,1.0,-0.775721337891,-0.383072265625,-8.66701059429,1.0,0.0,0.0,0.0,1.0,0.0,0.0,0.0,1.0
1463502870161548018,651,1463502870158933336,,1.00165605545,-7.06423091888,90.8270874023,0.0100050000474,1.0,0.0,0.0,0.0,1.0,0.0,0.0,0.0,1.0,11.5243911743,-20.0,46.6463432312,1.0,0.0,0.0,0.0,1.0,0.0,0.0,0.0,1.0,-0.555454785156,-0.076614453125,-8.44195446919,1.0,0.0,0.0,0.0,1.0,0.0,0.0,0.0,1.0
1463502870171831483,652,1463502870169004927,,1.0281484127,-7.29709720612,91.3230819702,0.00999599974602,1.0,0.0,0.0,0.0,1.0,0.0,0.0,0.0,1.0,13.7195129395,-22.2560977936,48.3536567688,1.0,0.0,0.0,0.0,1.0,0.0,0.0,0.0,1.0,-0.727837304687,-0.00957680664062,-8.24084211426,1.0,0.0,0.0,0.0,1.0,0.0,0.0,0.0,1.0
1463502870181541409,653,1463502870178934279,,1.08528923988,-7.54908323288,91.8043289185,0.0100020002574,1.0,0.0,0.0,0.0,1.0,0.0,0.0,0.0,1.0,16.7073173523,-23.5365848541,46.8902435303,1.0,0.0,0.0,0.0,1.0,0.0,0.0,0.0,1.0,-0.91458503418,-0.0287304199219,-8.84896933594,1.0,0.0,0.0,0.0,1.0,0.0,0.0,0.0,1.0
1463502870191942218,654,1463502870188977329,,1.18417072296,-7.83304405212,92.2859573364,0.00999800022691,1.0,0.0,0.0,0.0,1.0,0.0,0.0,0.0,1.0,19.3292694092,-27.0731716156,47.2560958862,1.0,0.0,0.0,0.0,1.0,0.0,0.0,0.0,1.0,-0.852335791016,-0.3064578125,-8.45631967915,1.0,0.0,0.0,0.0,1.0,0.0,0.0,0.0,1.0
1463502870201719174,655,1463502870198930847,,1.28039062023,-8.12126255035,92.7589492798,0.0100020002574,1.0,0.0,0.0,0.0,1.0,0.0,0.0,0.0,1.0,19.9390239716,-25.975610733,46.2804908752,1.0,0.0,0.0,0.0,1.0,0.0,0.0,0.0,1.0,-1.11569797363,-0.205901342773,-8.46589648579,1.0,0.0,0.0,0.0,1.0,0.0,0.0,0.0,1.0
1463502870211935452,656,1463502870208912282,,1.40810358524,-8.45853900909,93.2257537842,0.00999400019646,1.0,0.0,0.0,0.0,1.0,0.0,0.0,0.0,1.0,22.4390239716,-28.7195110321,45.9146347046,1.0,0.0,0.0,0.0,1.0,0.0,0.0,0.0,1.0,-1.57059628906,-0.368707055664,-8.96867941895,1.0,0.0,0.0,0.0,1.0,0.0,0.0,0.0,1.0
1463502870221922929,657,1463502870218925592,,1.54115796089,-8.78456115723,93.6804275513,0.0100029995665,1.0,0.0,0.0,0.0,1.0,0.0,0.0,0.0,1.0,22.5609760284,-27.317073822,44.7560997009,1.0,0.0,0.0,0.0,1.0,0.0,0.0,0.0,1.0,-1.60890351563,-0.45489831543,-8.72447084961,1.0,0.0,0.0,0.0,1.0,0.0,0.0,0.0,1.0
1463502870231390511,658,1463502870228973173,,1.67453563213,-9.12116622925,94.1318817139,0.0100050000474,1.0,0.0,0.0,0.0,1.0,0.0,0.0,0.0,1.0,22.9878044128,-25.6097564697,44.390247345,1.0,0.0,0.0,0.0,1.0,0.0,0.0,0.0,1.0,-2.21224233398,-0.474051928711,-9.22725319824,1.0,0.0,0.0,0.0,1.0,0.0,0.0,0.0,1.0
1463502870241825643,659,1463502870238938931,,1.81485331059,-9.42750167847,94.5707015991,0.0100010000169,1.0,0.0,0.0,0.0,1.0,0.0,0.0,0.0,1.0,22.8048782349,-23.5975627899,43.2926864624,1.0,0.0,0.0,0.0,1.0,0.0,0.0,0.0,1.0,-2.07816689489,-0.651222851562,-9.193734375,1.0,0.0,0.0,0.0,1.0,0.0,0.0,0.0,1.0
1463502870251703120,660,1463502870248918126,,1.94452035427,-9.70479393005,94.9972076416,0.00999299995601,1.0,0.0,0.0,0.0,1.0,0.0,0.0,0.0,1.0,22.8048782349,-20.975610733,41.8902435303,1.0,0.0,0.0,0.0,1.0,0.0,0.0,0.0,1.0,-2.1691467041,-0.521935925381,-9.61511445171,1.0,0.0,0.0,0.0,1.0,0.0,0.0,0.0,1.0
1463502870261652992,661,1463502870258916749,,2.07111477852,-9.96600532532,95.4037780762,0.00999800022691,1.0,0.0,0.0,0.0,1.0,0.0,0.0,0.0,1.0,22.7439041138,-19.5731716156,39.817073822,1.0,0.0,0.0,0.0,1.0,0.0,0.0,0.0,1.0,-2.22181914063,-0.483628735352,-9.82580361328,1.0,0.0,0.0,0.0,1.0,0.0,0.0,0.0,1.0
1463502870272120155,662,1463502870268981777,,2.19995069504,-10.2126207352,95.7893600464,0.0100029995665,1.0,0.0,0.0,0.0,1.0,0.0,0.0,0.0,1.0,22.7439041138,-17.3780498505,37.682926178,1.0,0.0,0.0,0.0,1.0,0.0,0.0,0.0,1.0,-2.4756045166,-0.526724328702,-10.1370498291,1.0,0.0,0.0,0.0,1.0,0.0,0.0,0.0,1.0
1463502870281872997,663,1463502870278920296,,2.33023905754,-10.4365701675,96.155632019,0.0100010000169,1.0,0.0,0.0,0.0,1.0,0.0,0.0,0.0,1.0,22.1951236725,-14.3902444839,35.7926826477,1.0,0.0,0.0,0.0,1.0,0.0,0.0,0.0,1.0,-2.71981308594,-0.660799658203,-10.3668931885,1.0,0.0,0.0,0.0,1.0,0.0,0.0,0.0,1.0
1463502870292116307,664,1463502870288947981,,2.444221735,-10.6207838058,96.5010910034,0.0100039998069,1.0,0.0,0.0,0.0,1.0,0.0,0.0,0.0,1.0,21.4634151459,-11.4024391174,33.4146347046,1.0,0.0,0.0,0.0,1.0,0.0,0.0,0.0,1.0,-2.66714064941,-0.478840332031,-10.7547538574,1.0,0.0,0.0,0.0,1.0,0.0,0.0,0.0,1.0
1463502870302204304,665,1463502870298961343,,2.57779765129,-10.7709054947,96.8163375854,0.00999800022691,1.0,0.0,0.0,0.0,1.0,0.0,0.0,0.0,1.0,21.5243911743,-7.98780536652,30.6097583771,1.0,0.0,0.0,0.0,1.0,0.0,0.0,0.0,1.0,-2.78685073242,-0.809240161133,-11.01811604,1.0,0.0,0.0,0.0,1.0,0.0,0.0,0.0,1.0
1463502870311603970,666,1463502870308946840,,2.69462132454,-10.8899440765,97.1166992188,0.00999400019646,1.0,0.0,0.0,0.0,1.0,0.0,0.0,0.0,1.0,20.3048782349,-4.81707286835,28.9024410248,1.0,0.0,0.0,0.0,1.0,0.0,0.0,0.0,1.0,-2.86346518555,-0.708683691406,-11.1426145264,1.0,0.0,0.0,0.0,1.0,0.0,0.0,0.0,1.0
1463502870322110976,667,1463502870318924109,,2.81930160522,-10.9754962921,97.4048461914,0.0100060002878,1.0,0.0,0.0,0.0,1.0,0.0,0.0,0.0,1.0,19.817073822,-1.8292683363,27.7439041138,1.0,0.0,0.0,0.0,1.0,0.0,0.0,0.0,1.0,-2.82036955566,-0.957680664062,-11.1809217529,1.0,0.0,0.0,0.0,1.0,0.0,0.0,0.0,1.0
1463502870331385069,668,1463502870328926794,,2.93826985359,-11.0070953369,97.6604995728,0.0100010000169,1.0,0.0,0.0,0.0,1.0,0.0,0.0,0.0,1.0,17.6219520569,1.03658533096,24.6341457367,1.0,0.0,0.0,0.0,1.0,0.0,0.0,0.0,1.0,-2.40377861293,-1.23061965332,-11.5208983887,1.0,0.0,0.0,0.0,1.0,0.0,0.0,0.0,1.0
1463502870342027753,669,1463502870338959895,,3.03569149971,-11.0020122528,97.9095001221,0.00999599974602,1.0,0.0,0.0,0.0,1.0,0.0,0.0,0.0,1.0,15.9146347046,3.04878044128,23.7804889679,1.0,0.0,0.0,0.0,1.0,0.0,0.0,0.0,1.0,-2.05422502441,-1.13006318359,-11.5065331787,1.0,0.0,0.0,0.0,1.0,0.0,0.0,0.0,1.0
1463502870352405228,670,1463502870349015966,,3.11394190788,-10.9583387375,98.150100708,0.0100029995665,1.0,0.0,0.0,0.0,1.0,0.0,0.0,0.0,1.0,14.3292694092,3.65853667259,22.8048782349,1.0,0.0,0.0,0.0,1.0,0.0,0.0,0.0,1.0,-1.33596452637,-1.00556469727,-11.1569797363,1.0,0.0,0.0,0.0,1.0,0.0,0.0,0.0,1.0
1463502870361713957,671,1463502870358954015,,3.149913311,-10.9169225693,98.3914108276,0.0099950004369,1.0,0.0,0.0,0.0,1.0,0.0,0.0,0.0,1.0,12.3780488968,2.80487799644,22.5,1.0,0.0,0.0,0.0,1.0,0.0,0.0,0.0,1.0,-1.15879360352,-0.541089611728,-10.793061084,1.0,0.0,0.0,0.0,1.0,0.0,0.0,0.0,1.0
1463502870371838829,672,1463502870368941492,,3.15642619133,-10.8799686432,98.6339111328,0.00999899953604,1.0,0.0,0.0,0.0,1.0,0.0,0.0,0.0,1.0,8.5365858078,1.34146344662,22.8658542633,1.0,0.0,0.0,0.0,1.0,0.0,0.0,0.0,1.0,-0.9193734375,-0.699106884766,-10.4387192383,1.0,0.0,0.0,0.0,1.0,0.0,0.0,0.0,1.0
1463502870381644223,673,1463502870378934489,,3.1331474781,-10.8637533188,98.8944244385,0.0100090000778,1.0,0.0,0.0,0.0,1.0,0.0,0.0,0.0,1.0,7.74390268326,-0.0609756112099,24.3292694092,1.0,0.0,0.0,0.0,1.0,0.0,0.0,0.0,1.0,-0.995987890625,-0.339976635742,-10.1705686523,1.0,0.0,0.0,0.0,1.0,0.0,0.0,0.0,1.0
1463502870395683044,674,1463502870388972956,,3.09323358536,-10.8694429398,99.1498413086,0.0100010000169,1.0,0.0,0.0,0.0,1.0,0.0,0.0,0.0,1.0,5.91463422775,-3.04878044128,24.0243911743,1.0,0.0,0.0,0.0,1.0,0.0,0.0,0.0,1.0,-0.857124194336,-0.349553442383,-10.1992990723,1.0,0.0,0.0,0.0,1.0,0.0,0.0,0.0,1.0
1463502870401596364,675,1463502870398918922,,3.04065179825,-10.8966674805,99.4062652588,0.00999299995601,1.0,0.0,0.0,0.0,1.0,0.0,0.0,0.0,1.0,5.60975599289,-5.42682933807,24.0853652954,1.0,0.0,0.0,0.0,1.0,0.0,0.0,0.0,1.0,-0.785298144531,-0.162805712891,-9.7827079834,1.0,0.0,0.0,0.0,1.0,0.0,0.0,0.0,1.0
1463502870411624101,676,1463502870408934211,,2.98870491982,-10.9462738037,99.6569061279,0.00999899953604,1.0,0.0,0.0,0.0,1.0,0.0,0.0,0.0,1.0,5.67073154449,-7.74390268326,23.5975627899,1.0,0.0,0.0,0.0,1.0,0.0,0.0,0.0,1.0,-0.790086547852,-0.138863696289,-9.84016882324,1.0,0.0,0.0,0.0,1.0,0.0,0.0,0.0,1.0
1463502870422020691,677,1463502870418939136,,2.93419027328,-11.0218992233,99.8946762085,0.0100029995665,1.0,0.0,0.0,0.0,1.0,0.0,0.0,0.0,1.0,5.79268312454,-10.1219511032,22.3170719147,1.0,0.0,0.0,0.0,1.0,0.0,0.0,0.0,1.0,-0.861912597656,-0.0239420166016,-9.93593688965,1.0,0.0,0.0,0.0,1.0,0.0,0.0,0.0,1.0
1463502870431508065,678,1463502870428970883,,2.90090870857,-11.13331604,100.13885498,0.0100020002574,1.0,0.0,0.0,0.0,1.0,0.0,0.0,0.0,1.0,5.60975599289,-11.4024391174,23.475610733,1.0,0.0,0.0,0.0,1.0,0.0,0.0,0.0,1.0,-1.22104284668,-0.435744702148,-9.47146118306,1.0,0.0,0.0,0.0,1.0,0.0,0.0,0.0,1.0
1463502870441905801,679,1463502870438925339,,2.82954692841,-11.2509393692,100.385093689,0.00999899953604,1.0,0.0,0.0,0.0,1.0,0.0,0.0,0.0,1.0,5.67073154449,-11.7073173523,22.9268302917,1.0,0.0,0.0,0.0,1.0,0.0,0.0,0.0,1.0,-1.37906015625,0.234631762695,-10.0652237793,1.0,0.0,0.0,0.0,1.0,0.0,0.0,0.0,1.0
1463502870451726611,680,1463502870448954691,,2.80127596855,-11.3679924011,100.611198425,0.00999899953604,1.0,0.0,0.0,0.0,1.0,0.0,0.0,0.0,1.0,8.71951198578,-12.7439022064,21.158536911,1.0,0.0,0.0,0.0,1.0,0.0,0.0,0.0,1.0,-1.1875240965,0.076614453125,-9.77313117676,1.0,0.0,0.0,0.0,1.0,0.0,0.0,0.0,1.0
1463502870461733932,681,1463502870458969250,,2.83676767349,-11.50248909,100.803863525,0.0100020002574,1.0,0.0,0.0,0.0,1.0,0.0,0.0,0.0,1.0,12.1341466904,-12.9878053665,18.3536586761,1.0,0.0,0.0,0.0,1.0,0.0,0.0,0.0,1.0,-1.56580788574,-0.349553442383,-10.1992990723,1.0,0.0,0.0,0.0,1.0,0.0,0.0,0.0,1.0
1463502870472079741,682,1463502870468909696,,2.91932678223,-11.6499586105,100.950553894,0.00999299995601,1.0,0.0,0.0,0.0,1.0,0.0,0.0,0.0,1.0,15.3658533096,-14.5731706619,14.0853662491,1.0,0.0,0.0,0.0,1.0,0.0,0.0,0.0,1.0,-1.52750065918,-0.45489831543,-9.8784760498,1.0,0.0,0.0,0.0,1.0,0.0,0.0,0.0,1.0
1463502870481622687,683,1463502870478911444,,3.035800457,-11.7738780975,101.048362732,0.0100060002878,1.0,0.0,0.0,0.0,1.0,0.0,0.0,0.0,1.0,16.5853652954,-13.658536911,9.51219558716,1.0,0.0,0.0,0.0,1.0,0.0,0.0,0.0,1.0,-1.33117612305,-0.684741674805,-9.86889924316,1.0,0.0,0.0,0.0,1.0,0.0,0.0,0.0,1.0
1463502870491913444,684,1463502870488935118,,3.14803600311,-11.9027204514,101.124481201,0.0100039998069,1.0,0.0,0.0,0.0,1.0,0.0,0.0,0.0,1.0,17.0731716156,-14.5121955872,7.19512224197,1.0,0.0,0.0,0.0,1.0,0.0,0.0,0.0,1.0,-1.34554133301,-0.478840332031,-10.1562034424,1.0,0.0,0.0,0.0,1.0,0.0,0.0,0.0,1.0
1463502870501773578,685,1463502870498930720,,3.26133704185,-12.0342702866,101.17842865,0.0099950004369,1.0,0.0,0.0,0.0,1.0,0.0,0.0,0.0,1.0,16.7073173523,-14.2682924271,5.06097555161,1.0,0.0,0.0,0.0,1.0,0.0,0.0,0.0,1.0,-1.43173259277,-0.488417138672,-9.79707319336,1.0,0.0,0.0,0.0,1.0,0.0,0.0,0.0,1.0
1463502870511808763,686,1463502870508975332,,3.37499165535,-12.1552944183,101.218528748,0.0100010000169,1.0,0.0,0.0,0.0,1.0,0.0,0.0,0.0,1.0,15.548781395,-13.7804880142,3.90243911743,1.0,0.0,0.0,0.0,1.0,0.0,0.0,0.0,1.0,-1.37427175293,-0.675164868164,-9.86411083984,1.0,0.0,0.0,0.0,1.0,0.0,0.0,0.0,1.0
1463502870521930874,687,1463502870518941819,,3.47779846191,-12.2833747864,101.240188599,0.00999899953604,1.0,0.0,0.0,0.0,1.0,0.0,0.0,0.0,1.0,14.2073173523,-14.2073173523,2.13414645195,1.0,0.0,0.0,0.0,1.0,0.0,0.0,0.0,1.0,-1.47961662598,-0.679953271484,-9.96945571289,1.0,0.0,0.0,0.0,1.0,0.0,0.0,0.0,1.0
1463502870531555175,688,1463502870528925910,,3.5487112999,-12.3902664185,101.253288269,0.0100029995665,1.0,0.0,0.0,0.0,1.0,0.0,0.0,0.0,1.0,12.3780488968,-14.0853662491,0.975609779358,1.0,0.0,0.0,0.0,1.0,0.0,0.0,0.0,1.0,-1.11090957031,-0.402225878906,-9.61990285503,1.0,0.0,0.0,0.0,1.0,0.0,0.0,0.0,1.0
1463502870554337049,689,1463502870539047397,,3.6209692955,-12.5096750259,101.253410339,0.0100090000778,1.0,0.0,0.0,0.0,1.0,0.0,0.0,0.0,1.0,11.0365858078,-14.1463422775,-0.0,1.0,0.0,0.0,0.0,1.0,0.0,0.0,0.0,1.0,-1.36469494629,-0.632069238281,-9.74440075684,1.0,0.0,0.0,0.0,1.0,0.0,0.0,0.0,1.0
1463502870554549861,690,1463502870549041228,,3.66659998894,-12.634098053,101.246986389,0.0100159998983,1.0,0.0,0.0,0.0,1.0,0.0,0.0,0.0,1.0,9.63414573669,-14.4512205124,-0.914634168148,1.0,0.0,0.0,0.0,1.0,0.0,0.0,0.0,1.0,-1.38863696289,-0.383072265625,-9.48582756206,1.0,0.0,0.0,0.0,1.0,0.0,0.0,0.0,1.0
1463502870562435363,691,1463502870558938600,,3.69931864738,-12.7617492676,101.22505188,0.00999400019646,1.0,0.0,0.0,0.0,1.0,0.0,0.0,0.0,1.0,7.98780536652,-14.0243902206,-2.43902444839,1.0,0.0,0.0,0.0,1.0,0.0,0.0,0.0,1.0,-1.59453830566,-0.402225878906,-9.69172832031,1.0,0.0,0.0,0.0,1.0,0.0,0.0,0.0,1.0
1463502870572291955,692,1463502870569013837,,3.72093915939,-12.8796806335,101.184997559,0.00997199956328,1.0,0.0,0.0,0.0,1.0,0.0,0.0,0.0,1.0,7.37804937363,-13.4756097794,-4.45121955872,1.0,0.0,0.0,0.0,1.0,0.0,0.0,0.0,1.0,-1.52271225586,-0.239420166016,-9.41400034321,1.0,0.0,0.0,0.0,1.0,0.0,0.0,0.0,1.0
1463502870580925060,693,1463502870578952720,,3.73918294907,-12.9960784912,101.131607056,0.0100180003792,1.0,0.0,0.0,0.0,1.0,0.0,0.0,0.0,1.0,6.09756088257,-13.9634151459,-5.54878091812,1.0,0.0,0.0,0.0,1.0,0.0,0.0,0.0,1.0,-1.44609780273,-0.354341845703,-9.46667277974,1.0,0.0,0.0,0.0,1.0,0.0,0.0,0.0,1.0
1463502870595753098,694,1463502870588945770,,3.73511600494,-13.1024570465,101.082092285,0.00999699998647,1.0,0.0,0.0,0.0,1.0,0.0,0.0,0.0,1.0,4.2682929039,-13.2317075729,-5.30487823486,1.0,0.0,0.0,0.0,1.0,0.0,0.0,0.0,1.0,-1.35511813965,-0.287304199219,-9.02614025879,1.0,0.0,0.0,0.0,1.0,0.0,0.0,0.0,1.0
1463502870602200583,695,1463502870598930330,,3.6972630024,-13.2038230896,101.02973938,0.00999899953604,1.0,0.0,0.0,0.0,1.0,0.0,0.0,0.0,1.0,2.07317066193,-13.658536911,-5.85365867615,1.0,0.0,0.0,0.0,1.0,0.0,0.0,0.0,1.0,-1.26892687988,-0.0814028564453,-9.37090471333,1.0,0.0,0.0,0.0,1.0,0.0,0.0,0.0,1.0
1463502870610975719,696,1463502870608977650,,3.66214227676,-13.3138647079,100.971817017,0.009990000166,1.0,0.0,0.0,0.0,1.0,0.0,0.0,0.0,1.0,0.487804889679,-14.1463422775,-5.97560977936,1.0,0.0,0.0,0.0,1.0,0.0,0.0,0.0,1.0,-1.33596452637,-0.363918652344,-9.22246479492,1.0,0.0,0.0,0.0,1.0,0.0,0.0,0.0,1.0
1463502870621406111,697,1463502870618931846,,3.61099076271,-13.4210186005,100.906425476,0.0100039998069,1.0,0.0,0.0,0.0,1.0,0.0,0.0,0.0,1.0,-1.2195122242,-13.4146347046,-6.7682929039,1.0,0.0,0.0,0.0,1.0,0.0,0.0,0.0,1.0,-1.47003981934,-0.354341845703,-9.46667277974,1.0,0.0,0.0,0.0,1.0,0.0,0.0,0.0,1.0
1463502870632114888,698,1463502870628993437,,3.55446052551,-13.5373697281,100.833625793,0.0100130001083,1.0,0.0,0.0,0.0,1.0,0.0,0.0,0.0,1.0,-3.23170733452,-14.2073173523,-7.13414621353,1.0,0.0,0.0,0.0,1.0,0.0,0.0,0.0,1.0,-1.4844050293,-0.560243188477,-9.27992563477,1.0,0.0,0.0,0.0,1.0,0.0,0.0,0.0,1.0
1463502870641247315,699,1463502870638959299,,3.49573612213,-13.629491806,100.74684906,0.00999199971557,1.0,0.0,0.0,0.0,1.0,0.0,0.0,0.0,1.0,-4.2682929039,-13.1097564697,-8.47560977936,1.0,0.0,0.0,0.0,1.0,0.0,0.0,0.0,1.0,-1.29286889648,-0.627280834961,-9.24640681152,1.0,0.0,0.0,0.0,1.0,0.0,0.0,0.0,1.0
1463502870651482812,700,1463502870648926932,,3.41935515404,-13.7195386887,100.642959595,0.00999199971557,1.0,0.0,0.0,0.0,1.0,0.0,0.0,0.0,1.0,-5.85365867615,-13.9634151459,-10.2439022064,1.0,0.0,0.0,0.0,1.0,0.0,0.0,0.0,1.0,-1.13963999023,-0.512359155273,-9.18894597168,1.0,0.0,0.0,0.0,1.0,0.0,0.0,0.0,1.0
1463502870661438726,701,1463502870659015606,,3.35550332069,-13.8120365143,100.529640198,0.0100039998069,1.0,0.0,0.0,0.0,1.0,0.0,0.0,0.0,1.0,-5.54878091812,-14.1463422775,-10.9756097794,1.0,0.0,0.0,0.0,1.0,0.0,0.0,0.0,1.0,-1.14442839355,-0.60812722168,-8.99262143555,1.0,0.0,0.0,0.0,1.0,0.0,0.0,0.0,1.0
1463502870673561614,702,1463502870668968187,,3.29232811928,-13.912653923,100.407875061,0.00999800022691,1.0,0.0,0.0,0.0,1.0,0.0,0.0,0.0,1.0,-5.85365867615,-15.3048791885,-11.7073173523,1.0,0.0,0.0,0.0,1.0,0.0,0.0,0.0,1.0,-1.13485158691,-0.636857641602,-9.20331118164,1.0,0.0,0.0,0.0,1.0,0.0,0.0,0.0,1.0
1463502870683962632,703,1463502870678917331,,3.26911115646,-14.0193347931,100.257736206,0.0100020002574,1.0,0.0,0.0,0.0,1.0,0.0,0.0,0.0,1.0,-5.30487823486,-15.1829271317,-13.7804880142,1.0,0.0,0.0,0.0,1.0,0.0,0.0,0.0,1.0,-1.28808049316,-1.09175595703,-9.17458076172,1.0,0.0,0.0,0.0,1.0,0.0,0.0,0.0,1.0
1463502870693402818,704,1463502870689011838,,3.20950746536,-14.1223268509,100.09778595,0.00999999977648,1.0,0.0,0.0,0.0,1.0,0.0,0.0,0.0,1.0,-7.92682981491,-15.0609760284,-15.0609760284,1.0,0.0,0.0,0.0,1.0,0.0,0.0,0.0,1.0,-1.36948334961,-0.933738647461,-9.85932243652,1.0,0.0,0.0,0.0,1.0,0.0,0.0,0.0,1.0
1463502870703229253,705,1463502870699029940,,3.0876019001,-14.2483482361,99.9617080688,0.0100959995762,1.0,0.0,0.0,0.0,1.0,0.0,0.0,0.0,1.0,-10.1829271317,-16.0365848541,-13.4146347046,1.0,0.0,0.0,0.0,1.0,0.0,0.0,0.0,1.0,-1.52750065918,-0.316034619141,-9.53849999858,1.0,0.0,0.0,0.0,1.0,0.0,0.0,0.0,1.0
1463502870712716731,706,1463502870709006323,,2.99658703804,-14.3480911255,99.8277740479,0.00990999955684,1.0,0.0,0.0,0.0,1.0,0.0,0.0,0.0,1.0,-13.7195129395,-14.0243902206,-11.9512195587,1.0,0.0,0.0,0.0,1.0,0.0,0.0,0.0,1.0,-1.44609780273,-1.41257897949,-9.41400034321,1.0,0.0,0.0,0.0,1.0,0.0,0.0,0.0,1.0
1463502870722343375,707,1463502870718947967,,2.82470536232,-14.4675283432,99.7351989746,0.00999899953604,1.0,0.0,0.0,0.0,1.0,0.0,0.0,0.0,1.0,-16.4634151459,-14.8780498505,-8.90243911743,1.0,0.0,0.0,0.0,1.0,0.0,0.0,0.0,1.0,-1.68551796875,-0.684741674805,-9.87368764648,1.0,0.0,0.0,0.0,1.0,0.0,0.0,0.0,1.0
1463502870733623557,708,1463502870728946485,,2.63473773003,-14.5616617203,99.6503829956,0.00999899953604,1.0,0.0,0.0,0.0,1.0,0.0,0.0,0.0,1.0,-16.0975608826,-12.3780488968,-8.84146404266,1.0,0.0,0.0,0.0,1.0,0.0,0.0,0.0,1.0,-1.68072956543,-0.287304199219,-9.81143840332,1.0,0.0,0.0,0.0,1.0,0.0,0.0,0.0,1.0
1463502870743214108,709,1463502870738922920,,2.48665809631,-14.6749267578,99.5388641357,0.00999400019646,1.0,0.0,0.0,0.0,1.0,0.0,0.0,0.0,1.0,-13.5975618362,-13.4146347046,-11.1585359573,1.0,0.0,0.0,0.0,1.0,0.0,0.0,0.0,1.0,-1.97761057129,-0.45968671875,-10.3621047852,1.0,0.0,0.0,0.0,1.0,0.0,0.0,0.0,1.0
1463502870754121947,710,1463502870748918626,,2.39105582237,-14.7635793686,99.3963165283,0.00999800022691,1.0,0.0,0.0,0.0,1.0,0.0,0.0,0.0,1.0,-10.3048782349,-11.341463089,-13.9634151459,1.0,0.0,0.0,0.0,1.0,0.0,0.0,0.0,1.0,-1.8866309082,-0.636857641602,-10.060435376,1.0,0.0,0.0,0.0,1.0,0.0,0.0,0.0,1.0
1463502870762675312,711,1463502870758941884,,2.33438158035,-14.8450603485,99.2153320312,0.0100060002878,1.0,0.0,0.0,0.0,1.0,0.0,0.0,0.0,1.0,-8.59756088257,-9.20731735229,-17.4390239716,1.0,0.0,0.0,0.0,1.0,0.0,0.0,0.0,1.0,-2.32716386754,-0.900219824219,-10.6972930176,1.0,0.0,0.0,0.0,1.0,0.0,0.0,0.0,1.0
1463502870773488412,712,1463502870768912798,,2.27940154076,-14.9239034653,99.0325622559,0.00998799968511,1.0,0.0,0.0,0.0,1.0,0.0,0.0,0.0,1.0,-7.74390268326,-8.84146404266,-17.8658542633,1.0,0.0,0.0,0.0,1.0,0.0,0.0,0.0,1.0,-2.38941340297,-0.742202514648,-10.8074262939,1.0,0.0,0.0,0.0,1.0,0.0,0.0,0.0,1.0
1463502870784433855,713,1463502870778921889,,2.21087098122,-14.9806556702,98.8553390503,0.010006999597,1.0,0.0,0.0,0.0,1.0,0.0,0.0,0.0,1.0,-8.47560977936,-4.08536577225,-17.6219520569,1.0,0.0,0.0,0.0,1.0,0.0,0.0,0.0,1.0,-2.97838686523,-0.651222851562,-11.0612116699,1.0,0.0,0.0,0.0,1.0,0.0,0.0,0.0,1.0
1463502870793832948,714,1463502870788944782,,2.15228891373,-15.0325469971,98.6683425903,0.0100010000169,1.0,0.0,0.0,0.0,1.0,0.0,0.0,0.0,1.0,-9.5731716156,-1.8902438879,-18.1707305908,1.0,0.0,0.0,0.0,1.0,0.0,0.0,0.0,1.0,-3.50989963379,-1.07260241682,-11.5639940186,1.0,0.0,0.0,0.0,1.0,0.0,0.0,0.0,1.0
1463502870804185736,715,1463502870799025748,,2.05582499504,-15.0425920486,98.4898147583,0.0100020002574,1.0,0.0,0.0,0.0,1.0,0.0,0.0,0.0,1.0,-11.6463422775,2.5,-17.9268302917,1.0,0.0,0.0,0.0,1.0,0.0,0.0,0.0,1.0,-3.58651408691,-0.732625708008,-11.6693388916,1.0,0.0,0.0,0.0,1.0,0.0,0.0,0.0,1.0
1463502870811317490,716,1463502870808920986,,1.96529603004,-14.9951190948,98.2926864624,0.0100020002574,1.0,0.0,0.0,0.0,1.0,0.0,0.0,0.0,1.0,-12.0121955872,8.90243911743,-19.817073822,1.0,0.0,0.0,0.0,1.0,0.0,0.0,0.0,1.0,-3.90254870605,-0.857124194336,-12.1625444336,1.0,0.0,0.0,0.0,1.0,0.0,0.0,0.0,1.0
1463502870822626787,717,1463502870818927994,,1.89317834377,-14.9023189545,98.0568695068,0.00999800022691,1.0,0.0,0.0,0.0,1.0,0.0,0.0,0.0,1.0,-10.8536586761,13.1707324982,-23.7804889679,1.0,0.0,0.0,0.0,1.0,0.0,0.0,0.0,1.0,-3.89297189941,-0.775721337891,-12.2966197266,1.0,0.0,0.0,0.0,1.0,0.0,0.0,0.0,1.0
1463502870833915875,718,1463502870828916199,,1.87253904343,-14.7300024033,97.7600097656,0.0100020002574,1.0,0.0,0.0,0.0,1.0,0.0,0.0,0.0,1.0,-8.96341514587,17.1951217651,-29.3292694092,1.0,0.0,0.0,0.0,1.0,0.0,0.0,0.0,1.0,-2.92092602539,-1.13485158691,-12.0093155273,1.0,0.0,0.0,0.0,1.0,0.0,0.0,0.0,1.0
1463502870843963143,719,1463502870838952009,,1.86866557598,-14.5187177658,97.4351119995,0.0099950004369,1.0,0.0,0.0,0.0,1.0,0.0,0.0,0.0,1.0,-8.04878044128,17.8048782349,-32.0731697083,1.0,0.0,0.0,0.0,1.0,0.0,0.0,0.0,1.0,-2.14041643031,-1.13963999023,-11.8704518311,1.0,0.0,0.0,0.0,1.0,0.0,0.0,0.0,1.0
1463502870854287651,720,1463502870848919330,,1.80188810825,-14.288482666,97.1104278564,0.0100039998069,1.0,0.0,0.0,0.0,1.0,0.0,0.0,0.0,1.0,-9.5731716156,16.7073173523,-33.2317085266,1.0,0.0,0.0,0.0,1.0,0.0,0.0,0.0,1.0,-1.36469494629,-0.110133276367,-11.1282493164,1.0,0.0,0.0,0.0,1.0,0.0,0.0,0.0,1.0
1463502870863897420,721,1463502870858951963,,1.79307973385,-14.0931015015,96.7753677368,0.00999599974602,1.0,0.0,0.0,0.0,1.0,0.0,0.0,0.0,1.0,-10.1219511032,14.8170728683,-32.6219520569,1.0,0.0,0.0,0.0,1.0,0.0,0.0,0.0,1.0,-1.55144267578,-1.30723410645,-10.5871597412,1.0,0.0,0.0,0.0,1.0,0.0,0.0,0.0,1.0
1463502870874687082,722,1463502870868916939,,1.71814656258,-13.9050531387,96.4617156982,0.0100010000169,1.0,0.0,0.0,0.0,1.0,0.0,0.0,0.0,1.0,-14.5731706619,11.5243911743,-30.8536605835,1.0,0.0,0.0,0.0,1.0,0.0,0.0,0.0,1.0,-1.01035310059,-0.995987890625,-10.5680061279,1.0,0.0,0.0,0.0,1.0,0.0,0.0,0.0,1.0
1463502870883098469,723,1463502870878929728,,1.61479890347,-13.7513093948,96.1710662842,0.0100029995665,1.0,0.0,0.0,0.0,1.0,0.0,0.0,0.0,1.0,-17.9268302917,9.63414573669,-28.2926845551,1.0,0.0,0.0,0.0,1.0,0.0,0.0,0.0,1.0,-1.17794714373,-1.14442839355,-9.99818613281,1.0,0.0,0.0,0.0,1.0,0.0,0.0,0.0,1.0
1463502870890833242,724,1463502870888921841,,1.46133375168,-13.6348543167,95.907409668,0.00999899953604,1.0,0.0,0.0,0.0,1.0,0.0,0.0,0.0,1.0,-20.6097564697,7.31707334518,-26.0365848541,1.0,0.0,0.0,0.0,1.0,0.0,0.0,0.0,1.0,-1.34075292969,-0.799663354492,-9.68693991699,1.0,0.0,0.0,0.0,1.0,0.0,0.0,0.0,1.0
1463502870901331030,725,1463502870899028484,,1.30758178234,-13.5247039795,95.6568374634,0.00999999977648,1.0,0.0,0.0,0.0,1.0,0.0,0.0,0.0,1.0,-20.1829280853,5.97560977936,-24.7560977936,1.0,0.0,0.0,0.0,1.0,0.0,0.0,0.0,1.0,-1.13006318359,-0.723048901367,-9.27992563477,1.0,0.0,0.0,0.0,1.0,0.0,0.0,0.0,1.0
1463502870910747363,726,1463502870908919242,,1.15013110638,-13.4551591873,95.4129180908,0.0100010000169,1.0,0.0,0.0,0.0,1.0,0.0,0.0,0.0,1.0,-19.817073822,4.20731735229,-24.2073173523,1.0,0.0,0.0,0.0,1.0,0.0,0.0,0.0,1.0,-1.44130939941,-0.588973571866,-9.00219824219,1.0,0.0,0.0,0.0,1.0,0.0,0.0,0.0,1.0
1463502870921225671,727,1463502870918967916,,0.998921811581,-13.4011039734,95.1764450073,0.0100060002878,1.0,0.0,0.0,0.0,1.0,0.0,0.0,0.0,1.0,-17.6219520569,2.98780488968,-23.7804889679,1.0,0.0,0.0,0.0,1.0,0.0,0.0,0.0,1.0,-1.47961662598,-0.339976635742,-9.04529387207,1.0,0.0,0.0,0.0,1.0,0.0,0.0,0.0,1.0
1463502870931573564,728,1463502870928930028,,0.854368388653,-13.371972084,94.9490890503,0.00999699998647,1.0,0.0,0.0,0.0,1.0,0.0,0.0,0.0,1.0,-14.8170728683,1.2804877758,-23.3536586761,1.0,0.0,0.0,0.0,1.0,0.0,0.0,0.0,1.0,-1.54665427246,0.00478840332031,-8.81066210937,1.0,0.0,0.0,0.0,1.0,0.0,0.0,0.0,1.0
1463502870940850990,729,1463502870938953755,,0.7687510252,-13.3467254639,94.7045593262,0.00999999977648,1.0,0.0,0.0,0.0,1.0,0.0,0.0,0.0,1.0,-10.9146347046,1.58536589146,-24.6341457367,1.0,0.0,0.0,0.0,1.0,0.0,0.0,0.0,1.0,-1.71424838867,-0.244208569336,-9.15542714844,1.0,0.0,0.0,0.0,1.0,0.0,0.0,0.0,1.0
1463502870950772582,730,1463502870948928888,,0.723411440849,-13.340678215,94.453163147,0.0100010000169,1.0,0.0,0.0,0.0,1.0,0.0,0.0,0.0,1.0,-6.70731735229,0.548780500889,-25.3658542633,1.0,0.0,0.0,0.0,1.0,0.0,0.0,0.0,1.0,-1.92493813477,-0.181959326172,-9.50019277202,1.0,0.0,0.0,0.0,1.0,0.0,0.0,0.0,1.0
1463502870961268651,731,1463502870958947771,,0.709460318089,-13.324344635,94.194229126,0.00999100040644,1.0,0.0,0.0,0.0,1.0,0.0,0.0,0.0,1.0,-3.17073178291,1.8902438879,-26.2804889679,1.0,0.0,0.0,0.0,1.0,0.0,0.0,0.0,1.0,-1.92972653809,-0.0718260498047,-9.27034882812,1.0,0.0,0.0,0.0,1.0,0.0,0.0,0.0,1.0
1463502870971456700,732,1463502870968929883,,0.719640254974,-13.3109645844,93.9295501709,0.0099950004369,1.0,0.0,0.0,0.0,1.0,0.0,0.0,0.0,1.0,-0.609756112099,1.70731711388,-26.8902454376,1.0,0.0,0.0,0.0,1.0,0.0,0.0,0.0,1.0,-1.97761057129,-0.0239420166016,-9.41400034321,1.0,0.0,0.0,0.0,1.0,0.0,0.0,0.0,1.0
1463502870981163188,733,1463502870978926318,,0.774893283844,-13.2850208282,93.6576080322,0.00999999977648,1.0,0.0,0.0,0.0,1.0,0.0,0.0,0.0,1.0,2.80487799644,2.92682933807,-27.3780498505,1.0,0.0,0.0,0.0,1.0,0.0,0.0,0.0,1.0,-1.99197578125,-0.191536132812,-9.50498117534,1.0,0.0,0.0,0.0,1.0,0.0,0.0,0.0,1.0
1463502870991973267,734,1463502870988907336,,0.881466150284,-13.260764122,93.3723144531,0.0100119998679,1.0,0.0,0.0,0.0,1.0,0.0,0.0,0.0,1.0,5.06097555161,4.08536577225,-28.0487804413,1.0,0.0,0.0,0.0,1.0,0.0,0.0,0.0,1.0,-2.14041643031,-0.632069238281,-9.11711992188,1.0,0.0,0.0,0.0,1.0,0.0,0.0,0.0,1.0
1463502871003397198,735,1463502871000111946,,0.969000995159,-13.2141933441,93.10597229,0.00999299995601,1.0,0.0,0.0,0.0,1.0,0.0,0.0,0.0,1.0,3.84146332741,4.93902444839,-26.3414649963,1.0,0.0,0.0,0.0,1.0,0.0,0.0,0.0,1.0,-2.01112939453,-0.641646044922,-9.62469125835,1.0,0.0,0.0,0.0,1.0,0.0,0.0,0.0,1.0
1463502871012377698,736,1463502871009618955,,1.04504084587,-13.1806488037,92.8558273315,0.00999899953604,1.0,0.0,0.0,0.0,1.0,0.0,0.0,0.0,1.0,3.23170733452,6.0365858078,-24.817073822,1.0,0.0,0.0,0.0,1.0,0.0,0.0,0.0,1.0,-2.37504819301,-0.61770402832,-9.38526992329,1.0,0.0,0.0,0.0,1.0,0.0,0.0,0.0,1.0
1463502871021927832,737,1463502871018953933,,1.1273266077,-13.1294698715,92.6141967773,0.00999699998647,1.0,0.0,0.0,0.0,1.0,0.0,0.0,0.0,1.0,2.37804889679,8.59756088257,-23.658536911,1.0,0.0,0.0,0.0,1.0,0.0,0.0,0.0,1.0,-2.71502468262,-1.00556469727,-10.1370498291,1.0,0.0,0.0,0.0,1.0,0.0,0.0,0.0,1.0
1463502871031982600,738,1463502871028934535,,1.21618580818,-13.0571928024,92.3674163818,0.0100029995665,1.0,0.0,0.0,0.0,1.0,0.0,0.0,0.0,1.0,1.09756100178,10.9146347046,-23.7804889679,1.0,0.0,0.0,0.0,1.0,0.0,0.0,0.0,1.0,-2.73896669922,-1.36948334961,-10.0748005859,1.0,0.0,0.0,0.0,1.0,0.0,0.0,0.0,1.0
1463502871041662630,739,1463502871038924772,,1.26234900951,-12.9690208435,92.1275939941,0.00999999977648,1.0,0.0,0.0,0.0,1.0,0.0,0.0,0.0,1.0,-1.46341466904,12.8048782349,-23.5365848541,1.0,0.0,0.0,0.0,1.0,0.0,0.0,0.0,1.0,-2.92571442871,-1.14921679688,-10.5871597412,1.0,0.0,0.0,0.0,1.0,0.0,0.0,0.0,1.0
1463502871052400990,740,1463502871048944123,,1.27868032455,-12.8453845978,91.8900527954,0.0100090000778,1.0,0.0,0.0,0.0,1.0,0.0,0.0,0.0,1.0,-3.96341490746,15.6707315445,-23.475610733,1.0,0.0,0.0,0.0,1.0,0.0,0.0,0.0,1.0,-2.88740720215,-1.12048637695,-11.01811604,1.0,0.0,0.0,0.0,1.0,0.0,0.0,0.0,1.0
1463502871062227999,741,1463502871058916287,,1.24786102772,-12.7214450836,91.6780319214,0.00998600013554,1.0,0.0,0.0,0.0,1.0,0.0,0.0,0.0,1.0,-4.81707286835,16.4024391174,-21.8292694092,1.0,0.0,0.0,0.0,1.0,0.0,0.0,0.0,1.0,-2.97838686523,-0.445321508789,-10.9798088135,1.0,0.0,0.0,0.0,1.0,0.0,0.0,0.0,1.0
1463502871072685057,742,1463502871068930691,,1.19783103466,-12.5626306534,91.4576034546,0.0100029995665,1.0,0.0,0.0,0.0,1.0,0.0,0.0,0.0,1.0,-5.73170757294,18.841463089,-22.9268302917,1.0,0.0,0.0,0.0,1.0,0.0,0.0,0.0,1.0,-2.84909997559,-0.215478149414,-11.4155535156,1.0,0.0,0.0,0.0,1.0,0.0,0.0,0.0,1.0
1463502871083219304,743,1463502871079040043,,1.18079173565,-12.4078607559,91.2315139771,0.0100060002878,1.0,0.0,0.0,0.0,1.0,0.0,0.0,0.0,1.0,-5.67073154449,17.9878044128,-22.7439041138,1.0,0.0,0.0,0.0,1.0,0.0,0.0,0.0,1.0,-2.76290871582,-0.895431420898,-11.5927244385,1.0,0.0,0.0,0.0,1.0,0.0,0.0,0.0,1.0
1463502871092380272,744,1463502871088935384,,1.14619040489,-12.2256641388,91.0121307373,0.0100010000169,1.0,0.0,0.0,0.0,1.0,0.0,0.0,0.0,1.0,-7.31707334518,19.817073822,-22.1341457367,1.0,0.0,0.0,0.0,1.0,0.0,0.0,0.0,1.0,-2.4756045166,-0.890643017578,-11.3628810791,1.0,0.0,0.0,0.0,1.0,0.0,0.0,0.0,1.0
1463502871103753735,745,1463502871099368485,,1.10344839096,-12.0549459457,90.799911499,0.0100239999592,1.0,0.0,0.0,0.0,1.0,0.0,0.0,0.0,1.0,-8.59756088257,18.4146347046,-21.2195129395,1.0,0.0,0.0,0.0,1.0,0.0,0.0,0.0,1.0,-2.39420180629,-1.03429511719,-11.4011883057,1.0,0.0,0.0,0.0,1.0,0.0,0.0,0.0,1.0
1463502871113890847,746,1463502871108982889,,1.04710674286,-11.8783636093,90.5971374512,0.00997800007463,1.0,0.0,0.0,0.0,1.0,0.0,0.0,0.0,1.0,-9.81707286835,17.3780498505,-20.3658542633,1.0,0.0,0.0,0.0,1.0,0.0,0.0,0.0,1.0,-1.9105729248,-0.991199487305,-10.9175595703,1.0,0.0,0.0,0.0,1.0,0.0,0.0,0.0,1.0
1463502871123450824,747,1463502871118981095,,0.979852616787,-11.720574379,90.4111404419,0.00999699998647,1.0,0.0,0.0,0.0,1.0,0.0,0.0,0.0,1.0,-11.1585359573,16.341463089,-18.5365848541,1.0,0.0,0.0,0.0,1.0,0.0,0.0,0.0,1.0,-2.02070620117,-1.10612116699,-10.8122146973,1.0,0.0,0.0,0.0,1.0,0.0,0.0,0.0,1.0
1463502871133376062,748,1463502871128961749,,0.883142948151,-11.5917701721,90.2499694824,0.00999999977648,1.0,0.0,0.0,0.0,1.0,0.0,0.0,0.0,1.0,-13.1707324982,14.5731706619,-16.158536911,1.0,0.0,0.0,0.0,1.0,0.0,0.0,0.0,1.0,-2.15478164027,-0.995987890625,-10.5775829346,1.0,0.0,0.0,0.0,1.0,0.0,0.0,0.0,1.0
1463502871143156716,749,1463502871139028080,,0.76614177227,-11.4635343552,90.1154327393,0.0100119998679,1.0,0.0,0.0,0.0,1.0,0.0,0.0,0.0,1.0,-14.3292694092,14.7560987473,-13.5975618362,1.0,0.0,0.0,0.0,1.0,0.0,0.0,0.0,1.0,-2.08295529821,-0.885854614258,-10.1705686523,1.0,0.0,0.0,0.0,1.0,0.0,0.0,0.0,1.0
1463502871153555546,750,1463502871148970713,,0.628931522369,-11.3396596909,90.0047225952,0.009990000166,1.0,0.0,0.0,0.0,1.0,0.0,0.0,0.0,1.0,-14.3902444839,14.8170728683,-11.5853662491,1.0,0.0,0.0,0.0,1.0,0.0,0.0,0.0,1.0,-2.08295529821,-0.569819995117,-9.91678327637,1.0,0.0,0.0,0.0,1.0,0.0,0.0,0.0,1.0
1463502871162732608,751,1463502871158942200,,0.496438920498,-11.2224845886,89.9192810059,0.00999400019646,1.0,0.0,0.0,0.0,1.0,0.0,0.0,0.0,1.0,-13.7195129395,15.0000009537,-9.02439117432,1.0,0.0,0.0,0.0,1.0,0.0,0.0,0.0,1.0,-2.17872351074,-0.598550451572,-9.7827079834,1.0,0.0,0.0,0.0,1.0,0.0,0.0,0.0,1.0
1463502871173492895,752,1463502871169014885,,0.358877241611,-11.1049509048,89.8557128906,0.0100149996579,1.0,0.0,0.0,0.0,1.0,0.0,0.0,0.0,1.0,-12.9268293381,14.6341466904,-7.01219511032,1.0,0.0,0.0,0.0,1.0,0.0,0.0,0.0,1.0,-2.08774370153,-0.426167895508,-9.80665,1.0,0.0,0.0,0.0,1.0,0.0,0.0,0.0,1.0
1463502871183058446,753,1463502871178957414,,0.22473859787,-10.9784975052,89.8175582886,0.0099950004369,1.0,0.0,0.0,0.0,1.0,0.0,0.0,0.0,1.0,-11.2195119858,15.6097564697,-4.69512224197,1.0,0.0,0.0,0.0,1.0,0.0,0.0,0.0,1.0,-2.05901342773,-0.239420166016,-9.74440075684,1.0,0.0,0.0,0.0,1.0,0.0,0.0,0.0,1.0
1463502871192745558,754,1463502871188942599,,0.101875856519,-10.8618659973,89.8073425293,0.0099950004369,1.0,0.0,0.0,0.0,1.0,0.0,0.0,0.0,1.0,-8.5365858078,16.7073173523,-2.13414645195,1.0,0.0,0.0,0.0,1.0,0.0,0.0,0.0,1.0,-2.3415290775,-0.0335188255255,-9.46667277974,1.0,0.0,0.0,0.0,1.0,0.0,0.0,0.0,1.0
1463502871203133503,755,1463502871198963304,,-0.0096134962514,-10.7286758423,89.8060684204,0.0100060002878,1.0,0.0,0.0,0.0,1.0,0.0,0.0,0.0,1.0,-5.06097555161,17.9878044128,-1.64634156227,1.0,0.0,0.0,0.0,1.0,0.0,0.0,0.0,1.0,-2.25533796387,0.363918652344,-9.46188437642,1.0,0.0,0.0,0.0,1.0,0.0,0.0,0.0,1.0
1463502871212399627,756,1463502871209024739,,-0.0492868348956,-10.5796079636,89.8185424805,0.0100079998374,1.0,0.0,0.0,0.0,1.0,0.0,0.0,0.0,1.0,0.304878056049,19.2682914734,0.12195122242,1.0,0.0,0.0,0.0,1.0,0.0,0.0,0.0,1.0,-2.09732050817,0.0191536132812,-9.11233151855,1.0,0.0,0.0,0.0,1.0,0.0,0.0,0.0,1.0
1463502871223404654,757,1463502871219166643,,-0.043678432703,-10.417889595,89.8377532959,0.00998899992555,1.0,0.0,0.0,0.0,1.0,0.0,0.0,0.0,1.0,5.60975599289,20.5487823486,0.670731723309,1.0,0.0,0.0,0.0,1.0,0.0,0.0,0.0,1.0,-2.12126281703,0.138863696289,-9.33738589009,1.0,0.0,0.0,0.0,1.0,0.0,0.0,0.0,1.0
1463502871233710567,758,1463502871229020942,,0.00598517805338,-10.2499866486,89.8650894165,0.0100010000169,1.0,0.0,0.0,0.0,1.0,0.0,0.0,0.0,1.0,10.7926826477,20.7317085266,1.34146344662,1.0,0.0,0.0,0.0,1.0,0.0,0.0,0.0,1.0,-2.00155258789,0.244208569336,-9.24640681152,1.0,0.0,0.0,0.0,1.0,0.0,0.0,0.0,1.0
1463502871242579661,759,1463502871238969201,,0.127016738057,-10.1020832062,89.873626709,0.0100239999592,1.0,0.0,0.0,0.0,1.0,0.0,0.0,0.0,1.0,16.0365848541,21.5243911743,-0.243902444839,1.0,0.0,0.0,0.0,1.0,0.0,0.0,0.0,1.0,-2.45645090332,-0.0239420166016,-9.22725319824,1.0,0.0,0.0,0.0,1.0,0.0,0.0,0.0,1.0
1463502871253106667,760,1463502871249003240,,0.34038233757,-9.93659305573,89.8490829468,0.00997400004417,1.0,0.0,0.0,0.0,1.0,0.0,0.0,0.0,1.0,20.6097564697,22.0731716156,-2.80487799644,1.0,0.0,0.0,0.0,1.0,0.0,0.0,0.0,1.0,-2.25533796387,-0.77093293457,-9.41400034321,1.0,0.0,0.0,0.0,1.0,0.0,0.0,0.0,1.0
1463502871262188261,761,1463502871258985039,,0.539417803288,-9.76536846161,89.8228607178,0.0100029995665,1.0,0.0,0.0,0.0,1.0,0.0,0.0,0.0,1.0,20.1219520569,21.5853652954,-3.23170733452,1.0,0.0,0.0,0.0,1.0,0.0,0.0,0.0,1.0,-2.07816689489,-0.632069238281,-9.5432884019,1.0,0.0,0.0,0.0,1.0,0.0,0.0,0.0,1.0
1463502871272505841,762,1463502871268966683,,0.730061709881,-9.56807613373,89.8206176758,0.009990000166,1.0,0.0,0.0,0.0,1.0,0.0,0.0,0.0,1.0,19.7560977936,22.8658542633,-0.975609779358,1.0,0.0,0.0,0.0,1.0,0.0,0.0,0.0,1.0,-1.79565124512,-0.651222851562,-9.48103915874,1.0,0.0,0.0,0.0,1.0,0.0,0.0,0.0,1.0
1463502871282382797,763,1463502871278964993,,0.897657096386,-9.38789558411,89.837310791,0.0100050000474,1.0,0.0,0.0,0.0,1.0,0.0,0.0,0.0,1.0,16.5853652954,20.6707324982,1.03658533096,1.0,0.0,0.0,0.0,1.0,0.0,0.0,0.0,1.0,-1.75255561523,-0.9193734375,-9.89762966309,1.0,0.0,0.0,0.0,1.0,0.0,0.0,0.0,1.0
1463502871291841421,764,1463502871288979292,,1.00539171696,-9.20864963531,89.8906707764,0.0100039998069,1.0,0.0,0.0,0.0,1.0,0.0,0.0,0.0,1.0,14.5731706619,20.4878044128,4.02439022064,1.0,0.0,0.0,0.0,1.0,0.0,0.0,0.0,1.0,-1.61369191895,-0.320823022461,-9.43794235981,1.0,0.0,0.0,0.0,1.0,0.0,0.0,0.0,1.0
1463502871301815929,765,1463502871298969894,,1.12976121902,-9.03945636749,89.9375762939,0.00998899992555,1.0,0.0,0.0,0.0,1.0,0.0,0.0,0.0,1.0,15.1829271317,19.3902435303,3.53658556938,1.0,0.0,0.0,0.0,1.0,0.0,0.0,0.0,1.0,-1.68551796875,-0.541089611728,-10.1753570557,1.0,0.0,0.0,0.0,1.0,0.0,0.0,0.0,1.0
1463502871311554031,766,1463502871309011641,,1.25260984898,-8.91378498077,89.9719619751,0.0100119998679,1.0,0.0,0.0,0.0,1.0,0.0,0.0,0.0,1.0,13.841463089,15.0000009537,2.5,1.0,0.0,0.0,0.0,1.0,0.0,0.0,0.0,1.0,-1.64242233887,-0.732625708008,-10.0843773926,1.0,0.0,0.0,0.0,1.0,0.0,0.0,0.0,1.0
1463502871322240464,767,1463502871318968128,,1.37166297436,-8.77554702759,89.9944229126,0.009990000166,1.0,0.0,0.0,0.0,1.0,0.0,0.0,0.0,1.0,13.2926826477,15.7926826477,1.2804877758,1.0,0.0,0.0,0.0,1.0,0.0,0.0,0.0,1.0,-1.51792385254,-0.746990917969,-9.98382092285,1.0,0.0,0.0,0.0,1.0,0.0,0.0,0.0,1.0
1463502871331936588,768,1463502871329011855,,1.49441063404,-8.69564056396,90.0053863525,0.00999899953604,1.0,0.0,0.0,0.0,1.0,0.0,0.0,0.0,1.0,11.7073173523,11.8292684555,0.487804889679,1.0,0.0,0.0,0.0,1.0,0.0,0.0,0.0,1.0,-1.82917006836,-1.08696755371,-9.92157167969,1.0,0.0,0.0,0.0,1.0,0.0,0.0,0.0,1.0
1463502871341891981,769,1463502871339071154,,1.60137367249,-8.59714317322,90.0192108154,0.0100039998069,1.0,0.0,0.0,0.0,1.0,0.0,0.0,0.0,1.0,10.2439022064,11.7073173523,0.731707334518,1.0,0.0,0.0,0.0,1.0,0.0,0.0,0.0,1.0,-1.42694418945,-1.06781401349,-9.72524714355,1.0,0.0,0.0,0.0,1.0,0.0,0.0,0.0,1.0
