%time,field.header.seq,field.header.stamp,field.header.frame_id,field.orientation.x,field.orientation.y,field.orientation.z,field.orientation.w,field.orientation_covariance0,field.orientation_covariance1,field.orientation_covariance2,field.orientation_covariance3,field.orientation_covariance4,field.orientation_covariance5,field.orientation_covariance6,field.orientation_covariance7,field.orientation_covariance8,field.angular_velocity.x,field.angular_velocity.y,field.angular_velocity.z,field.angular_velocity_covariance0,field.angular_velocity_covariance1,field.angular_velocity_covariance2,field.angular_velocity_covariance3,field.angular_velocity_covariance4,field.angular_velocity_covariance5,field.angular_velocity_covariance6,field.angular_velocity_covariance7,field.angular_velocity_covariance8,field.linear_acceleration.x,field.linear_acceleration.y,field.linear_acceleration.z,field.linear_acceleration_covariance0,field.linear_acceleration_covariance1,field.linear_acceleration_covariance2,field.linear_acceleration_covariance3,field.linear_acceleration_covariance4,field.linear_acceleration_covariance5,field.linear_acceleration_covariance6,field.linear_acceleration_covariance7,field.linear_acceleration_covariance8
1463662771473076660,489,1463662771466562240,,-3.03035640717,-1.88764441013,-140.109786987,0.0111290002242,1.0,0.0,0.0,0.0,1.0,0.0,0.0,0.0,1.0,2.80487799644,-1.2804877758,0.731707334518,1.0,0.0,0.0,0.0,1.0,0.0,0.0,0.0,1.0,-1.31681091309,0.359130249023,-10.2376062988,1.0,0.0,0.0,0.0,1.0,0.0,0.0,0.0,1.0
1463662771477187229,490,1463662771474960591,,-3.06255984306,-1.92324781418,-140.058135986,0.0185560006648,1.0,0.0,0.0,0.0,1.0,0.0,0.0,0.0,1.0,3.10975623131,-1.15853655338,0.914634168148,1.0,0.0,0.0,0.0,1.0,0.0,0.0,0.0,1.0,-1.20667770978,0.335188232422,-10.1418382324,1.0,0.0,0.0,0.0,1.0,0.0,0.0,0.0,1.0
1463662771480902164,491,1463662771478288176,,-3.06887936592,-1.93136870861,-140.046844482,0.00405600015074,1.0,0.0,0.0,0.0,1.0,0.0,0.0,0.0,1.0,3.23170733452,-1.2195122242,0.914634168148,1.0,0.0,0.0,0.0,1.0,0.0,0.0,0.0,1.0,-1.21625444336,0.330399829102,-10.1322614258,1.0,0.0,0.0,0.0,1.0,0.0,0.0,0.0,1.0
1463662771487013659,492,1463662771485073783,,-3.07999658585,-1.94327688217,-140.031036377,0.00669200019911,1.0,0.0,0.0,0.0,1.0,0.0,0.0,0.0,1.0,3.29268312454,-1.2804877758,0.487804889679,1.0,0.0,0.0,0.0,1.0,0.0,0.0,0.0,1.0,-1.17794714373,0.368707055664,-10.2711251221,1.0,0.0,0.0,0.0,1.0,0.0,0.0,0.0,1.0
1463662771501309254,493,1463662771496054607,,-3.09055805206,-1.9602714777,-140.006072998,0.0100729996338,1.0,0.0,0.0,0.0,1.0,0.0,0.0,0.0,1.0,4.08536577225,-1.09756100178,0.609756112099,1.0,0.0,0.0,0.0,1.0,0.0,0.0,0.0,1.0,-1.19710090314,0.402225878906,-10.2615483154,1.0,0.0,0.0,0.0,1.0,0.0,0.0,0.0,1.0
1463662771506356526,494,1463662771503719826,,-3.09721589088,-1.97763121128,-139.981796265,0.0101300003007,1.0,0.0,0.0,0.0,1.0,0.0,0.0,0.0,1.0,4.14634132385,-0.914634168148,0.548780500889,1.0,0.0,0.0,0.0,1.0,0.0,0.0,0.0,1.0,-1.24019645996,0.344765039063,-10.2807019287,1.0,0.0,0.0,0.0,1.0,0.0,0.0,0.0,1.0
1463662771516535353,495,1463662771514137700,,-3.09965658188,-1.99204516411,-139.954574585,0.0101269995794,1.0,0.0,0.0,0.0,1.0,0.0,0.0,0.0,1.0,4.32926845551,-0.792682945728,0.853658556938,1.0,0.0,0.0,0.0,1.0,0.0,0.0,0.0,1.0,-1.21625444336,0.301669427446,-10.2902787354,1.0,0.0,0.0,0.0,1.0,0.0,0.0,0.0,1.0
1463662771526322038,496,1463662771524077533,,-3.10320186615,-2.0027153492,-139.928146362,0.0100870002061,1.0,0.0,0.0,0.0,1.0,0.0,0.0,0.0,1.0,4.14634132385,-0.731707334518,0.792682945728,1.0,0.0,0.0,0.0,1.0,0.0,0.0,0.0,1.0,-1.1540052002,0.287304199219,-10.2184526855,1.0,0.0,0.0,0.0,1.0,0.0,0.0,0.0,1.0
1463662771536610778,497,1463662771534310066,,-3.10507154465,-2.01818847656,-139.904891968,0.0100600002334,1.0,0.0,0.0,0.0,1.0,0.0,0.0,0.0,1.0,4.2682929039,-0.731707334518,0.487804889679,1.0,0.0,0.0,0.0,1.0,0.0,0.0,0.0,1.0,-1.24498486328,0.282515795898,-10.2519715088,1.0,0.0,0.0,0.0,1.0,0.0,0.0,0.0,1.0
1463662771546560561,498,1463662771544295688,,-3.11781144142,-2.02760505676,-139.881256104,0.0101129999384,1.0,0.0,0.0,0.0,1.0,0.0,0.0,0.0,1.0,4.02439022064,-0.670731723309,0.487804889679,1.0,0.0,0.0,0.0,1.0,0.0,0.0,0.0,1.0,-1.13963999023,0.430956298828,-10.1753570557,1.0,0.0,0.0,0.0,1.0,0.0,0.0,0.0,1.0
1463662771557154451,499,1463662771554679442,,-3.11900377274,-2.04457092285,-139.8540802,0.0101610003039,1.0,0.0,0.0,0.0,1.0,0.0,0.0,0.0,1.0,4.08536577225,-0.853658556938,0.853658556938,1.0,0.0,0.0,0.0,1.0,0.0,0.0,0.0,1.0,-1.26892687988,0.239420166016,-10.3668931885,1.0,0.0,0.0,0.0,1.0,0.0,0.0,0.0,1.0
1463662771568423599,500,1463662771564417318,,-3.13766241074,-2.05444073677,-139.83001709,0.010037000291,1.0,0.0,0.0,0.0,1.0,0.0,0.0,0.0,1.0,3.53658556938,-0.609756112099,0.548780500889,1.0,0.0,0.0,0.0,1.0,0.0,0.0,0.0,1.0,-1.18273554705,0.45968671875,-10.3237975586,1.0,0.0,0.0,0.0,1.0,0.0,0.0,0.0,1.0
1463662771577110327,501,1463662771574754346,,-3.15556406975,-2.06445145607,-139.803985596,0.0101490002126,1.0,0.0,0.0,0.0,1.0,0.0,0.0,0.0,1.0,3.10975623131,-0.670731723309,0.731707334518,1.0,0.0,0.0,0.0,1.0,0.0,0.0,0.0,1.0,-1.16837033709,0.363918652344,-10.2615483154,1.0,0.0,0.0,0.0,1.0,0.0,0.0,0.0,1.0
1463662771587704373,502,1463662771585298177,,-3.17236685753,-2.07334446907,-139.772201538,0.0106610003859,1.0,0.0,0.0,0.0,1.0,0.0,0.0,0.0,1.0,3.10975623131,-0.609756112099,1.15853655338,1.0,0.0,0.0,0.0,1.0,0.0,0.0,0.0,1.0,-1.15879360352,0.330399829102,-10.2711251221,1.0,0.0,0.0,0.0,1.0,0.0,0.0,0.0,1.0
1463662771597540388,503,1463662771595056837,,-3.19413208961,-2.08624362946,-139.739547729,0.0095779998228,1.0,0.0,0.0,0.0,1.0,0.0,0.0,0.0,1.0,2.62195134163,-0.487804889679,1.58536589146,1.0,0.0,0.0,0.0,1.0,0.0,0.0,0.0,1.0,-1.28329208984,0.368707055664,-10.2807019287,1.0,0.0,0.0,0.0,1.0,0.0,0.0,0.0,1.0
1463662771609593978,504,1463662771604675788,,-3.21612453461,-2.0940554142,-139.709014893,0.0100499996915,1.0,0.0,0.0,0.0,1.0,0.0,0.0,0.0,1.0,2.56097555161,-0.548780500889,1.2195122242,1.0,0.0,0.0,0.0,1.0,0.0,0.0,0.0,1.0,-1.16837033709,0.349553442383,-10.3046439453,1.0,0.0,0.0,0.0,1.0,0.0,0.0,0.0,1.0
1463662771617746979,505,1463662771614895559,,-3.23918962479,-2.09840989113,-139.676727295,0.0100579997525,1.0,0.0,0.0,0.0,1.0,0.0,0.0,0.0,1.0,2.56097555161,-0.304878056049,1.40243899822,1.0,0.0,0.0,0.0,1.0,0.0,0.0,0.0,1.0,-1.13006318359,0.363918652344,-10.0939541992,1.0,0.0,0.0,0.0,1.0,0.0,0.0,0.0,1.0
1463662771642425026,506,1463662771625572691,,-3.25999403,-2.10323023796,-139.645294189,0.0101889995858,1.0,0.0,0.0,0.0,1.0,0.0,0.0,0.0,1.0,2.68292689323,-0.365853667259,1.2804877758,1.0,0.0,0.0,0.0,1.0,0.0,0.0,0.0,1.0,-1.1540052002,0.354341845703,-10.3477395752,1.0,0.0,0.0,0.0,1.0,0.0,0.0,0.0,1.0
1463662771642915568,507,1463662771635037609,,-3.27893948555,-2.11436748505,-139.613601685,0.0100159998983,1.0,0.0,0.0,0.0,1.0,0.0,0.0,0.0,1.0,2.92682933807,-0.609756112099,1.34146344662,1.0,0.0,0.0,0.0,1.0,0.0,0.0,0.0,1.0,-1.22583125,0.373495458984,-10.3190091553,1.0,0.0,0.0,0.0,1.0,0.0,0.0,0.0,1.0
1463662771647909447,508,1463662771645591024,,-3.29605412483,-2.1173927784,-139.582275391,0.010153000243,1.0,0.0,0.0,0.0,1.0,0.0,0.0,0.0,1.0,3.04878044128,-0.426829278469,1.2804877758,1.0,0.0,0.0,0.0,1.0,0.0,0.0,0.0,1.0,-1.11569797363,0.363918652344,-10.3668931885,1.0,0.0,0.0,0.0,1.0,0.0,0.0,0.0,1.0
1463662771660210417,509,1463662771655198307,,-3.30844545364,-2.12651109695,-139.551101685,0.0100589999929,1.0,0.0,0.0,0.0,1.0,0.0,0.0,0.0,1.0,3.59756112099,-0.609756112099,1.2804877758,1.0,0.0,0.0,0.0,1.0,0.0,0.0,0.0,1.0,-1.19231249982,0.383072265625,-10.3381627686,1.0,0.0,0.0,0.0,1.0,0.0,0.0,0.0,1.0
1463662771780320416,510,1463662771668504742,,-3.31567168236,-2.12990522385,-139.523330688,0.0100910002366,1.0,0.0,0.0,0.0,1.0,0.0,0.0,0.0,1.0,3.59756112099,-0.243902444839,0.975609779358,1.0,0.0,0.0,0.0,1.0,0.0,0.0,0.0,1.0,-1.14921679688,0.292092584273,-10.3094323486,1.0,0.0,0.0,0.0,1.0,0.0,0.0,0.0,1.0
1463662771780761524,511,1463662771675561484,,-3.3229238987,-2.13273787498,-139.492111206,0.0101079996675,1.0,0.0,0.0,0.0,1.0,0.0,0.0,0.0,1.0,3.90243911743,-0.609756112099,1.2804877758,1.0,0.0,0.0,0.0,1.0,0.0,0.0,0.0,1.0,-1.06781401349,0.344765039063,-10.2328178955,1.0,0.0,0.0,0.0,1.0,0.0,0.0,0.0,1.0
1463662771781084541,512,1463662771685640609,,-3.33209085464,-2.13710212708,-139.462173462,0.010106000118,1.0,0.0,0.0,0.0,1.0,0.0,0.0,0.0,1.0,3.65853667259,-0.548780500889,1.15853655338,1.0,0.0,0.0,0.0,1.0,0.0,0.0,0.0,1.0,-1.11569797363,0.339976635742,-10.3237975586,1.0,0.0,0.0,0.0,1.0,0.0,0.0,0.0,1.0
1463662771781403444,513,1463662771695736299,,-3.33373188972,-2.14030647278,-139.42678833,0.0101070003584,1.0,0.0,0.0,0.0,1.0,0.0,0.0,0.0,1.0,4.2682929039,-0.487804889679,1.70731711388,1.0,0.0,0.0,0.0,1.0,0.0,0.0,0.0,1.0,-1.13963999023,0.320823022461,-10.5775829346,1.0,0.0,0.0,0.0,1.0,0.0,0.0,0.0,1.0
1463662771781664473,514,1463662771705831624,,-3.3408138752,-2.15213227272,-139.3931427,0.0100910002366,1.0,0.0,0.0,0.0,1.0,0.0,0.0,0.0,1.0,4.08536577225,-0.487804889679,1.52439022064,1.0,0.0,0.0,0.0,1.0,0.0,0.0,0.0,1.0,-1.2497732666,0.373495458984,-10.1609918457,1.0,0.0,0.0,0.0,1.0,0.0,0.0,0.0,1.0
1463662771781911437,515,1463662771715885276,,-3.33869862556,-2.16005635262,-139.354187012,0.0101150004193,1.0,0.0,0.0,0.0,1.0,0.0,0.0,0.0,1.0,4.20731735229,-0.487804889679,2.07317066193,1.0,0.0,0.0,0.0,1.0,0.0,0.0,0.0,1.0,-1.19231249982,0.229843359375,-10.2136642822,1.0,0.0,0.0,0.0,1.0,0.0,0.0,0.0,1.0
1463662771782666551,516,1463662771725927833,,-3.34389615059,-2.16613745689,-139.314102173,0.010098000057,1.0,0.0,0.0,0.0,1.0,0.0,0.0,0.0,1.0,3.7804877758,-0.243902444839,2.19512200356,1.0,0.0,0.0,0.0,1.0,0.0,0.0,0.0,1.0,-1.20667770978,0.282515795898,-10.2136642822,1.0,0.0,0.0,0.0,1.0,0.0,0.0,0.0,1.0
1463662771783704364,517,1463662771736250537,,-3.35224938393,-2.17032289505,-139.268341064,0.0100899999961,1.0,0.0,0.0,0.0,1.0,0.0,0.0,0.0,1.0,3.47560977936,-0.487804889679,2.74390244484,1.0,0.0,0.0,0.0,1.0,0.0,0.0,0.0,1.0,-1.13963999023,0.282515795898,-10.2567599121,1.0,0.0,0.0,0.0,1.0,0.0,0.0,0.0,1.0
1463662771784409887,518,1463662771748381326,,-3.36084294319,-2.17344641685,-139.226989746,0.0101070003584,1.0,0.0,0.0,0.0,1.0,0.0,0.0,0.0,1.0,3.10975623131,-0.426829278469,2.31707310677,1.0,0.0,0.0,0.0,1.0,0.0,0.0,0.0,1.0,-1.13006318359,0.225054956055,-10.2807019287,1.0,0.0,0.0,0.0,1.0,0.0,0.0,0.0,1.0
1463662771786959699,519,1463662771756196619,,-3.37767791748,-2.18089795113,-139.185470581,0.0100940000266,1.0,0.0,0.0,0.0,1.0,0.0,0.0,0.0,1.0,2.74390244484,-0.548780500889,2.31707310677,1.0,0.0,0.0,0.0,1.0,0.0,0.0,0.0,1.0,-1.19710090314,0.31124621582,-10.3621047852,1.0,0.0,0.0,0.0,1.0,0.0,0.0,0.0,1.0
1463662771787417997,520,1463662771766318876,,-3.39334249496,-2.19063687325,-139.149169922,0.0100849997252,1.0,0.0,0.0,0.0,1.0,0.0,0.0,0.0,1.0,2.25609779358,-0.548780500889,1.8292683363,1.0,0.0,0.0,0.0,1.0,0.0,0.0,0.0,1.0,-1.23061965332,0.205901342773,-10.3237975586,1.0,0.0,0.0,0.0,1.0,0.0,0.0,0.0,1.0
1463662771787736951,521,1463662771776562140,,-3.41007637978,-2.19653940201,-139.115081787,0.0101269995794,1.0,0.0,0.0,0.0,1.0,0.0,0.0,0.0,1.0,2.43902444839,-0.548780500889,1.58536589146,1.0,0.0,0.0,0.0,1.0,0.0,0.0,0.0,1.0,-1.16358193377,0.263362164351,-10.3621047852,1.0,0.0,0.0,0.0,1.0,0.0,0.0,0.0,1.0
1463662771948588878,522,1463662771786621523,,-3.43248176575,-2.21091246605,-139.09022522,0.0101030003279,1.0,0.0,0.0,0.0,1.0,0.0,0.0,0.0,1.0,2.13414645195,-0.609756112099,0.670731723309,1.0,0.0,0.0,0.0,1.0,0.0,0.0,0.0,1.0,-1.26413847656,0.31124621582,-10.0748005859,1.0,0.0,0.0,0.0,1.0,0.0,0.0,0.0,1.0
1463662771950346904,523,1463662771796688094,,-3.45607113838,-2.21879792213,-139.068054199,0.0100889997557,1.0,0.0,0.0,0.0,1.0,0.0,0.0,0.0,1.0,1.8902438879,-0.426829278469,0.426829278469,1.0,0.0,0.0,0.0,1.0,0.0,0.0,0.0,1.0,-1.20667770978,0.301669427446,-10.2950671387,1.0,0.0,0.0,0.0,1.0,0.0,0.0,0.0,1.0
1463662771950567771,524,1463662771806825769,,-3.47864317894,-2.23359441757,-139.047454834,0.0101100001484,1.0,0.0,0.0,0.0,1.0,0.0,0.0,0.0,1.0,1.40243899822,-0.18292683363,0.304878056049,1.0,0.0,0.0,0.0,1.0,0.0,0.0,0.0,1.0,-1.36948334961,0.196324536133,-10.2328178955,1.0,0.0,0.0,0.0,1.0,0.0,0.0,0.0,1.0
1463662771952084927,525,1463662771816921147,,-3.50554275513,-2.23984456062,-139.027236938,0.010098000057,1.0,0.0,0.0,0.0,1.0,0.0,0.0,0.0,1.0,1.46341466904,-0.365853667259,0.243902444839,1.0,0.0,0.0,0.0,1.0,0.0,0.0,0.0,1.0,-1.16837033709,0.287304199219,-10.1035310059,1.0,0.0,0.0,0.0,1.0,0.0,0.0,0.0,1.0
1463662771952553799,526,1463662771826991885,,-3.53375005722,-2.24900627136,-139.01322937,0.010106000118,1.0,0.0,0.0,0.0,1.0,0.0,0.0,0.0,1.0,1.2804877758,-0.304878056049,-0.365853667259,1.0,0.0,0.0,0.0,1.0,0.0,0.0,0.0,1.0,-1.23061965332,0.287304199219,-10.1418382324,1.0,0.0,0.0,0.0,1.0,0.0,0.0,0.0,1.0
1463662771953067471,527,1463662771837012616,,-3.55789399147,-2.25539493561,-139.001235962,0.010095000267,1.0,0.0,0.0,0.0,1.0,0.0,0.0,0.0,1.0,1.34146344662,-0.365853667259,-0.548780500889,1.0,0.0,0.0,0.0,1.0,0.0,0.0,0.0,1.0,-1.17794714373,0.234631762695,-10.2184526855,1.0,0.0,0.0,0.0,1.0,0.0,0.0,0.0,1.0
1463662771953118572,528,1463662771847099711,,-3.58966040611,-2.26916313171,-138.993453979,0.010095000267,1.0,0.0,0.0,0.0,1.0,0.0,0.0,0.0,1.0,0.975609779358,-0.304878056049,-0.975609779358,1.0,0.0,0.0,0.0,1.0,0.0,0.0,0.0,1.0,-1.33596452637,0.316034619141,-10.3429511719,1.0,0.0,0.0,0.0,1.0,0.0,0.0,0.0,1.0
1463662771953185822,529,1463662771857176023,,-3.62696242332,-2.27266693115,-138.984222412,0.0101049998775,1.0,0.0,0.0,0.0,1.0,0.0,0.0,0.0,1.0,1.09756100178,-0.243902444839,-0.853658556938,1.0,0.0,0.0,0.0,1.0,0.0,0.0,0.0,1.0,-1.1540052002,0.440533105469,-10.2615483154,1.0,0.0,0.0,0.0,1.0,0.0,0.0,0.0,1.0
1463662771953672093,530,1463662771867380114,,-3.66276955605,-2.28297877312,-138.98147583,0.0101049998775,1.0,0.0,0.0,0.0,1.0,0.0,0.0,0.0,1.0,0.792682945728,-0.0609756112099,-1.46341466904,1.0,0.0,0.0,0.0,1.0,0.0,0.0,0.0,1.0,-1.28808049316,0.363918652344,-10.1274730225,1.0,0.0,0.0,0.0,1.0,0.0,0.0,0.0,1.0
1463662771953723142,531,1463662771877436944,,-3.69734740257,-2.2856066227,-138.977539062,0.0100899999961,1.0,0.0,0.0,0.0,1.0,0.0,0.0,0.0,1.0,1.03658533096,0.0,-1.34146344662,1.0,0.0,0.0,0.0,1.0,0.0,0.0,0.0,1.0,-1.17794714373,0.397437475586,-10.2471831055,1.0,0.0,0.0,0.0,1.0,0.0,0.0,0.0,1.0
1463662771955806165,532,1463662771891817500,,-3.71981787682,-2.28491592407,-138.97605896,0.0102829998359,1.0,0.0,0.0,0.0,1.0,0.0,0.0,0.0,1.0,1.46341466904,0.426829278469,-1.52439022064,1.0,0.0,0.0,0.0,1.0,0.0,0.0,0.0,1.0,-1.20188930646,0.258573779297,-10.3190091553,1.0,0.0,0.0,0.0,1.0,0.0,0.0,0.0,1.0
1463662771956171272,533,1463662771897933839,,-3.74562358856,-2.28733468056,-138.971252441,0.00992299988866,1.0,0.0,0.0,0.0,1.0,0.0,0.0,0.0,1.0,1.64634156227,0.243902444839,-1.2195122242,1.0,0.0,0.0,0.0,1.0,0.0,0.0,0.0,1.0,-1.22583125,0.368707055664,-10.285490332,1.0,0.0,0.0,0.0,1.0,0.0,0.0,0.0,1.0
1463662771956222999,534,1463662771907917637,,-3.77231001854,-2.28426265717,-138.970245361,0.0100940000266,1.0,0.0,0.0,0.0,1.0,0.0,0.0,0.0,1.0,2.01219511032,0.731707334518,-1.58536589146,1.0,0.0,0.0,0.0,1.0,0.0,0.0,0.0,1.0,-1.22104284668,0.45489831543,-10.3716815918,1.0,0.0,0.0,0.0,1.0,0.0,0.0,0.0,1.0
1463662771956506271,535,1463662771917931075,,-3.78622889519,-2.28063488007,-138.961685181,0.0101030003279,1.0,0.0,0.0,0.0,1.0,0.0,0.0,0.0,1.0,3.59756112099,0.670731723309,-0.853658556938,1.0,0.0,0.0,0.0,1.0,0.0,0.0,0.0,1.0,-1.20667770978,0.512359155273,-10.3573163818,1.0,0.0,0.0,0.0,1.0,0.0,0.0,0.0,1.0
1463662771956555236,536,1463662771928560283,,-3.78812408447,-2.27418351173,-138.95664978,0.0101100001484,1.0,0.0,0.0,0.0,1.0,0.0,0.0,0.0,1.0,4.51219558716,1.15853655338,-1.15853655338,1.0,0.0,0.0,0.0,1.0,0.0,0.0,0.0,1.0,-1.23540805664,0.46447512207,-10.314220752,1.0,0.0,0.0,0.0,1.0,0.0,0.0,0.0,1.0
1463662771956828038,537,1463662771938477405,,-3.78211975098,-2.27045178413,-138.944046021,0.0100870002061,1.0,0.0,0.0,0.0,1.0,0.0,0.0,0.0,1.0,5.67073154449,1.09756100178,-0.426829278469,1.0,0.0,0.0,0.0,1.0,0.0,0.0,0.0,1.0,-1.27850368652,0.526724328702,-10.285490332,1.0,0.0,0.0,0.0,1.0,0.0,0.0,0.0,1.0
1463662771963718661,538,1463662771948786721,,-3.76886773109,-2.25647640228,-138.921401978,0.0104580000043,1.0,0.0,0.0,0.0,1.0,0.0,0.0,0.0,1.0,7.07317113876,1.58536589146,0.487804889679,1.0,0.0,0.0,0.0,1.0,0.0,0.0,0.0,1.0,-1.20667770978,0.656011254883,-10.3333743652,1.0,0.0,0.0,0.0,1.0,0.0,0.0,0.0,1.0
1463662772007723009,539,1463662771960691746,,-3.73275399208,-2.24145841599,-138.893615723,0.00987500045449,1.0,0.0,0.0,0.0,1.0,0.0,0.0,0.0,1.0,9.69512176514,2.07317066193,1.15853655338,1.0,0.0,0.0,0.0,1.0,0.0,0.0,0.0,1.0,-1.2737152832,0.694318481445,-10.3764699951,1.0,0.0,0.0,0.0,1.0,0.0,0.0,0.0,1.0
1463662772007910537,540,1463662771969828437,,-3.67965459824,-2.21788287163,-138.857254028,0.0101180002093,1.0,0.0,0.0,0.0,1.0,0.0,0.0,0.0,1.0,12.5,2.19512200356,1.8902438879,1.0,0.0,0.0,0.0,1.0,0.0,0.0,0.0,1.0,-1.14442839355,0.900219824219,-10.299855542,1.0,0.0,0.0,0.0,1.0,0.0,0.0,0.0,1.0
1463662772008091606,541,1463662771978853080,,-3.60046505928,-2.19889426231,-138.812347412,0.0100050000474,1.0,0.0,0.0,0.0,1.0,0.0,0.0,0.0,1.0,16.2195110321,2.31707310677,2.74390244484,1.0,0.0,0.0,0.0,1.0,0.0,0.0,0.0,1.0,-1.26892687988,1.09175595703,-10.4243540283,1.0,0.0,0.0,0.0,1.0,0.0,0.0,0.0,1.0
1463662772008147084,542,1463662771989102856,,-3.47455263138,-2.17555689812,-138.756958008,0.0101100001484,1.0,0.0,0.0,0.0,1.0,0.0,0.0,0.0,1.0,21.7682933807,2.86585378647,3.71951246262,1.0,0.0,0.0,0.0,1.0,0.0,0.0,0.0,1.0,-1.28808049316,1.24498486328,-10.3046439453,1.0,0.0,0.0,0.0,1.0,0.0,0.0,0.0,1.0
1463662772008561417,543,1463662771998837554,,-3.29947376251,-2.15442872047,-138.68522644,0.0100549999624,1.0,0.0,0.0,0.0,1.0,0.0,0.0,0.0,1.0,28.2317066193,2.98780488968,5.30487823486,1.0,0.0,0.0,0.0,1.0,0.0,0.0,0.0,1.0,-1.37427175293,1.50355864258,-10.3860468018,1.0,0.0,0.0,0.0,1.0,0.0,0.0,0.0,1.0
1463662772013333543,544,1463662772008845106,,-3.05464100838,-2.11913561821,-138.591003418,0.0101049998775,1.0,0.0,0.0,0.0,1.0,0.0,0.0,0.0,1.0,36.9512214661,3.84146332741,7.43902492523,1.0,0.0,0.0,0.0,1.0,0.0,0.0,0.0,1.0,-1.25935007324,1.77170922852,-10.1322614258,1.0,0.0,0.0,0.0,1.0,0.0,0.0,0.0,1.0
1463662772021628389,545,1463662772019035081,,-2.71538972855,-2.06969738007,-138.466934204,0.0102059999481,1.0,0.0,0.0,0.0,1.0,0.0,0.0,0.0,1.0,47.5609779358,5.24390268326,10.2439022064,1.0,0.0,0.0,0.0,1.0,0.0,0.0,0.0,1.0,-1.26413847656,1.97761057129,-9.97903251953,1.0,0.0,0.0,0.0,1.0,0.0,0.0,0.0,1.0
1463662772031490189,546,1463662772029102277,,-2.27032136917,-2.01509070396,-138.313049316,0.0100090000778,1.0,0.0,0.0,0.0,1.0,0.0,0.0,0.0,1.0,59.6341438293,6.40243911743,13.4146347046,1.0,0.0,0.0,0.0,1.0,0.0,0.0,0.0,1.0,-1.37906015625,2.07337849156,-10.0700121826,1.0,0.0,0.0,0.0,1.0,0.0,0.0,0.0,1.0
1463662772047946005,547,1463662772039087638,,-1.69773113728,-1.95160806179,-138.115127563,0.0100889997557,1.0,0.0,0.0,0.0,1.0,0.0,0.0,0.0,1.0,71.4024429321,7.62195110321,17.6219520569,1.0,0.0,0.0,0.0,1.0,0.0,0.0,0.0,1.0,-1.40300217285,1.82438166504,-9.82580361328,1.0,0.0,0.0,0.0,1.0,0.0,0.0,0.0,1.0
1463662772054676188,548,1463662772049604849,,-1.00373566151,-1.86508667469,-137.868484497,0.0101349996403,1.0,0.0,0.0,0.0,1.0,0.0,0.0,0.0,1.0,83.1097564697,9.93902492523,22.2560977936,1.0,0.0,0.0,0.0,1.0,0.0,0.0,0.0,1.0,-1.40300217285,1.71903679199,-9.97424411621,1.0,0.0,0.0,0.0,1.0,0.0,0.0,0.0,1.0
1463662772062335416,549,1463662772059629956,,-0.205936908722,-1.7754843235,-137.573684692,0.0100520001724,1.0,0.0,0.0,0.0,1.0,0.0,0.0,0.0,1.0,95.7926864624,11.0365858078,27.0121955872,1.0,0.0,0.0,0.0,1.0,0.0,0.0,0.0,1.0,-1.47961662598,1.9105729248,-10.0125513428,1.0,0.0,0.0,0.0,1.0,0.0,0.0,0.0,1.0
1463662772071679430,550,1463662772069703976,,0.721451282501,-1.67370676994,-137.231063843,0.0101140001789,1.0,0.0,0.0,0.0,1.0,0.0,0.0,0.0,1.0,109.817077637,13.9024391174,31.2804889679,1.0,0.0,0.0,0.0,1.0,0.0,0.0,0.0,1.0,-1.65678754883,2.02070620117,-9.75397756348,1.0,0.0,0.0,0.0,1.0,0.0,0.0,0.0,1.0
1463662772086131767,551,1463662772079845246,,1.80058157444,-1.55799865723,-136.83543396,0.0100830001757,1.0,0.0,0.0,0.0,1.0,0.0,0.0,0.0,1.0,123.414642334,16.6463413239,36.3414611816,1.0,0.0,0.0,0.0,1.0,0.0,0.0,0.0,1.0,-1.73340200195,1.51792385254,-9.71567033691,1.0,0.0,0.0,0.0,1.0,0.0,0.0,0.0,1.0
1463662772115616997,552,1463662772090287394,,3.01236796379,-1.42737972736,-136.376983643,0.0101260002702,1.0,0.0,0.0,0.0,1.0,0.0,0.0,0.0,1.0,134.085372925,18.9634151459,41.9512214661,1.0,0.0,0.0,0.0,1.0,0.0,0.0,0.0,1.0,-1.64721074219,0.943315454102,-9.52413478862,1.0,0.0,0.0,0.0,1.0,0.0,0.0,0.0,1.0
1463662772117939535,553,1463662772099959895,,4.328145504,-1.27245104313,-135.845321655,0.010111999698,1.0,0.0,0.0,0.0,1.0,0.0,0.0,0.0,1.0,142.195129395,20.8536586761,48.7195129395,1.0,0.0,0.0,0.0,1.0,0.0,0.0,0.0,1.0,-1.24498486328,0.31124621582,-9.28950185688,1.0,0.0,0.0,0.0,1.0,0.0,0.0,0.0,1.0
1463662772118073201,554,1463662772109731891,,5.70634317398,-1.12269151211,-135.24017334,0.0100800003856,1.0,0.0,0.0,0.0,1.0,0.0,0.0,0.0,1.0,147.073181152,21.4634151459,55.6707344055,1.0,0.0,0.0,0.0,1.0,0.0,0.0,0.0,1.0,-1.10133276367,-0.196324536133,-9.38526992329,1.0,0.0,0.0,0.0,1.0,0.0,0.0,0.0,1.0
1463662772124338522,555,1463662772120245404,,7.15592813492,-0.990244567394,-134.55430603,0.0102190002799,1.0,0.0,0.0,0.0,1.0,0.0,0.0,0.0,1.0,151.036590576,22.0121955872,62.2560997009,1.0,0.0,0.0,0.0,1.0,0.0,0.0,0.0,1.0,-1.07260241682,-0.593762048251,-9.03571706543,1.0,0.0,0.0,0.0,1.0,0.0,0.0,0.0,1.0
1463662772137058462,556,1463662772130117987,,8.60301876068,-0.89996778965,-133.821807861,0.00999100040644,1.0,0.0,0.0,0.0,1.0,0.0,0.0,0.0,1.0,153.536590576,22.6219520569,67.9878082275,1.0,0.0,0.0,0.0,1.0,0.0,0.0,0.0,1.0,-1.36948334961,-0.885854614258,-8.90643017578,1.0,0.0,0.0,0.0,1.0,0.0,0.0,0.0,1.0
1463662772146449202,557,1463662772140582223,,10.0931472778,-0.84021294117,-133.033447266,0.010095000267,1.0,0.0,0.0,0.0,1.0,0.0,0.0,0.0,1.0,155.731704712,23.2926845551,72.3170700073,1.0,0.0,0.0,0.0,1.0,0.0,0.0,0.0,1.0,-1.61848032227,-1.2497732666,-9.24640681152,1.0,0.0,0.0,0.0,1.0,0.0,0.0,0.0,1.0
1463662772157737520,558,1463662772150217999,,11.6137046814,-0.810511350632,-132.205856323,0.0101110003889,1.0,0.0,0.0,0.0,1.0,0.0,0.0,0.0,1.0,157.012191772,23.9634151459,75.6707305908,1.0,0.0,0.0,0.0,1.0,0.0,0.0,0.0,1.0,-1.73340200195,-1.69988317871,-8.97346782227,1.0,0.0,0.0,0.0,1.0,0.0,0.0,0.0,1.0
1463662772164494320,559,1463662772160303219,,13.1414270401,-0.774461150169,-131.350784302,0.0100840004161,1.0,0.0,0.0,0.0,1.0,0.0,0.0,0.0,1.0,156.097564697,25.6707324982,77.9878082275,1.0,0.0,0.0,0.0,1.0,0.0,0.0,0.0,1.0,-1.5083470459,-2.34631748082,-9.18894597168,1.0,0.0,0.0,0.0,1.0,0.0,0.0,0.0,1.0
1463662772177826957,560,1463662772170655250,,14.6575288773,-0.758044600487,-130.463592529,0.0101110003889,1.0,0.0,0.0,0.0,1.0,0.0,0.0,0.0,1.0,151.341461182,25.0,80.9146347046,1.0,0.0,0.0,0.0,1.0,0.0,0.0,0.0,1.0,-1.21625444336,-3.10767375488,-8.96389101563,1.0,0.0,0.0,0.0,1.0,0.0,0.0,0.0,1.0
1463662772183464943,561,1463662772180932373,,16.1312332153,-0.761973619461,-129.558166504,0.0100959995762,1.0,0.0,0.0,0.0,1.0,0.0,0.0,0.0,1.0,145.121963501,25.0,82.7439041138,1.0,0.0,0.0,0.0,1.0,0.0,0.0,0.0,1.0,-1.11090957031,-3.79720383301,-8.96867941895,1.0,0.0,0.0,0.0,1.0,0.0,0.0,0.0,1.0
1463662772199094906,562,1463662772190941280,,17.5615310669,-0.814044237137,-128.639984131,0.0101279998198,1.0,0.0,0.0,0.0,1.0,0.0,0.0,0.0,1.0,136.768295288,22.3170719147,84.5121917725,1.0,0.0,0.0,0.0,1.0,0.0,0.0,0.0,1.0,-1.01035310059,-4.62559760742,-8.62870336773,1.0,0.0,0.0,0.0,1.0,0.0,0.0,0.0,1.0
1463662772219386926,563,1463662772201046815,,18.8498497009,-0.896779000759,-127.726089478,0.0100899999961,1.0,0.0,0.0,0.0,1.0,0.0,0.0,0.0,1.0,125.426834106,22.0731716156,84.5121917725,1.0,0.0,0.0,0.0,1.0,0.0,0.0,0.0,1.0,-1.18273554705,-4.69263496165,-9.03092866211,1.0,0.0,0.0,0.0,1.0,0.0,0.0,0.0,1.0
1463662772219462250,564,1463662772211405669,,20.0675544739,-1.04022026062,-126.805465698,0.0104470001534,1.0,0.0,0.0,0.0,1.0,0.0,0.0,0.0,1.0,115.365859985,19.3292694092,82.9878005981,1.0,0.0,0.0,0.0,1.0,0.0,0.0,0.0,1.0,-1.49398183594,-4.83149924246,-9.15542714844,1.0,0.0,0.0,0.0,1.0,0.0,0.0,0.0,1.0
1463662772226889777,565,1463662772221358630,,21.0808124542,-1.18001055717,-125.998779297,0.00973400007933,1.0,0.0,0.0,0.0,1.0,0.0,0.0,0.0,1.0,106.951225281,19.1463432312,77.5609741211,1.0,0.0,0.0,0.0,1.0,0.0,0.0,0.0,1.0,-1.61369191895,-4.29040966726,-9.19852277832,1.0,0.0,0.0,0.0,1.0,0.0,0.0,0.0,1.0
1463662772302453418,566,1463662772231563242,,22.0841159821,-1.32436263561,-125.218582153,0.0101169999689,1.0,0.0,0.0,0.0,1.0,0.0,0.0,0.0,1.0,101.463417053,18.7804889679,71.707321167,1.0,0.0,0.0,0.0,1.0,0.0,0.0,0.0,1.0,-1.68551796875,-4.5489831543,-9.05008227539,1.0,0.0,0.0,0.0,1.0,0.0,0.0,0.0,1.0
1463662772302503373,567,1463662772242064045,,23.0667495728,-1.44847714901,-124.48740387,0.0103120002896,1.0,0.0,0.0,0.0,1.0,0.0,0.0,0.0,1.0,93.9634170532,17.2560977936,65.8536605835,1.0,0.0,0.0,0.0,1.0,0.0,0.0,0.0,1.0,-1.24498486328,-5.43004936523,-8.89685336914,1.0,0.0,0.0,0.0,1.0,0.0,0.0,0.0,1.0
1463662772302540514,568,1463662772251914855,,23.9086837769,-1.55619895458,-123.845565796,0.00990299973637,1.0,0.0,0.0,0.0,1.0,0.0,0.0,0.0,1.0,83.2926864624,15.548781395,60.1219520569,1.0,0.0,0.0,0.0,1.0,0.0,0.0,0.0,1.0,-0.900219824219,-5.19541760254,-8.07324799805,1.0,0.0,0.0,0.0,1.0,0.0,0.0,0.0,1.0
1463662772302696580,569,1463662772262445975,,24.6891002655,-1.67209005356,-123.268157959,0.0101269995794,1.0,0.0,0.0,0.0,1.0,0.0,0.0,0.0,1.0,74.4512252808,12.5609760284,53.1097602844,1.0,0.0,0.0,0.0,1.0,0.0,0.0,0.0,1.0,-0.938527050781,-5.74608398437,-8.38928203267,1.0,0.0,0.0,0.0,1.0,0.0,0.0,0.0,1.0
1463662772304315678,570,1463662772271883284,,25.3732242584,-1.7672637701,-122.755851746,0.0100570004433,1.0,0.0,0.0,0.0,1.0,0.0,0.0,0.0,1.0,67.3170776367,12.3780488968,46.5853691101,1.0,0.0,0.0,0.0,1.0,0.0,0.0,0.0,1.0,-0.962469067383,-5.68862314453,-8.71010563965,1.0,0.0,0.0,0.0,1.0,0.0,0.0,0.0,1.0
1463662772304618745,571,1463662772282705803,,25.9724597931,-1.88551867008,-122.343421936,0.010108999908,1.0,0.0,0.0,0.0,1.0,0.0,0.0,0.0,1.0,58.0487823486,7.43902492523,37.865852356,1.0,0.0,0.0,0.0,1.0,0.0,0.0,0.0,1.0,-1.1875240965,-5.94719692383,-8.76756647949,1.0,0.0,0.0,0.0,1.0,0.0,0.0,0.0,1.0
1463662772304893161,572,1463662772292283550,,26.4844017029,-1.95821988583,-122.001701355,0.010150000453,1.0,0.0,0.0,0.0,1.0,0.0,0.0,0.0,1.0,48.3536567688,7.19512224197,30.1829280853,1.0,0.0,0.0,0.0,1.0,0.0,0.0,0.0,1.0,-0.876277807617,-6.12436784668,-8.60954975444,1.0,0.0,0.0,0.0,1.0,0.0,0.0,0.0,1.0
1463662772425975858,573,1463662772302621985,,26.7274131775,-2.01529479027,-121.732475281,0.0100469999015,1.0,0.0,0.0,0.0,1.0,0.0,0.0,0.0,1.0,35.8536605835,2.13414645195,24.5731716156,1.0,0.0,0.0,0.0,1.0,0.0,0.0,0.0,1.0,-0.220266552734,-4.30477487722,-10.7834842773,1.0,0.0,0.0,0.0,1.0,0.0,0.0,0.0,1.0
1463662772426035086,574,1463662772311985950,,27.0462627411,-2.03144884109,-121.559616089,0.0101969996467,1.0,0.0,0.0,0.0,1.0,0.0,0.0,0.0,1.0,28.4146347046,2.19512200356,14.1463422775,1.0,0.0,0.0,0.0,1.0,0.0,0.0,0.0,1.0,-0.320823022461,-6.47392128906,-8.78193168945,1.0,0.0,0.0,0.0,1.0,0.0,0.0,0.0,1.0
1463662772426471610,575,1463662772324595353,,27.2055206299,-2.10012245178,-121.433410645,0.0124369999394,1.0,0.0,0.0,0.0,1.0,0.0,0.0,0.0,1.0,13.7195129395,-1.15853655338,8.10975551605,1.0,0.0,0.0,0.0,1.0,0.0,0.0,0.0,1.0,-1.01514150391,-5.79396801758,-9.04050546875,1.0,0.0,0.0,0.0,1.0,0.0,0.0,0.0,1.0
1463662772426521930,576,1463662772332593955,,27.26994133,-2.13111329079,-121.389022827,0.00776599999517,1.0,0.0,0.0,0.0,1.0,0.0,0.0,0.0,1.0,5.97560977936,-3.53658556938,4.51219558716,1.0,0.0,0.0,0.0,1.0,0.0,0.0,0.0,1.0,-0.627280834961,-6.15788666992,-8.49462807476,1.0,0.0,0.0,0.0,1.0,0.0,0.0,0.0,1.0
1463662772426964861,577,1463662772342802996,,27.2422122955,-2.17948579788,-121.378578186,0.0100440001115,1.0,0.0,0.0,0.0,1.0,0.0,0.0,0.0,1.0,-3.90243911743,-4.57317066193,-0.243902444839,1.0,0.0,0.0,0.0,1.0,0.0,0.0,0.0,1.0,-1.07260241682,-6.25365473633,-9.05008227539,1.0,0.0,0.0,0.0,1.0,0.0,0.0,0.0,1.0
1463662772427017109,578,1463662772353674063,,27.1271934509,-2.23983597755,-121.422584534,0.0100880004466,1.0,0.0,0.0,0.0,1.0,0.0,0.0,0.0,1.0,-13.658536911,-8.29268264771,-4.32926845551,1.0,0.0,0.0,0.0,1.0,0.0,0.0,0.0,1.0,-1.08217922346,-6.72291826172,-9.40921193989,1.0,0.0,0.0,0.0,1.0,0.0,0.0,0.0,1.0
1463662772427476709,579,1463662772363599154,,26.8422107697,-2.27004981041,-121.480735779,0.0100800003856,1.0,0.0,0.0,0.0,1.0,0.0,0.0,0.0,1.0,-26.4024391174,-7.56097555161,-6.46341466904,1.0,0.0,0.0,0.0,1.0,0.0,0.0,0.0,1.0,-0.727837304687,-5.34385810547,-8.84418093262,1.0,0.0,0.0,0.0,1.0,0.0,0.0,0.0,1.0
1463662772427839420,580,1463662772373153617,,26.4754810333,-2.36680436134,-121.582366943,0.0102399997413,1.0,0.0,0.0,0.0,1.0,0.0,0.0,0.0,1.0,-35.3658561707,-12.9268293381,-8.35365867615,1.0,0.0,0.0,0.0,1.0,0.0,0.0,0.0,1.0,-1.32638771973,-6.12915625,-9.75397756348,1.0,0.0,0.0,0.0,1.0,0.0,0.0,0.0,1.0
1463662772427889584,581,1463662772383138769,,26.070142746,-2.43604302406,-121.681541443,0.00997999962419,1.0,0.0,0.0,0.0,1.0,0.0,0.0,0.0,1.0,-46.0365867615,-12.9268293381,-8.10975551605,1.0,0.0,0.0,0.0,1.0,0.0,0.0,0.0,1.0,-0.723048901367,-6.47392128906,-8.36534001606,1.0,0.0,0.0,0.0,1.0,0.0,0.0,0.0,1.0
1463662772428865200,582,1463662772393092667,,25.497631073,-2.49856972694,-121.818611145,0.0100790001452,1.0,0.0,0.0,0.0,1.0,0.0,0.0,0.0,1.0,-57.4390220642,-12.8048782349,-12.5,1.0,0.0,0.0,0.0,1.0,0.0,0.0,0.0,1.0,-1.01992990723,-5.94240852051,-9.41400034321,1.0,0.0,0.0,0.0,1.0,0.0,0.0,0.0,1.0
1463662772428922396,583,1463662772403673795,,24.8261547089,-2.6132876873,-122.002662659,0.0101049998775,1.0,0.0,0.0,0.0,1.0,0.0,0.0,0.0,1.0,-67.9268264771,-19.5731716156,-14.3902444839,1.0,0.0,0.0,0.0,1.0,0.0,0.0,0.0,1.0,-0.957680664062,-5.8705824707,-9.28471345356,1.0,0.0,0.0,0.0,1.0,0.0,0.0,0.0,1.0
1463662772429297088,584,1463662772413284255,,24.0762081146,-2.69285845757,-122.20476532,0.010098000057,1.0,0.0,0.0,0.0,1.0,0.0,0.0,0.0,1.0,-75.3048782349,-17.6219520569,-17.3780498505,1.0,0.0,0.0,0.0,1.0,0.0,0.0,0.0,1.0,-0.837970581055,-5.60243188477,-9.30386706685,1.0,0.0,0.0,0.0,1.0,0.0,0.0,0.0,1.0
1463662772479697141,585,1463662772424256276,,23.2397518158,-2.81161975861,-122.452903748,0.0101009998471,1.0,0.0,0.0,0.0,1.0,0.0,0.0,0.0,1.0,-82.5609817505,-20.4268302917,-21.2804889679,1.0,0.0,0.0,0.0,1.0,0.0,0.0,0.0,1.0,-1.35032973633,-5.1858407959,-9.45230756977,1.0,0.0,0.0,0.0,1.0,0.0,0.0,0.0,1.0
1463662772479745273,586,1463662772433697856,,22.3587284088,-2.92905807495,-122.74445343,0.0101300003007,1.0,0.0,0.0,0.0,1.0,0.0,0.0,0.0,1.0,-87.7439041138,-21.8292694092,-25.3048782349,1.0,0.0,0.0,0.0,1.0,0.0,0.0,0.0,1.0,-1.34554133301,-5.26245524902,-9.61990285503,1.0,0.0,0.0,0.0,1.0,0.0,0.0,0.0,1.0
1463662772480066988,587,1463662772443455006,,21.4238548279,-3.0326089859,-123.065818787,0.0100910002366,1.0,0.0,0.0,0.0,1.0,0.0,0.0,0.0,1.0,-94.3292694092,-22.4390239716,-28.4146347046,1.0,0.0,0.0,0.0,1.0,0.0,0.0,0.0,1.0,-1.13485158691,-5.22893642578,-9.63426806499,1.0,0.0,0.0,0.0,1.0,0.0,0.0,0.0,1.0
1463662772480750581,588,1463662772453496156,,20.4418201447,-3.13792896271,-123.41267395,0.0100670000538,1.0,0.0,0.0,0.0,1.0,0.0,0.0,0.0,1.0,-100.609764099,-22.9878044128,-31.0365867615,1.0,0.0,0.0,0.0,1.0,0.0,0.0,0.0,1.0,-1.18273554705,-5.31512768555,-9.68693991699,1.0,0.0,0.0,0.0,1.0,0.0,0.0,0.0,1.0
1463662772505745498,589,1463662772463837925,,19.3763446808,-3.25031685829,-123.7866745,0.0102430004627,1.0,0.0,0.0,0.0,1.0,0.0,0.0,0.0,1.0,-109.695121765,-23.4146347046,-33.0487823486,1.0,0.0,0.0,0.0,1.0,0.0,0.0,0.0,1.0,-1.23540805664,-5.5641246582,-9.53371159526,1.0,0.0,0.0,0.0,1.0,0.0,0.0,0.0,1.0
1463662772506828162,590,1463662772473773539,,18.2426700592,-3.36371183395,-124.175735474,0.00998399965465,1.0,0.0,0.0,0.0,1.0,0.0,0.0,0.0,1.0,-120.426826477,-23.7195129395,-35.6097564697,1.0,0.0,0.0,0.0,1.0,0.0,0.0,0.0,1.0,-1.32638771973,-5.65989272461,-9.71567033691,1.0,0.0,0.0,0.0,1.0,0.0,0.0,0.0,1.0
1463662772509064489,591,1463662772484107129,,16.9604892731,-3.48208427429,-124.600738525,0.0102190002799,1.0,0.0,0.0,0.0,1.0,0.0,0.0,0.0,1.0,-132.134155273,-23.7195129395,-38.5365829468,1.0,0.0,0.0,0.0,1.0,0.0,0.0,0.0,1.0,-1.36948334961,-5.22414802246,-9.57680722515,1.0,0.0,0.0,0.0,1.0,0.0,0.0,0.0,1.0
1463662772509153825,592,1463662772494120098,,15.5669517517,-3.59595918655,-125.059661865,0.010214000009,1.0,0.0,0.0,0.0,1.0,0.0,0.0,0.0,1.0,-142.317062378,-23.658536911,-42.2560958862,1.0,0.0,0.0,0.0,1.0,0.0,0.0,0.0,1.0,-1.32159931641,-4.75488478933,-9.66299848491,1.0,0.0,0.0,0.0,1.0,0.0,0.0,0.0,1.0
1463662772574480766,593,1463662772504199432,,14.0982189178,-3.71420884132,-125.551071167,0.0100570004433,1.0,0.0,0.0,0.0,1.0,0.0,0.0,0.0,1.0,-151.341461182,-23.7804889679,-46.5243911743,1.0,0.0,0.0,0.0,1.0,0.0,0.0,0.0,1.0,-1.43652099609,-4.34787021484,-9.83538041992,1.0,0.0,0.0,0.0,1.0,0.0,0.0,0.0,1.0
1463662772576350683,594,1463662772514592458,,12.5829114914,-3.83176112175,-126.07572937,0.00987400021404,1.0,0.0,0.0,0.0,1.0,0.0,0.0,0.0,1.0,-160.365859985,-23.658536911,-51.0365867615,1.0,0.0,0.0,0.0,1.0,0.0,0.0,0.0,1.0,-1.44130939941,-4.2329482429,-9.67736311035,1.0,0.0,0.0,0.0,1.0,0.0,0.0,0.0,1.0
1463662772577176902,595,1463662772524631213,,10.945192337,-3.95628285408,-126.660552979,0.0101479999721,1.0,0.0,0.0,0.0,1.0,0.0,0.0,0.0,1.0,-168.475616455,-22.7439041138,-56.0365867615,1.0,0.0,0.0,0.0,1.0,0.0,0.0,0.0,1.0,-1.60890351563,-3.89776030273,-9.70609353027,1.0,0.0,0.0,0.0,1.0,0.0,0.0,0.0,1.0
1463662772577555552,596,1463662772534550209,,9.23487472534,-4.09545850754,-127.284286499,0.0100940000266,1.0,0.0,0.0,0.0,1.0,0.0,0.0,0.0,1.0,-174.634155273,-21.5853652954,-60.8536643982,1.0,0.0,0.0,0.0,1.0,0.0,0.0,0.0,1.0,-1.89141931152,-3.05021291504,-9.46188437642,1.0,0.0,0.0,0.0,1.0,0.0,0.0,0.0,1.0
1463662772670906930,597,1463662772545294487,,7.44607019424,-4.22338867188,-127.953788757,0.0101150004193,1.0,0.0,0.0,0.0,1.0,0.0,0.0,0.0,1.0,-178.597564697,-20.1219520569,-65.9756088257,1.0,0.0,0.0,0.0,1.0,0.0,0.0,0.0,1.0,-1.78607443848,-2.09732050817,-9.79228479004,1.0,0.0,0.0,0.0,1.0,0.0,0.0,0.0,1.0
1463662772670964490,598,1463662772554552498,,5.6527132988,-4.35815572739,-128.656005859,0.0100849997252,1.0,0.0,0.0,0.0,1.0,0.0,0.0,0.0,1.0,-179.329269409,-18.1097564697,-69.9390258789,1.0,0.0,0.0,0.0,1.0,0.0,0.0,0.0,1.0,-2.00634099121,-1.66636435547,-9.8305920166,1.0,0.0,0.0,0.0,1.0,0.0,0.0,0.0,1.0
1463662772671585470,599,1463662772564483997,,3.88014864922,-4.47941255569,-129.390045166,0.0100919995457,1.0,0.0,0.0,0.0,1.0,0.0,0.0,0.0,1.0,-177.682937622,-15.1219511032,-73.4756088257,1.0,0.0,0.0,0.0,1.0,0.0,0.0,0.0,1.0,-1.99197578125,-1.38384855957,-9.89284125977,1.0,0.0,0.0,0.0,1.0,0.0,0.0,0.0,1.0
1463662772672100495,600,1463662772574656417,,2.12935805321,-4.59951925278,-130.134811401,0.0101070003584,1.0,0.0,0.0,0.0,1.0,0.0,0.0,0.0,1.0,-176.524398804,-12.8658542633,-74.634147644,1.0,0.0,0.0,0.0,1.0,0.0,0.0,0.0,1.0,-1.98239897461,-1.24498486328,-9.79228479004,1.0,0.0,0.0,0.0,1.0,0.0,0.0,0.0,1.0
1463662772672498211,601,1463662772584879262,,0.34734994173,-4.69651412964,-130.86781311,0.0100910002366,1.0,0.0,0.0,0.0,1.0,0.0,0.0,0.0,1.0,-177.256103516,-9.93902492523,-74.0243911743,1.0,0.0,0.0,0.0,1.0,0.0,0.0,0.0,1.0,-1.68072956543,-0.45489831543,-9.66778688823,1.0,0.0,0.0,0.0,1.0,0.0,0.0,0.0,1.0
1463662772672629846,602,1463662772595015479,,-1.41491532326,-4.79895830154,-131.595230103,0.0100880004466,1.0,0.0,0.0,0.0,1.0,0.0,0.0,0.0,1.0,-174.451217651,-8.04878044128,-73.7195129395,1.0,0.0,0.0,0.0,1.0,0.0,0.0,0.0,1.0,-1.79565124512,0.0191536132812,-10.0317049561,1.0,0.0,0.0,0.0,1.0,0.0,0.0,0.0,1.0
1463662772672678760,603,1463662772605125598,,-3.14788103104,-4.8910908699,-132.315856934,0.0101389996707,1.0,0.0,0.0,0.0,1.0,0.0,0.0,0.0,1.0,-170.975616455,-6.09756088257,-72.7439041138,1.0,0.0,0.0,0.0,1.0,0.0,0.0,0.0,1.0,-1.5562310791,0.277727392578,-9.85932243652,1.0,0.0,0.0,0.0,1.0,0.0,0.0,0.0,1.0
1463662772672717515,604,1463662772615219360,,-4.83370828629,-4.98705291748,-133.035339355,0.0101220002398,1.0,0.0,0.0,0.0,1.0,0.0,0.0,0.0,1.0,-166.829269409,-3.59756112099,-72.7439041138,1.0,0.0,0.0,0.0,1.0,0.0,0.0,0.0,1.0,-1.74776721191,0.569819995117,-10.0556469727,1.0,0.0,0.0,0.0,1.0,0.0,0.0,0.0,1.0
1463662772676974460,605,1463662772625326875,,-6.47414255142,-5.08072042465,-133.746688843,0.010048000142,1.0,0.0,0.0,0.0,1.0,0.0,0.0,0.0,1.0,-161.646347046,-2.07317066193,-72.6219558716,1.0,0.0,0.0,0.0,1.0,0.0,0.0,0.0,1.0,-1.61848032227,1.20667770978,-9.86411083984,1.0,0.0,0.0,0.0,1.0,0.0,0.0,0.0,1.0
1463662772677312063,606,1463662772635582277,,-8.05418586731,-5.17324876785,-134.473342896,0.0101539995521,1.0,0.0,0.0,0.0,1.0,0.0,0.0,0.0,1.0,-155.792694092,0.243902444839,-73.1097564697,1.0,0.0,0.0,0.0,1.0,0.0,0.0,0.0,1.0,-1.64721074219,1.20667770978,-9.88805285645,1.0,0.0,0.0,0.0,1.0,0.0,0.0,0.0,1.0
1463662772677589136,607,1463662772645710315,,-9.51051044464,-5.33876228333,-135.209289551,0.0100779999048,1.0,0.0,0.0,0.0,1.0,0.0,0.0,0.0,1.0,-142.926834106,2.13414645195,-74.6951217651,1.0,0.0,0.0,0.0,1.0,0.0,0.0,0.0,1.0,-2.54264216309,1.5801730957,-8.34139799946,1.0,0.0,0.0,0.0,1.0,0.0,0.0,0.0,1.0
1463662772678512765,608,1463662772655469705,,-11.0060567856,-5.45147848129,-135.906265259,0.0100729996338,1.0,0.0,0.0,0.0,1.0,0.0,0.0,0.0,1.0,-149.146347046,2.5,-70.6097564697,1.0,0.0,0.0,0.0,1.0,0.0,0.0,0.0,1.0,-1.8148048584,1.6041151123,-9.47146118306,1.0,0.0,0.0,0.0,1.0,0.0,0.0,0.0,1.0
1463662774105088278,609,1463662772666336605,,-12.4987459183,-5.55218791962,-136.586807251,0.0103230001405,1.0,0.0,0.0,0.0,1.0,0.0,0.0,0.0,1.0,-144.695129395,4.87804889679,-67.0121994019,1.0,0.0,0.0,0.0,1.0,0.0,0.0,0.0,1.0,-1.82917006836,1.94409174805,-9.53849999858,1.0,0.0,0.0,0.0,1.0,0.0,0.0,0.0,1.0
1463662774105330294,610,1463662772675667388,,-13.8799448013,-5.63036727905,-137.228225708,0.00989700015634,1.0,0.0,0.0,0.0,1.0,0.0,0.0,0.0,1.0,-139.634155273,7.01219511032,-65.4878082275,1.0,0.0,0.0,0.0,1.0,0.0,0.0,0.0,1.0,-1.70467158203,2.26012636719,-9.76834277344,1.0,0.0,0.0,0.0,1.0,0.0,0.0,0.0,1.0
1463662774105594657,611,1463662772685955398,,-15.2400636673,-5.69893741608,-137.865188599,0.0102019999176,1.0,0.0,0.0,0.0,1.0,0.0,0.0,0.0,1.0,-132.926834106,7.74390268326,-62.9878044128,1.0,0.0,0.0,0.0,1.0,0.0,0.0,0.0,1.0,-1.49398183594,2.59531459961,-9.86889924316,1.0,0.0,0.0,0.0,1.0,0.0,0.0,0.0,1.0
1463662774106340811,612,1463662772696378586,,-16.6045627594,-5.79109382629,-138.470901489,0.00999100040644,1.0,0.0,0.0,0.0,1.0,0.0,0.0,0.0,1.0,-124.573181152,8.23170757294,-62.317073822,1.0,0.0,0.0,0.0,1.0,0.0,0.0,0.0,1.0,-2.09732050817,5.61200869141,-10.5153336914,1.0,0.0,0.0,0.0,1.0,0.0,0.0,0.0,1.0
1463662774107118532,613,1463662772705866007,,-17.783952713,-5.90170288086,-139.072250366,0.0101020000875,1.0,0.0,0.0,0.0,1.0,0.0,0.0,0.0,1.0,-117.073173523,8.84146404266,-59.8170700073,1.0,0.0,0.0,0.0,1.0,0.0,0.0,0.0,1.0,-2.19787712402,2.98317526855,-9.99339772949,1.0,0.0,0.0,0.0,1.0,0.0,0.0,0.0,1.0
1463662774107518072,614,1463662772716457917,,-18.9020633698,-5.85585021973,-139.680450439,0.0101859997958,1.0,0.0,0.0,0.0,1.0,0.0,0.0,0.0,1.0,-107.012191772,11.2804880142,-59.5121994019,1.0,0.0,0.0,0.0,1.0,0.0,0.0,0.0,1.0,0.339976635742,2.88261879883,-7.51300480957,1.0,0.0,0.0,0.0,1.0,0.0,0.0,0.0,1.0
1463662774108190986,615,1463662772726918037,,-19.9312171936,-5.90741062164,-140.241531372,0.0101039996371,1.0,0.0,0.0,0.0,1.0,0.0,0.0,0.0,1.0,-98.7195129395,10.1829271317,-55.6707344055,1.0,0.0,0.0,0.0,1.0,0.0,0.0,0.0,1.0,-1.2497732666,4.18506420969,-10.3190091553,1.0,0.0,0.0,0.0,1.0,0.0,0.0,0.0,1.0
1463662774110116589,616,1463662772736512975,,-20.832818985,-5.95199537277,-140.772125244,0.00999800022691,1.0,0.0,0.0,0.0,1.0,0.0,0.0,0.0,1.0,-88.3536605835,12.0121955872,-52.317073822,1.0,0.0,0.0,0.0,1.0,0.0,0.0,0.0,1.0,-1.4604630127,3.92649072266,-9.94072529297,1.0,0.0,0.0,0.0,1.0,0.0,0.0,0.0,1.0
1463662774111597385,617,1463662772746630803,,-21.5079555511,-5.9673409462,-141.296020508,0.0101349996403,1.0,0.0,0.0,0.0,1.0,0.0,0.0,0.0,1.0,-70.0609741211,12.0731716156,-50.2439041138,1.0,0.0,0.0,0.0,1.0,0.0,0.0,0.0,1.0,-1.01035310059,3.42370837402,-11.2383825928,1.0,0.0,0.0,0.0,1.0,0.0,0.0,0.0,1.0
1463662774112320255,618,1463662772756415665,,-22.1652584076,-6.00703287125,-141.763198853,0.0101070003584,1.0,0.0,0.0,0.0,1.0,0.0,0.0,0.0,1.0,-63.7195167542,11.4634151459,-45.182926178,1.0,0.0,0.0,0.0,1.0,0.0,0.0,0.0,1.0,-1.47003981934,3.84508786621,-9.55286520855,1.0,0.0,0.0,0.0,1.0,0.0,0.0,0.0,1.0
1463662774113200283,619,1463662772766666170,,-22.6736030579,-6.01588964462,-142.203399658,0.0100600002334,1.0,0.0,0.0,0.0,1.0,0.0,0.0,0.0,1.0,-51.4634170532,12.3780488968,-41.8902435303,1.0,0.0,0.0,0.0,1.0,0.0,0.0,0.0,1.0,-1.31202250977,3.80678063965,-10.4387192383,1.0,0.0,0.0,0.0,1.0,0.0,0.0,0.0,1.0
1463662774113916068,620,1463662772776767799,,-23.0736885071,-6.01296806335,-142.58770752,0.0100929997861,1.0,0.0,0.0,0.0,1.0,0.0,0.0,0.0,1.0,-39.817073822,12.5609760284,-35.7317085266,1.0,0.0,0.0,0.0,1.0,0.0,0.0,0.0,1.0,-1.4844050293,3.82593425293,-10.1226846191,1.0,0.0,0.0,0.0,1.0,0.0,0.0,0.0,1.0
1463662774114364313,621,1463662772787236045,,-23.399887085,-5.96557235718,-142.917984009,0.010108999908,1.0,0.0,0.0,0.0,1.0,0.0,0.0,0.0,1.0,-29.3292694092,13.4146347046,-29.8170719147,1.0,0.0,0.0,0.0,1.0,0.0,0.0,0.0,1.0,-1.23540805664,4.51067592773,-10.2759135254,1.0,0.0,0.0,0.0,1.0,0.0,0.0,0.0,1.0
1463662774114676339,622,1463662772796960168,,-23.6204872131,-5.89368200302,-143.194747925,0.0101370001212,1.0,0.0,0.0,0.0,1.0,0.0,0.0,0.0,1.0,-19.2073173523,13.658536911,-23.7804889679,1.0,0.0,0.0,0.0,1.0,0.0,0.0,0.0,1.0,-1.20667770978,4.26646765066,-10.0364933594,1.0,0.0,0.0,0.0,1.0,0.0,0.0,0.0,1.0
1463662774115094267,623,1463662772807953858,,-23.7335166931,-5.79915475845,-143.412338257,0.0101899998263,1.0,0.0,0.0,0.0,1.0,0.0,0.0,0.0,1.0,-8.65853691101,13.9024391174,-17.134147644,1.0,0.0,0.0,0.0,1.0,0.0,0.0,0.0,1.0,-1.2976572998,4.10845004883,-9.93593688965,1.0,0.0,0.0,0.0,1.0,0.0,0.0,0.0,1.0
1463662774115399573,624,1463662772817495819,,-23.7592430115,-5.68256139755,-143.590591431,0.00998099986464,1.0,0.0,0.0,0.0,1.0,0.0,0.0,0.0,1.0,-0.426829278469,14.8170728683,-12.8658542633,1.0,0.0,0.0,0.0,1.0,0.0,0.0,0.0,1.0,-1.29286889648,3.97437475586,-9.89284125977,1.0,0.0,0.0,0.0,1.0,0.0,0.0,0.0,1.0
1463662774115681647,625,1463662772827733145,,-23.7131233215,-5.55954837799,-143.727935791,0.0101100001484,1.0,0.0,0.0,0.0,1.0,0.0,0.0,0.0,1.0,7.56097555161,14.8170728683,-8.29268264771,1.0,0.0,0.0,0.0,1.0,0.0,0.0,0.0,1.0,-1.51313544922,3.99831677246,-9.74440075684,1.0,0.0,0.0,0.0,1.0,0.0,0.0,0.0,1.0
1463662774120020167,626,1463662772837433150,,-23.6071491241,-5.39435625076,-143.829208374,0.0100940000266,1.0,0.0,0.0,0.0,1.0,0.0,0.0,0.0,1.0,13.7195129395,16.0975608826,-3.90243911743,1.0,0.0,0.0,0.0,1.0,0.0,0.0,0.0,1.0,-1.23540805664,3.90254870605,-9.60553764507,1.0,0.0,0.0,0.0,1.0,0.0,0.0,0.0,1.0
1463662774120719074,627,1463662772847165660,,-23.4400348663,-5.21325445175,-143.895690918,0.0101640000939,1.0,0.0,0.0,0.0,1.0,0.0,0.0,0.0,1.0,18.5365848541,16.158536911,-0.0,1.0,0.0,0.0,0.0,1.0,0.0,0.0,0.0,1.0,-1.23061965332,3.6056677002,-9.64863327495,1.0,0.0,0.0,0.0,1.0,0.0,0.0,0.0,1.0
1463662774121723392,628,1463662772857721211,,-23.2362976074,-5.008664608,-143.929443359,0.0101910000667,1.0,0.0,0.0,0.0,1.0,0.0,0.0,0.0,1.0,22.9878044128,16.4634151459,3.47560977936,1.0,0.0,0.0,0.0,1.0,0.0,0.0,0.0,1.0,-1.07260241682,3.61524450684,-9.45230756977,1.0,0.0,0.0,0.0,1.0,0.0,0.0,0.0,1.0
1463662774122544818,629,1463662772867820496,,-22.9998779297,-4.80274868011,-143.933258057,0.00999400019646,1.0,0.0,0.0,0.0,1.0,0.0,0.0,0.0,1.0,27.1951236725,17.1951217651,6.82926845551,1.0,0.0,0.0,0.0,1.0,0.0,0.0,0.0,1.0,-1.28329208984,3.57214887695,-9.30386706685,1.0,0.0,0.0,0.0,1.0,0.0,0.0,0.0,1.0
1463662774124125786,630,1463662772879816629,,-22.7032871246,-4.58220100403,-143.913467407,0.0100899999961,1.0,0.0,0.0,0.0,1.0,0.0,0.0,0.0,1.0,31.5243930817,17.3780498505,9.45121955872,1.0,0.0,0.0,0.0,1.0,0.0,0.0,0.0,1.0,-1.21625444336,3.21780703125,-9.27992563477,1.0,0.0,0.0,0.0,1.0,0.0,0.0,0.0,1.0
1463662774124998001,631,1463662772888140385,,-22.3916816711,-4.35864400864,-143.874359131,0.0101330000907,1.0,0.0,0.0,0.0,1.0,0.0,0.0,0.0,1.0,33.8414649963,17.5609760284,11.341463089,1.0,0.0,0.0,0.0,1.0,0.0,0.0,0.0,1.0,-1.2976572998,3.30399829102,-9.24640681152,1.0,0.0,0.0,0.0,1.0,0.0,0.0,0.0,1.0
1463662774125282471,632,1463662772898507626,,-22.0270309448,-4.14006900787,-143.8306427,0.010053999722,1.0,0.0,0.0,0.0,1.0,0.0,0.0,0.0,1.0,38.0487823486,17.317073822,11.7073173523,1.0,0.0,0.0,0.0,1.0,0.0,0.0,0.0,1.0,-1.32638771973,3.10767375488,-9.57201882183,1.0,0.0,0.0,0.0,1.0,0.0,0.0,0.0,1.0
1463662774125574911,633,1463662772908142101,,-21.6194648743,-3.91987991333,-143.790527344,0.0101009998471,1.0,0.0,0.0,0.0,1.0,0.0,0.0,0.0,1.0,41.7073173523,17.0731716156,11.0365858078,1.0,0.0,0.0,0.0,1.0,0.0,0.0,0.0,1.0,-1.15879360352,2.91613762207,-9.39963513325,1.0,0.0,0.0,0.0,1.0,0.0,0.0,0.0,1.0
1463662774125822605,634,1463662772919096462,,-21.1962146759,-3.70181179047,-143.749404907,0.0102129997686,1.0,0.0,0.0,0.0,1.0,0.0,0.0,0.0,1.0,45.0609779358,16.6463413239,10.548781395,1.0,0.0,0.0,0.0,1.0,0.0,0.0,0.0,1.0,-1.11569797363,3.29442148437,-9.48582756206,1.0,0.0,0.0,0.0,1.0,0.0,0.0,0.0,1.0
1463662774126098323,635,1463662772928180332,,-20.729139328,-3.50811433792,-143.711074829,0.0100260004401,1.0,0.0,0.0,0.0,1.0,0.0,0.0,0.0,1.0,50.182926178,15.3658533096,9.63414573669,1.0,0.0,0.0,0.0,1.0,0.0,0.0,0.0,1.0,-1.16358193377,3.22738383789,-9.5193463853,1.0,0.0,0.0,0.0,1.0,0.0,0.0,0.0,1.0
1463662774126361644,636,1463662772938198094,,-20.2216777802,-3.32595896721,-143.684341431,0.0100299995393,1.0,0.0,0.0,0.0,1.0,0.0,0.0,0.0,1.0,55.2439041138,15.0000009537,7.98780536652,1.0,0.0,0.0,0.0,1.0,0.0,0.0,0.0,1.0,-1.17315874041,3.36145913086,-9.53849999858,1.0,0.0,0.0,0.0,1.0,0.0,0.0,0.0,1.0
1463662774126634394,637,1463662772948531372,,-19.648891449,-3.15078306198,-143.661468506,0.0101079996675,1.0,0.0,0.0,0.0,1.0,0.0,0.0,0.0,1.0,62.682926178,14.8170728683,7.19512224197,1.0,0.0,0.0,0.0,1.0,0.0,0.0,0.0,1.0,-1.20667770978,3.51468803711,-9.49061596538,1.0,0.0,0.0,0.0,1.0,0.0,0.0,0.0,1.0
1463662774126874951,638,1463662772958415676,,-18.9942932129,-2.97028636932,-143.628982544,0.0100969998166,1.0,0.0,0.0,0.0,1.0,0.0,0.0,0.0,1.0,70.5487823486,14.1463422775,7.74390268326,1.0,0.0,0.0,0.0,1.0,0.0,0.0,0.0,1.0,-1.01035310059,3.42849677734,-9.73961235352,1.0,0.0,0.0,0.0,1.0,0.0,0.0,0.0,1.0
1463662774128124410,639,1463662772968768071,,-18.2390766144,-2.78130412102,-143.572494507,0.0102089997381,1.0,0.0,0.0,0.0,1.0,0.0,0.0,0.0,1.0,77.6219558716,13.5365858078,9.81707286835,1.0,0.0,0.0,0.0,1.0,0.0,0.0,0.0,1.0,-0.857124194336,2.89698400879,-9.76834277344,1.0,0.0,0.0,0.0,1.0,0.0,0.0,0.0,1.0
1463662774128400493,640,1463662772978761402,,-17.4357948303,-2.58694267273,-143.486495972,0.00999100040644,1.0,0.0,0.0,0.0,1.0,0.0,0.0,0.0,1.0,81.9512176514,12.6829271317,12.5609760284,1.0,0.0,0.0,0.0,1.0,0.0,0.0,0.0,1.0,-0.636857641602,2.35589428746,-9.81143840332,1.0,0.0,0.0,0.0,1.0,0.0,0.0,0.0,1.0
1463662774129821177,641,1463662772989836979,,-16.6005020142,-2.39897251129,-143.352890015,0.0101810004562,1.0,0.0,0.0,0.0,1.0,0.0,0.0,0.0,1.0,84.1463394165,11.7682924271,16.6463413239,1.0,0.0,0.0,0.0,1.0,0.0,0.0,0.0,1.0,-0.818816967773,2.29364519043,-9.87368764648,1.0,0.0,0.0,0.0,1.0,0.0,0.0,0.0,1.0
1463662774132407088,642,1463662772999638250,,-15.7520828247,-2.2141726017,-143.186279297,0.0100429998711,1.0,0.0,0.0,0.0,1.0,0.0,0.0,0.0,1.0,85.8536605835,10.9146347046,19.6951236725,1.0,0.0,0.0,0.0,1.0,0.0,0.0,0.0,1.0,-0.77093293457,2.01591779785,-9.99818613281,1.0,0.0,0.0,0.0,1.0,0.0,0.0,0.0,1.0
1463662774133049789,643,1463662773009602253,,-14.9047060013,-2.03833723068,-142.97833252,0.0100800003856,1.0,0.0,0.0,0.0,1.0,0.0,0.0,0.0,1.0,85.8536605835,10.4878053665,23.4146347046,1.0,0.0,0.0,0.0,1.0,0.0,0.0,0.0,1.0,-0.962469067383,1.90578452148,-9.93593688965,1.0,0.0,0.0,0.0,1.0,0.0,0.0,0.0,1.0
1463662774133500117,644,1463662773019081600,,-14.0497674942,-1.8601757288,-142.728759766,0.0100959995762,1.0,0.0,0.0,0.0,1.0,0.0,0.0,0.0,1.0,85.7926864624,10.4878053665,27.317073822,1.0,0.0,0.0,0.0,1.0,0.0,0.0,0.0,1.0,-1.00556469727,1.60890351563,-9.89762966309,1.0,0.0,0.0,0.0,1.0,0.0,0.0,0.0,1.0
1463662774133888770,645,1463662773029486868,,-13.1868076324,-1.67320132256,-142.435501099,0.0101159997284,1.0,0.0,0.0,0.0,1.0,0.0,0.0,0.0,1.0,84.7561035156,11.2195119858,31.5853652954,1.0,0.0,0.0,0.0,1.0,0.0,0.0,0.0,1.0,-1.02950671387,1.11569797363,-9.63426806499,1.0,0.0,0.0,0.0,1.0,0.0,0.0,0.0,1.0
1463662774134184127,646,1463662773039659237,,-12.333398819,-1.45924150944,-142.09614563,0.0101359998807,1.0,0.0,0.0,0.0,1.0,0.0,0.0,0.0,1.0,78.9024429321,11.7073173523,36.0365867615,1.0,0.0,0.0,0.0,1.0,0.0,0.0,0.0,1.0,-0.713472094727,0.143652099609,-9.66299848491,1.0,0.0,0.0,0.0,1.0,0.0,0.0,0.0,1.0
1463662774134475056,647,1463662773049869475,,-11.5606651306,-1.24402523041,-141.713882446,0.0101770004258,1.0,0.0,0.0,0.0,1.0,0.0,0.0,0.0,1.0,71.8292694092,11.0975618362,39.634147644,1.0,0.0,0.0,0.0,1.0,0.0,0.0,0.0,1.0,-0.61770402832,0.215478149414,-9.69651672363,1.0,0.0,0.0,0.0,1.0,0.0,0.0,0.0,1.0
1463662774134757182,648,1463662773060243384,,-10.873632431,-1.048381567,-141.324371338,0.0101690003648,1.0,0.0,0.0,0.0,1.0,0.0,0.0,0.0,1.0,66.0975646973,9.63414573669,39.6951217651,1.0,0.0,0.0,0.0,1.0,0.0,0.0,0.0,1.0,-0.579396801758,0.560243188477,-9.61032604839,1.0,0.0,0.0,0.0,1.0,0.0,0.0,0.0,1.0
1463662774135702377,649,1463662773069972769,,-10.2404499054,-0.885951578617,-140.958099365,0.00993799977005,1.0,0.0,0.0,0.0,1.0,0.0,0.0,0.0,1.0,62.6219520569,8.23170757294,37.682926178,1.0,0.0,0.0,0.0,1.0,0.0,0.0,0.0,1.0,-0.665588061523,0.531512805087,-9.59117243511,1.0,0.0,0.0,0.0,1.0,0.0,0.0,0.0,1.0
1463662774136000703,650,1463662773080021160,,-9.61603736877,-0.760259270668,-140.615432739,0.0103700002655,1.0,0.0,0.0,0.0,1.0,0.0,0.0,0.0,1.0,60.4268302917,6.89024400711,33.3536605835,1.0,0.0,0.0,0.0,1.0,0.0,0.0,0.0,1.0,-0.981622680664,0.703895288086,-10.0364933594,1.0,0.0,0.0,0.0,1.0,0.0,0.0,0.0,1.0
1463662774136286267,651,1463662773090228013,,-9.02603435516,-0.663289368153,-140.3253479,0.00996499974281,1.0,0.0,0.0,0.0,1.0,0.0,0.0,0.0,1.0,59.5121994019,6.21951246262,29.0853672028,1.0,0.0,0.0,0.0,1.0,0.0,0.0,0.0,1.0,-1.08696755371,0.632069238281,-10.0843773926,1.0,0.0,0.0,0.0,1.0,0.0,0.0,0.0,1.0
1463662774136555422,652,1463662773100877901,,-8.42254638672,-0.576278984547,-140.075576782,0.00996499974281,1.0,0.0,0.0,0.0,1.0,0.0,0.0,0.0,1.0,58.1097564697,6.21951246262,24.8780498505,1.0,0.0,0.0,0.0,1.0,0.0,0.0,0.0,1.0,-1.10612116699,0.0478840332031,-10.3621047852,1.0,0.0,0.0,0.0,1.0,0.0,0.0,0.0,1.0
1463662774136837548,653,1463662773110289790,,-7.81414461136,-0.489762961864,-139.850662231,0.0100710000843,1.0,0.0,0.0,0.0,1.0,0.0,0.0,0.0,1.0,54.5731735229,6.28048801422,22.0121955872,1.0,0.0,0.0,0.0,1.0,0.0,0.0,0.0,1.0,-0.972045874023,-0.660799658203,-10.0269165527,1.0,0.0,0.0,0.0,1.0,0.0,0.0,0.0,1.0
1463662774137102327,654,1463662773119848836,,-7.27056407928,-0.39779278636,-139.661804199,0.0101009998471,1.0,0.0,0.0,0.0,1.0,0.0,0.0,0.0,1.0,47.3780517578,5.60975599289,18.1097564697,1.0,0.0,0.0,0.0,1.0,0.0,0.0,0.0,1.0,-0.612915625,-0.857124194336,-9.99818613281,1.0,0.0,0.0,0.0,1.0,0.0,0.0,0.0,1.0
1463662774137376952,655,1463662773130745897,,-6.80841493607,-0.323662191629,-139.518188477,0.0102880001068,1.0,0.0,0.0,0.0,1.0,0.0,0.0,0.0,1.0,40.4268302917,3.29268312454,12.9268293381,1.0,0.0,0.0,0.0,1.0,0.0,0.0,0.0,1.0,-0.387860668945,-0.593762048251,-10.1131078125,1.0,0.0,0.0,0.0,1.0,0.0,0.0,0.0,1.0
1463662774138317094,656,1463662773141004060,,-6.42379665375,-0.283747285604,-139.431716919,0.00993900001049,1.0,0.0,0.0,0.0,1.0,0.0,0.0,0.0,1.0,34.817073822,1.58536589146,7.37804937363,1.0,0.0,0.0,0.0,1.0,0.0,0.0,0.0,1.0,-0.512359155273,-0.560243188477,-10.1753570557,1.0,0.0,0.0,0.0,1.0,0.0,0.0,0.0,1.0
1463662774139938432,657,1463662773151293268,,-6.09777736664,-0.273486942053,-139.394790649,0.0101140001789,1.0,0.0,0.0,0.0,1.0,0.0,0.0,0.0,1.0,29.0853672028,-0.243902444839,2.07317066193,1.0,0.0,0.0,0.0,1.0,0.0,0.0,0.0,1.0,-0.60812722168,-0.493205541992,-10.2376062988,1.0,0.0,0.0,0.0,1.0,0.0,0.0,0.0,1.0
1463662774143692645,658,1463662773161250135,,-5.83380889893,-0.292257815599,-139.41293335,0.0101140001789,1.0,0.0,0.0,0.0,1.0,0.0,0.0,0.0,1.0,23.7195129395,-0.975609779358,-3.47560977936,1.0,0.0,0.0,0.0,1.0,0.0,0.0,0.0,1.0,-0.895431420898,-0.411802685547,-10.3285859619,1.0,0.0,0.0,0.0,1.0,0.0,0.0,0.0,1.0
1463662774144515060,659,1463662773170910343,,-5.61733293533,-0.316007554531,-139.474060059,0.0100600002334,1.0,0.0,0.0,0.0,1.0,0.0,0.0,0.0,1.0,19.2682914734,-1.34146344662,-7.80487823486,1.0,0.0,0.0,0.0,1.0,0.0,0.0,0.0,1.0,-0.837970581055,-0.426167895508,-10.2232410889,1.0,0.0,0.0,0.0,1.0,0.0,0.0,0.0,1.0
1463662774144811616,660,1463662773181806779,,-5.44650697708,-0.344231009483,-139.587432861,0.0101520000026,1.0,0.0,0.0,0.0,1.0,0.0,0.0,0.0,1.0,15.3658533096,-1.58536589146,-12.9268293381,1.0,0.0,0.0,0.0,1.0,0.0,0.0,0.0,1.0,-0.780509741211,-0.31124621582,-10.1274730225,1.0,0.0,0.0,0.0,1.0,0.0,0.0,0.0,1.0
1463662774145082073,661,1463662773192138181,,-5.31758403778,-0.374708771706,-139.737533569,0.0100710000843,1.0,0.0,0.0,0.0,1.0,0.0,0.0,0.0,1.0,12.7439022064,-3.23170733452,-16.8292694092,1.0,0.0,0.0,0.0,1.0,0.0,0.0,0.0,1.0,-0.478840332031,-0.0814028564453,-10.2184526855,1.0,0.0,0.0,0.0,1.0,0.0,0.0,0.0,1.0
1463662774145324037,662,1463662773201151573,,-5.2064204216,-0.406229972839,-139.927093506,0.0100859999657,1.0,0.0,0.0,0.0,1.0,0.0,0.0,0.0,1.0,10.548781395,-3.47560977936,-20.7317085266,1.0,0.0,0.0,0.0,1.0,0.0,0.0,0.0,1.0,-0.397437475586,-0.172382519531,-10.1753570557,1.0,0.0,0.0,0.0,1.0,0.0,0.0,0.0,1.0
1463662774145598974,663,1463662773212616480,,-5.12511205673,-0.468730896711,-140.145523071,0.0101129999384,1.0,0.0,0.0,0.0,1.0,0.0,0.0,0.0,1.0,8.23170757294,-4.87804889679,-23.658536911,1.0,0.0,0.0,0.0,1.0,0.0,0.0,0.0,1.0,-0.665588061523,-0.067037651051,-10.2615483154,1.0,0.0,0.0,0.0,1.0,0.0,0.0,0.0,1.0
1463662774145871359,664,1463662773222255851,,-5.07355594635,-0.52747553587,-140.388183594,0.0101169999689,1.0,0.0,0.0,0.0,1.0,0.0,0.0,0.0,1.0,6.40243911743,-4.81707286835,-26.0365848541,1.0,0.0,0.0,0.0,1.0,0.0,0.0,0.0,1.0,-0.584185168546,0.129286889648,-10.2280294922,1.0,0.0,0.0,0.0,1.0,0.0,0.0,0.0,1.0
1463662774146243707,665,1463662773231176051,,-5.02444076538,-0.593561649323,-140.638839722,0.0100990002975,1.0,0.0,0.0,0.0,1.0,0.0,0.0,0.0,1.0,6.64634132385,-5.06097555161,-26.8902454376,1.0,0.0,0.0,0.0,1.0,0.0,0.0,0.0,1.0,-0.670376464844,0.210689746094,-10.1609918457,1.0,0.0,0.0,0.0,1.0,0.0,0.0,0.0,1.0
1463662774147304961,666,1463662773241431713,,-4.9866065979,-0.661763250828,-140.900543213,0.0100689996034,1.0,0.0,0.0,0.0,1.0,0.0,0.0,0.0,1.0,6.34146356583,-4.93902444839,-28.0487804413,1.0,0.0,0.0,0.0,1.0,0.0,0.0,0.0,1.0,-0.742202514648,0.359130249023,-10.3190091553,1.0,0.0,0.0,0.0,1.0,0.0,0.0,0.0,1.0
1463662774147646366,667,1463662773252609649,,-4.93287277222,-0.726262032986,-141.168762207,0.0101389996707,1.0,0.0,0.0,0.0,1.0,0.0,0.0,0.0,1.0,7.62195110321,-4.63414621353,-28.475610733,1.0,0.0,0.0,0.0,1.0,0.0,0.0,0.0,1.0,-0.732625708008,0.31124621582,-10.3333743652,1.0,0.0,0.0,0.0,1.0,0.0,0.0,0.0,1.0
1463662774147953340,668,1463662773262080922,,-4.87525701523,-0.790494084358,-141.433746338,0.010095000267,1.0,0.0,0.0,0.0,1.0,0.0,0.0,0.0,1.0,7.25609779358,-4.39024400711,-28.2317066193,1.0,0.0,0.0,0.0,1.0,0.0,0.0,0.0,1.0,-0.790086547852,0.162805712891,-10.2376062988,1.0,0.0,0.0,0.0,1.0,0.0,0.0,0.0,1.0
1463662774148250520,669,1463662773272617512,,-4.823595047,-0.845118105412,-141.688491821,0.0100790001452,1.0,0.0,0.0,0.0,1.0,0.0,0.0,0.0,1.0,7.68292665482,-4.2682929039,-27.2560977936,1.0,0.0,0.0,0.0,1.0,0.0,0.0,0.0,1.0,-0.684741674805,0.344765039063,-10.4291424316,1.0,0.0,0.0,0.0,1.0,0.0,0.0,0.0,1.0
1463662774148540928,670,1463662773281759829,,-4.76577281952,-0.889115452766,-141.941680908,0.0101870000362,1.0,0.0,0.0,0.0,1.0,0.0,0.0,0.0,1.0,8.47560977936,-3.47560977936,-26.7682933807,1.0,0.0,0.0,0.0,1.0,0.0,0.0,0.0,1.0,-0.641646044922,0.378283862305,-10.3046439453,1.0,0.0,0.0,0.0,1.0,0.0,0.0,0.0,1.0
1463662774151133507,671,1463662773292753155,,-4.68942213058,-0.936105012894,-142.178848267,0.0100199999288,1.0,0.0,0.0,0.0,1.0,0.0,0.0,0.0,1.0,10.3048782349,-3.10975623131,-25.5487804413,1.0,0.0,0.0,0.0,1.0,0.0,0.0,0.0,1.0,-0.804451757813,0.344765039063,-10.2615483154,1.0,0.0,0.0,0.0,1.0,0.0,0.0,0.0,1.0
1463662774153585648,672,1463662773304607547,,-4.60707807541,-0.967137217522,-142.399795532,0.0100849997252,1.0,0.0,0.0,0.0,1.0,0.0,0.0,0.0,1.0,11.1585359573,-2.25609779358,-23.7195129395,1.0,0.0,0.0,0.0,1.0,0.0,0.0,0.0,1.0,-0.703895288086,0.383072265625,-10.2136642822,1.0,0.0,0.0,0.0,1.0,0.0,0.0,0.0,1.0
1463662774154273981,673,1463662773313330947,,-4.51532554626,-0.993176341057,-142.608581543,0.0102049997076,1.0,0.0,0.0,0.0,1.0,0.0,0.0,0.0,1.0,12.3170728683,-1.95121955872,-22.2560977936,1.0,0.0,0.0,0.0,1.0,0.0,0.0,0.0,1.0,-0.689530078125,0.421379492187,-10.1083194092,1.0,0.0,0.0,0.0,1.0,0.0,0.0,0.0,1.0
1463662774154577204,674,1463662773322023456,,-4.40150928497,-1.0177462101,-142.805374146,0.0100830001757,1.0,0.0,0.0,0.0,1.0,0.0,0.0,0.0,1.0,13.5975618362,-1.76829278469,-21.2804889679,1.0,0.0,0.0,0.0,1.0,0.0,0.0,0.0,1.0,-0.737414111328,0.225054956055,-10.2711251221,1.0,0.0,0.0,0.0,1.0,0.0,0.0,0.0,1.0
1463662774154900950,675,1463662773332866290,,-4.28260946274,-1.02850568295,-142.985565186,0.0100410003215,1.0,0.0,0.0,0.0,1.0,0.0,0.0,0.0,1.0,14.3902444839,-0.670731723309,-19.6341457367,1.0,0.0,0.0,0.0,1.0,0.0,0.0,0.0,1.0,-0.723048901367,0.244208569336,-10.2807019287,1.0,0.0,0.0,0.0,1.0,0.0,0.0,0.0,1.0
1463662774155193703,676,1463662773343226343,,-4.14900684357,-1.02893328667,-143.165008545,0.0103660002351,1.0,0.0,0.0,0.0,1.0,0.0,0.0,0.0,1.0,15.3658533096,-0.12195122242,-18.9634151459,1.0,0.0,0.0,0.0,1.0,0.0,0.0,0.0,1.0,-0.660799658203,0.210689746094,-10.405200415,1.0,0.0,0.0,0.0,1.0,0.0,0.0,0.0,1.0
1463662774155617673,677,1463662773352794245,,-4.01278114319,-1.02753639221,-143.330291748,0.00987199973315,1.0,0.0,0.0,0.0,1.0,0.0,0.0,0.0,1.0,16.0975608826,0.487804889679,-18.3536586761,1.0,0.0,0.0,0.0,1.0,0.0,0.0,0.0,1.0,-0.76614453125,0.15322890625,-10.5632177246,1.0,0.0,0.0,0.0,1.0,0.0,0.0,0.0,1.0
1463662774155911832,678,1463662773363202795,,-3.85314869881,-1.0173728466,-143.501800537,0.0100819999352,1.0,0.0,0.0,0.0,1.0,0.0,0.0,0.0,1.0,16.8292694092,0.609756112099,-18.5975627899,1.0,0.0,0.0,0.0,1.0,0.0,0.0,0.0,1.0,-0.632069238281,-0.114921679688,-10.5823713379,1.0,0.0,0.0,0.0,1.0,0.0,0.0,0.0,1.0
1463662774157027678,679,1463662773373179196,,-3.70317149162,-1.00657486916,-143.666946411,0.0100849997252,1.0,0.0,0.0,0.0,1.0,0.0,0.0,0.0,1.0,16.5243911743,0.609756112099,-17.9878044128,1.0,0.0,0.0,0.0,1.0,0.0,0.0,0.0,1.0,-0.632069238281,-0.0239420166016,-10.539275708,1.0,0.0,0.0,0.0,1.0,0.0,0.0,0.0,1.0
1463662774157384086,680,1463662773383796892,,-3.54460787773,-0.991173684597,-143.836578369,0.0101429997012,1.0,0.0,0.0,0.0,1.0,0.0,0.0,0.0,1.0,16.341463089,0.243902444839,-18.3536586761,1.0,0.0,0.0,0.0,1.0,0.0,0.0,0.0,1.0,-0.488417138672,-0.229843359375,-10.673351001,1.0,0.0,0.0,0.0,1.0,0.0,0.0,0.0,1.0
1463662774158249112,681,1463662773393961603,,-3.39179587364,-0.980165660381,-144.002166748,0.0100339995697,1.0,0.0,0.0,0.0,1.0,0.0,0.0,0.0,1.0,14.6951217651,0.365853667259,-18.1097564697,1.0,0.0,0.0,0.0,1.0,0.0,0.0,0.0,1.0,-0.588973571866,-0.488417138672,-10.4866032715,1.0,0.0,0.0,0.0,1.0,0.0,0.0,0.0,1.0
1463662774158541969,682,1463662773403381357,,-3.26171064377,-0.974657475948,-144.173446655,0.010095000267,1.0,0.0,0.0,0.0,1.0,0.0,0.0,0.0,1.0,12.5609760284,0.18292683363,-18.5975627899,1.0,0.0,0.0,0.0,1.0,0.0,0.0,0.0,1.0,-0.660799658203,-0.478840332031,-10.5344873047,1.0,0.0,0.0,0.0,1.0,0.0,0.0,0.0,1.0
1463662774160849556,683,1463662773413652178,,-3.14516949654,-0.973277390003,-144.350158691,0.010274999775,1.0,0.0,0.0,0.0,1.0,0.0,0.0,0.0,1.0,10.3048782349,-0.12195122242,-18.841463089,1.0,0.0,0.0,0.0,1.0,0.0,0.0,0.0,1.0,-0.679953271484,-0.632069238281,-10.4674496582,1.0,0.0,0.0,0.0,1.0,0.0,0.0,0.0,1.0
1463662774163026812,684,1463662773423963369,,-3.06181931496,-0.968655765057,-144.535064697,0.0100290002301,1.0,0.0,0.0,0.0,1.0,0.0,0.0,0.0,1.0,7.37804937363,-0.853658556938,-20.1219520569,1.0,0.0,0.0,0.0,1.0,0.0,0.0,0.0,1.0,-0.478840332031,-0.632069238281,-10.524910498,1.0,0.0,0.0,0.0,1.0,0.0,0.0,0.0,1.0
1463662774164526413,685,1463662773434566063,,-2.99370741844,-0.978167772293,-144.730148315,0.0100170001388,1.0,0.0,0.0,0.0,1.0,0.0,0.0,0.0,1.0,4.2682929039,-1.34146344662,-21.158536911,1.0,0.0,0.0,0.0,1.0,0.0,0.0,0.0,1.0,-0.636857641602,-0.933738647461,-10.3860468018,1.0,0.0,0.0,0.0,1.0,0.0,0.0,0.0,1.0
1463662774165436759,686,1463662773444544443,,-2.96753573418,-0.990860939026,-144.945953369,0.010158999823,1.0,0.0,0.0,0.0,1.0,0.0,0.0,0.0,1.0,0.0609756112099,-1.46341466904,-22.9268302917,1.0,0.0,0.0,0.0,1.0,0.0,0.0,0.0,1.0,-0.665588061523,-0.948103857422,-10.5153336914,1.0,0.0,0.0,0.0,1.0,0.0,0.0,0.0,1.0
1463662774165785301,687,1463662773453882571,,-2.98035621643,-1.01185536385,-145.177612305,0.0100469999015,1.0,0.0,0.0,0.0,1.0,0.0,0.0,0.0,1.0,-2.80487799644,-1.58536589146,-24.7560977936,1.0,0.0,0.0,0.0,1.0,0.0,0.0,0.0,1.0,-0.780509741211,-0.756567724609,-10.4626612549,1.0,0.0,0.0,0.0,1.0,0.0,0.0,0.0,1.0
1463662774166073782,688,1463662773464314874,,-3.0313334465,-1.03021132946,-145.43510437,0.0101250000298,1.0,0.0,0.0,0.0,1.0,0.0,0.0,0.0,1.0,-5.97560977936,-1.64634156227,-27.1341457367,1.0,0.0,0.0,0.0,1.0,0.0,0.0,0.0,1.0,-0.699106884766,-0.636857641602,-10.5153336914,1.0,0.0,0.0,0.0,1.0,0.0,0.0,0.0,1.0
1463662774166507233,689,1463662773474605854,,-3.08741474152,-1.04720890522,-145.714782715,0.0100999996066,1.0,0.0,0.0,0.0,1.0,0.0,0.0,0.0,1.0,-7.92682981491,-1.15853655338,-29.3292694092,1.0,0.0,0.0,0.0,1.0,0.0,0.0,0.0,1.0,-0.737414111328,-0.881066210937,-10.4291424316,1.0,0.0,0.0,0.0,1.0,0.0,0.0,0.0,1.0
1463662774166786963,690,1463662773485330650,,-3.1779460907,-1.06693911552,-146.015930176,0.0100840004161,1.0,0.0,0.0,0.0,1.0,0.0,0.0,0.0,1.0,-11.1585359573,-0.609756112099,-31.4634151459,1.0,0.0,0.0,0.0,1.0,0.0,0.0,0.0,1.0,-0.861912597656,-0.823605371094,-10.3956236084,1.0,0.0,0.0,0.0,1.0,0.0,0.0,0.0,1.0
1463662774167065859,691,1463662773495153538,,-3.29393696785,-1.08248102665,-146.341079712,0.0101100001484,1.0,0.0,0.0,0.0,1.0,0.0,0.0,0.0,1.0,-12.4390249252,-0.792682945728,-33.7804870605,1.0,0.0,0.0,0.0,1.0,0.0,0.0,0.0,1.0,-0.737414111328,-0.584185168546,-10.658985791,1.0,0.0,0.0,0.0,1.0,0.0,0.0,0.0,1.0
1463662774167535930,692,1463662773504741964,,-3.42055368423,-1.09758353233,-146.692398071,0.0100819999352,1.0,0.0,0.0,0.0,1.0,0.0,0.0,0.0,1.0,-13.1097564697,-0.914634168148,-36.4634170532,1.0,0.0,0.0,0.0,1.0,0.0,0.0,0.0,1.0,-0.670376464844,-0.474051928711,-10.7116582275,1.0,0.0,0.0,0.0,1.0,0.0,0.0,0.0,1.0
1463662774168256768,693,1463662773514408058,,-3.55184626579,-1.12850761414,-147.073364258,0.0102070001885,1.0,0.0,0.0,0.0,1.0,0.0,0.0,0.0,1.0,-13.1707324982,-1.34146344662,-38.9634132385,1.0,0.0,0.0,0.0,1.0,0.0,0.0,0.0,1.0,-0.828393774414,-0.387860668945,-10.5680061279,1.0,0.0,0.0,0.0,1.0,0.0,0.0,0.0,1.0
1463662774168544728,694,1463662773525106026,,-3.68016076088,-1.17062282562,-147.46647644,0.0100199999288,1.0,0.0,0.0,0.0,1.0,0.0,0.0,0.0,1.0,-13.1097564697,-1.2195122242,-40.8536605835,1.0,0.0,0.0,0.0,1.0,0.0,0.0,0.0,1.0,-1.04387185076,-0.354341845703,-10.6111017578,1.0,0.0,0.0,0.0,1.0,0.0,0.0,0.0,1.0
1463662774168825083,695,1463662773534572663,,-3.80730080605,-1.20013642311,-147.872924805,0.0100929997861,1.0,0.0,0.0,0.0,1.0,0.0,0.0,0.0,1.0,-13.3536586761,-0.548780500889,-41.8292694092,1.0,0.0,0.0,0.0,1.0,0.0,0.0,0.0,1.0,-0.909796630859,-0.407014282227,-10.6350437744,1.0,0.0,0.0,0.0,1.0,0.0,0.0,0.0,1.0
1463662774172893457,696,1463662773544964856,,-3.94265031815,-1.21225357056,-148.280181885,0.0101450001821,1.0,0.0,0.0,0.0,1.0,0.0,0.0,0.0,1.0,-14.1463422775,-0.731707334518,-41.7073173523,1.0,0.0,0.0,0.0,1.0,0.0,0.0,0.0,1.0,-0.545877978516,-0.392649072266,-10.778695874,1.0,0.0,0.0,0.0,1.0,0.0,0.0,0.0,1.0
1463662774174243348,697,1463662773555241355,,-4.08530235291,-1.23016798496,-148.672973633,0.0100720003247,1.0,0.0,0.0,0.0,1.0,0.0,0.0,0.0,1.0,-16.0365848541,-0.853658556938,-40.5487823486,1.0,0.0,0.0,0.0,1.0,0.0,0.0,0.0,1.0,-0.622492431641,-0.565031591797,-10.5919481445,1.0,0.0,0.0,0.0,1.0,0.0,0.0,0.0,1.0
1463662774174516619,698,1463662773564473998,,-4.2469625473,-1.25970077515,-149.049606323,0.010045000352,1.0,0.0,0.0,0.0,1.0,0.0,0.0,0.0,1.0,-17.5000019073,-1.2195122242,-39.0853652954,1.0,0.0,0.0,0.0,1.0,0.0,0.0,0.0,1.0,-0.785298144531,-0.45968671875,-10.7164466309,1.0,0.0,0.0,0.0,1.0,0.0,0.0,0.0,1.0
1463662774174795046,699,1463662773576355999,,-4.43033742905,-1.29203689098,-149.416900635,0.0102019999176,1.0,0.0,0.0,0.0,1.0,0.0,0.0,0.0,1.0,-18.658536911,-1.40243899822,-37.6219520569,1.0,0.0,0.0,0.0,1.0,0.0,0.0,0.0,1.0,-0.794874951172,-0.292092584273,-10.6541973877,1.0,0.0,0.0,0.0,1.0,0.0,0.0,0.0,1.0
1463662774175044094,700,1463662773585914316,,-4.61811685562,-1.31793606281,-149.760162354,0.0100079998374,1.0,0.0,0.0,0.0,1.0,0.0,0.0,0.0,1.0,-19.0243911743,-1.2195122242,-35.9146347046,1.0,0.0,0.0,0.0,1.0,0.0,0.0,0.0,1.0,-0.732625708008,-0.181959326172,-10.7068698242,1.0,0.0,0.0,0.0,1.0,0.0,0.0,0.0,1.0
1463662774175278348,701,1463662773596280932,,-4.81750488281,-1.3426002264,-150.101043701,0.0106049999595,1.0,0.0,0.0,0.0,1.0,0.0,0.0,0.0,1.0,-19.7560977936,-0.914634168148,-33.7195129395,1.0,0.0,0.0,0.0,1.0,0.0,0.0,0.0,1.0,-0.737414111328,-0.277727392578,-10.419565625,1.0,0.0,0.0,0.0,1.0,0.0,0.0,0.0,1.0
1463662774175531824,702,1463662773605378295,,-5.00144147873,-1.36457169056,-150.392822266,0.00958899967372,1.0,0.0,0.0,0.0,1.0,0.0,0.0,0.0,1.0,-20.1219520569,-1.03658533096,-32.0121955872,1.0,0.0,0.0,0.0,1.0,0.0,0.0,0.0,1.0,-0.723048901367,-0.244208569336,-10.4578728516,1.0,0.0,0.0,0.0,1.0,0.0,0.0,0.0,1.0
1463662774175818950,703,1463662773615782833,,-5.19755744934,-1.38567566872,-150.685760498,0.0101199997589,1.0,0.0,0.0,0.0,1.0,0.0,0.0,0.0,1.0,-19.5731716156,-1.03658533096,-30.5487804413,1.0,0.0,0.0,0.0,1.0,0.0,0.0,0.0,1.0,-0.699106884766,-0.076614453125,-10.524910498,1.0,0.0,0.0,0.0,1.0,0.0,0.0,0.0,1.0
1463662774176871974,704,1463662773625294060,,-5.39237737656,-1.40905213356,-150.961349487,0.0101349996403,1.0,0.0,0.0,0.0,1.0,0.0,0.0,0.0,1.0,-18.5365848541,-0.670731723309,-28.7804889679,1.0,0.0,0.0,0.0,1.0,0.0,0.0,0.0,1.0,-0.809240161133,0.114921679688,-10.3237975586,1.0,0.0,0.0,0.0,1.0,0.0,0.0,0.0,1.0
1463662774177260783,705,1463662773635661614,,-5.56442117691,-1.42692673206,-151.227020264,0.0101269995794,1.0,0.0,0.0,0.0,1.0,0.0,0.0,0.0,1.0,-16.9512195587,-0.0609756112099,-27.7439041138,1.0,0.0,0.0,0.0,1.0,0.0,0.0,0.0,1.0,-0.833182177734,0.0287304199219,-10.3956236084,1.0,0.0,0.0,0.0,1.0,0.0,0.0,0.0,1.0
1463662774177506028,706,1463662773646739067,,-5.71535968781,-1.43256354332,-151.475158691,0.0100640002638,1.0,0.0,0.0,0.0,1.0,0.0,0.0,0.0,1.0,-15.4878053665,0.426829278469,-26.0975627899,1.0,0.0,0.0,0.0,1.0,0.0,0.0,0.0,1.0,-0.723048901367,-0.0430956298828,-10.4435076416,1.0,0.0,0.0,0.0,1.0,0.0,0.0,0.0,1.0
1463662774177744918,707,1463662773656133349,,-5.85172748566,-1.43299543858,-151.712692261,0.0100870002061,1.0,0.0,0.0,0.0,1.0,0.0,0.0,0.0,1.0,-13.9024391174,0.304878056049,-25.0,1.0,0.0,0.0,0.0,1.0,0.0,0.0,0.0,1.0,-0.612915625,0.0,-10.405200415,1.0,0.0,0.0,0.0,1.0,0.0,0.0,0.0,1.0
1463662774177974432,708,1463662773665864973,,-5.97137308121,-1.43423104286,-151.93951416,0.0102019999176,1.0,0.0,0.0,0.0,1.0,0.0,0.0,0.0,1.0,-12.5,-0.18292683363,-23.7195129395,1.0,0.0,0.0,0.0,1.0,0.0,0.0,0.0,1.0,-0.550666381836,-0.0526724365234,-10.3668931885,1.0,0.0,0.0,0.0,1.0,0.0,0.0,0.0,1.0
1463662774178270258,709,1463662773676546898,,-6.0725941658,-1.43863546848,-152.160736084,0.0103979995474,1.0,0.0,0.0,0.0,1.0,0.0,0.0,0.0,1.0,-11.0975618362,-0.18292683363,-22.7439041138,1.0,0.0,0.0,0.0,1.0,0.0,0.0,0.0,1.0,-0.612915625,-0.143652099609,-10.2950671387,1.0,0.0,0.0,0.0,1.0,0.0,0.0,0.0,1.0
1463662774178487739,710,1463662773686078596,,-6.1503777504,-1.44996154308,-152.358947754,0.00969200022519,1.0,0.0,0.0,0.0,1.0,0.0,0.0,0.0,1.0,-9.75609779358,-0.609756112099,-21.9512195587,1.0,0.0,0.0,0.0,1.0,0.0,0.0,0.0,1.0,-0.679953271484,-0.196324536133,-10.2711251221,1.0,0.0,0.0,0.0,1.0,0.0,0.0,0.0,1.0
1463662774178857430,711,1463662773696806413,,-6.21385765076,-1.45520079136,-152.560241699,0.0102009996772,1.0,0.0,0.0,0.0,1.0,0.0,0.0,0.0,1.0,-8.35365867615,-0.609756112099,-21.2195129395,1.0,0.0,0.0,0.0,1.0,0.0,0.0,0.0,1.0,-0.574608398438,-0.258573779297,-10.3094323486,1.0,0.0,0.0,0.0,1.0,0.0,0.0,0.0,1.0
1463662774180323484,712,1463662773706364886,,-6.25768089294,-1.4622913599,-152.752029419,0.0100039998069,1.0,0.0,0.0,0.0,1.0,0.0,0.0,0.0,1.0,-7.19512224197,-1.46341466904,-20.7317085266,1.0,0.0,0.0,0.0,1.0,0.0,0.0,0.0,1.0,-0.45489831543,-0.368707055664,-10.1370498291,1.0,0.0,0.0,0.0,1.0,0.0,0.0,0.0,1.0
1463662774181973421,713,1463662773716682485,,-6.30522537231,-1.47785007954,-152.939941406,0.0101150004193,1.0,0.0,0.0,0.0,1.0,0.0,0.0,0.0,1.0,-6.70731735229,-2.25609779358,-20.2439022064,1.0,0.0,0.0,0.0,1.0,0.0,0.0,0.0,1.0,-0.478840332031,-0.220266552734,-10.3094323486,1.0,0.0,0.0,0.0,1.0,0.0,0.0,0.0,1.0
1463662774183123490,714,1463662773726449896,,-6.33420562744,-1.50779688358,-153.123458862,0.0101150004193,1.0,0.0,0.0,0.0,1.0,0.0,0.0,0.0,1.0,-5.30487823486,-3.53658556938,-19.9390239716,1.0,0.0,0.0,0.0,1.0,0.0,0.0,0.0,1.0,-0.512359155273,-0.292092584273,-10.299855542,1.0,0.0,0.0,0.0,1.0,0.0,0.0,0.0,1.0
1463662774183954136,715,1463662773736439528,,-6.35576677322,-1.54927444458,-153.307144165,0.0101520000026,1.0,0.0,0.0,0.0,1.0,0.0,0.0,0.0,1.0,-4.08536577225,-4.45121955872,-20.0,1.0,0.0,0.0,0.0,1.0,0.0,0.0,0.0,1.0,-0.550666381836,-0.196324536133,-10.2232410889,1.0,0.0,0.0,0.0,1.0,0.0,0.0,0.0,1.0
1463662774184521253,716,1463662773746834378,,-6.35940694809,-1.59446120262,-153.493392944,0.010150000453,1.0,0.0,0.0,0.0,1.0,0.0,0.0,0.0,1.0,-3.10975623131,-5.12195110321,-20.3048782349,1.0,0.0,0.0,0.0,1.0,0.0,0.0,0.0,1.0,-0.493205541992,-0.330399829102,-10.1514150391,1.0,0.0,0.0,0.0,1.0,0.0,0.0,0.0,1.0
1463662774184788689,717,1463662773756959031,,-6.34501838684,-1.648260355,-153.682418823,0.0100130001083,1.0,0.0,0.0,0.0,1.0,0.0,0.0,0.0,1.0,-2.98780488968,-6.34146356583,-20.9146347046,1.0,0.0,0.0,0.0,1.0,0.0,0.0,0.0,1.0,-0.435744702148,-0.627280834961,-10.1322614258,1.0,0.0,0.0,0.0,1.0,0.0,0.0,0.0,1.0
1463662774185073316,718,1463662773767053627,,-6.33724308014,-1.71471476555,-153.878570557,0.0100600002334,1.0,0.0,0.0,0.0,1.0,0.0,0.0,0.0,1.0,-3.04878044128,-7.25609779358,-21.6463432312,1.0,0.0,0.0,0.0,1.0,0.0,0.0,0.0,1.0,-0.483628735352,-0.507570751953,-10.0029745361,1.0,0.0,0.0,0.0,1.0,0.0,0.0,0.0,1.0
1463662774185367839,719,1463662773776845261,,-6.33071136475,-1.79986262321,-154.085449219,0.010158999823,1.0,0.0,0.0,0.0,1.0,0.0,0.0,0.0,1.0,-2.98780488968,-8.29268264771,-22.6219520569,1.0,0.0,0.0,0.0,1.0,0.0,0.0,0.0,1.0,-0.612915625,-0.469263525391,-10.0700121826,1.0,0.0,0.0,0.0,1.0,0.0,0.0,0.0,1.0
1463662774185694764,720,1463662773787339292,,-6.32270383835,-1.88851225376,-154.300765991,0.0100410003215,1.0,0.0,0.0,0.0,1.0,0.0,0.0,0.0,1.0,-2.31707310677,-8.41463470459,-23.7195129395,1.0,0.0,0.0,0.0,1.0,0.0,0.0,0.0,1.0,-0.660799658203,-0.363918652344,-10.0029745361,1.0,0.0,0.0,0.0,1.0,0.0,0.0,0.0,1.0
1463662774187476439,721,1463662773797696792,,-6.30197477341,-1.97750008106,-154.52722168,0.0100990002975,1.0,0.0,0.0,0.0,1.0,0.0,0.0,0.0,1.0,-2.13414645195,-8.29268264771,-24.6341457367,1.0,0.0,0.0,0.0,1.0,0.0,0.0,0.0,1.0,-0.670376464844,-0.541089611728,-9.89762966309,1.0,0.0,0.0,0.0,1.0,0.0,0.0,0.0,1.0
1463662774187796226,722,1463662773807576773,,-6.2830452919,-2.06371283531,-154.753952026,0.0101220002398,1.0,0.0,0.0,0.0,1.0,0.0,0.0,0.0,1.0,-2.86585378647,-8.84146404266,-24.6341457367,1.0,0.0,0.0,0.0,1.0,0.0,0.0,0.0,1.0,-0.536301208408,-0.632069238281,-9.84016882324,1.0,0.0,0.0,0.0,1.0,0.0,0.0,0.0,1.0
1463662774188109711,723,1463662773817697623,,-6.26445245743,-2.14083218575,-154.979156494,0.0100910002366,1.0,0.0,0.0,0.0,1.0,0.0,0.0,0.0,1.0,-4.51219558716,-8.59756088257,-24.4512195587,1.0,0.0,0.0,0.0,1.0,0.0,0.0,0.0,1.0,-0.445321508789,-0.9193734375,-9.85932243652,1.0,0.0,0.0,0.0,1.0,0.0,0.0,0.0,1.0
1463662774188375689,724,1463662773827459356,,-6.26766395569,-2.22072911263,-155.193283081,0.0100859999657,1.0,0.0,0.0,0.0,1.0,0.0,0.0,0.0,1.0,-7.25609779358,-9.45121955872,-23.4146347046,1.0,0.0,0.0,0.0,1.0,0.0,0.0,0.0,1.0,-0.373495458984,-1.01514150391,-9.72045874023,1.0,0.0,0.0,0.0,1.0,0.0,0.0,0.0,1.0
1463662774188640833,725,1463662773837356162,,-6.30110120773,-2.3146879673,-155.395889282,0.010098000057,1.0,0.0,0.0,0.0,1.0,0.0,0.0,0.0,1.0,-10.0609760284,-10.1219511032,-22.3170719147,1.0,0.0,0.0,0.0,1.0,0.0,0.0,0.0,1.0,-0.531512805087,-0.986411083984,-9.7348239502,1.0,0.0,0.0,0.0,1.0,0.0,0.0,0.0,1.0
1463662774188905352,726,1463662773847877697,,-6.37393856049,-2.40137314796,-155.590515137,0.0101239997894,1.0,0.0,0.0,0.0,1.0,0.0,0.0,0.0,1.0,-12.8048782349,-10.2439022064,-21.5243911743,1.0,0.0,0.0,0.0,1.0,0.0,0.0,0.0,1.0,-0.407014282227,-0.77093293457,-9.64863327495,1.0,0.0,0.0,0.0,1.0,0.0,0.0,0.0,1.0
1463662774190881275,727,1463662773858141121,,-6.47301721573,-2.49915838242,-155.779083252,0.0100940000266,1.0,0.0,0.0,0.0,1.0,0.0,0.0,0.0,1.0,-14.0243902206,-10.2439022064,-21.0365848541,1.0,0.0,0.0,0.0,1.0,0.0,0.0,0.0,1.0,-0.622492431641,-0.517147558594,-9.69172832031,1.0,0.0,0.0,0.0,1.0,0.0,0.0,0.0,1.0
1463662774192110940,728,1463662773868357194,,-6.56648349762,-2.60128355026,-155.970718384,0.0101899998263,1.0,0.0,0.0,0.0,1.0,0.0,0.0,0.0,1.0,-13.4146347046,-9.69512176514,-21.0975627899,1.0,0.0,0.0,0.0,1.0,0.0,0.0,0.0,1.0,-0.77093293457,-0.493205541992,-9.52892319194,1.0,0.0,0.0,0.0,1.0,0.0,0.0,0.0,1.0
1463662774192841311,729,1463662773878610199,,-6.64801597595,-2.69264960289,-156.169326782,0.0100100003183,1.0,0.0,0.0,0.0,1.0,0.0,0.0,0.0,1.0,-12.7439022064,-8.84146404266,-22.0121955872,1.0,0.0,0.0,0.0,1.0,0.0,0.0,0.0,1.0,-0.76614453125,-0.531512805087,-9.64384487163,1.0,0.0,0.0,0.0,1.0,0.0,0.0,0.0,1.0
1463662774193851776,730,1463662773888253477,,-6.72854757309,-2.78265786171,-156.375106812,0.0101330000907,1.0,0.0,0.0,0.0,1.0,0.0,0.0,0.0,1.0,-11.0365858078,-7.92682981491,-22.4390239716,1.0,0.0,0.0,0.0,1.0,0.0,0.0,0.0,1.0,-0.885854614258,-0.248996972656,-9.67257470703,1.0,0.0,0.0,0.0,1.0,0.0,0.0,0.0,1.0
1463662774195191353,731,1463662773898495283,,-6.79386711121,-2.86939334869,-156.590103149,0.0100819999352,1.0,0.0,0.0,0.0,1.0,0.0,0.0,0.0,1.0,-8.47560977936,-7.13414621353,-23.4146347046,1.0,0.0,0.0,0.0,1.0,0.0,0.0,0.0,1.0,-0.976834277344,-0.0335188255255,-9.78749638672,1.0,0.0,0.0,0.0,1.0,0.0,0.0,0.0,1.0
1463662774195503744,732,1463662773907882741,,-6.83141613007,-2.94163537025,-156.812149048,0.0100720003247,1.0,0.0,0.0,0.0,1.0,0.0,0.0,0.0,1.0,-5.54878091812,-5.67073154449,-23.9634151459,1.0,0.0,0.0,0.0,1.0,0.0,0.0,0.0,1.0,-0.967257470703,0.0191536132812,-9.64863327495,1.0,0.0,0.0,0.0,1.0,0.0,0.0,0.0,1.0
1463662774195795558,733,1463662773918065788,,-6.84754991531,-3.00165820122,-157.040237427,0.010111999698,1.0,0.0,0.0,0.0,1.0,0.0,0.0,0.0,1.0,-2.13414645195,-3.96341490746,-24.3292694092,1.0,0.0,0.0,0.0,1.0,0.0,0.0,0.0,1.0,-1.04866025408,0.253785375977,-9.62947966167,1.0,0.0,0.0,0.0,1.0,0.0,0.0,0.0,1.0
1463662774196066797,734,1463662773927871121,,-6.82416009903,-3.04950928688,-157.270690918,0.0100840004161,1.0,0.0,0.0,0.0,1.0,0.0,0.0,0.0,1.0,2.62195134163,-2.19512200356,-24.4512195587,1.0,0.0,0.0,0.0,1.0,0.0,0.0,0.0,1.0,-1.14442839355,0.402225878906,-9.53849999858,1.0,0.0,0.0,0.0,1.0,0.0,0.0,0.0,1.0
1463662774196327045,735,1463662773939109796,,-6.73633813858,-3.07123541832,-157.494537354,0.0101690003648,1.0,0.0,0.0,0.0,1.0,0.0,0.0,0.0,1.0,6.52439069748,-0.18292683363,-23.2317085266,1.0,0.0,0.0,0.0,1.0,0.0,0.0,0.0,1.0,-1.08217922346,-0.0191536132812,-9.61990285503,1.0,0.0,0.0,0.0,1.0,0.0,0.0,0.0,1.0
1463662774196601201,736,1463662773948727966,,-6.63220500946,-3.06830406189,-157.709747314,0.0101220002398,1.0,0.0,0.0,0.0,1.0,0.0,0.0,0.0,1.0,7.25609779358,1.2804877758,-22.2560977936,1.0,0.0,0.0,0.0,1.0,0.0,0.0,0.0,1.0,-0.938527050781,-0.196324536133,-9.57201882183,1.0,0.0,0.0,0.0,1.0,0.0,0.0,0.0,1.0
1463662774197289951,737,1463662773958894865,,-6.54596662521,-3.05646491051,-157.913497925,0.0101279998198,1.0,0.0,0.0,0.0,1.0,0.0,0.0,0.0,1.0,7.98780536652,2.07317066193,-21.158536911,1.0,0.0,0.0,0.0,1.0,0.0,0.0,0.0,1.0,-0.938527050781,0.201112939453,-9.43315395649,1.0,0.0,0.0,0.0,1.0,0.0,0.0,0.0,1.0
1463662774197766429,738,1463662773969213089,,-6.484395504,-3.08589506149,-158.119384766,0.0100229997188,1.0,0.0,0.0,0.0,1.0,0.0,0.0,0.0,1.0,8.35365867615,2.31707310677,-21.7073173523,1.0,0.0,0.0,0.0,1.0,0.0,0.0,0.0,1.0,-2.25533796387,0.871489404297,-12.6892687988,1.0,0.0,0.0,0.0,1.0,0.0,0.0,0.0,1.0
1463662774198058973,739,1463662773979062127,,-6.31713104248,-3.0776591301,-158.321334839,0.0100739998743,1.0,0.0,0.0,0.0,1.0,0.0,0.0,0.0,1.0,15.2439022064,4.32926845551,-20.7926826477,1.0,0.0,0.0,0.0,1.0,0.0,0.0,0.0,1.0,-1.28329208984,0.0287304199219,-8.66701059429,1.0,0.0,0.0,0.0,1.0,0.0,0.0,0.0,1.0
1463662774198326253,740,1463662773988756090,,-6.20563316345,-3.06462621689,-158.535186768,0.0100969998166,1.0,0.0,0.0,0.0,1.0,0.0,0.0,0.0,1.0,15.2439022064,3.17073178291,-22.3780498505,1.0,0.0,0.0,0.0,1.0,0.0,0.0,0.0,1.0,-1.22583125,1.05823706072,-10.4482960449,1.0,0.0,0.0,0.0,1.0,0.0,0.0,0.0,1.0
1463662774198628069,741,1463662773998672898,,-6.01774501801,-3.06074857712,-158.760009766,0.010098000057,1.0,0.0,0.0,0.0,1.0,0.0,0.0,0.0,1.0,19.0853652954,4.08536577225,-23.1707324982,1.0,0.0,0.0,0.0,1.0,0.0,0.0,0.0,1.0,-1.47482822266,0.330399829102,-9.92157167969,1.0,0.0,0.0,0.0,1.0,0.0,0.0,0.0,1.0
1463662774198910403,742,1463662774008956950,,-5.83687496185,-3.02870297432,-158.98727417,0.0101309996098,1.0,0.0,0.0,0.0,1.0,0.0,0.0,0.0,1.0,21.8292694092,5.97560977936,-23.3536586761,1.0,0.0,0.0,0.0,1.0,0.0,0.0,0.0,1.0,-1.35990654297,0.943315454102,-10.1609918457,1.0,0.0,0.0,0.0,1.0,0.0,0.0,0.0,1.0
1463662774201309255,743,1463662774019550424,,-5.61960315704,-2.99028635025,-159.21484375,0.0101049998775,1.0,0.0,0.0,0.0,1.0,0.0,0.0,0.0,1.0,26.4634151459,6.40243911743,-23.475610733,1.0,0.0,0.0,0.0,1.0,0.0,0.0,0.0,1.0,-1.2976572998,1.06302561017,-9.92157167969,1.0,0.0,0.0,0.0,1.0,0.0,0.0,0.0,1.0
1463662774203876517,744,1463662774029484006,,-5.33611249924,-2.93749761581,-159.431106567,0.0100840004161,1.0,0.0,0.0,0.0,1.0,0.0,0.0,0.0,1.0,29.9390258789,7.80487823486,-22.1341457367,1.0,0.0,0.0,0.0,1.0,0.0,0.0,0.0,1.0,-1.26892687988,0.435744702148,-9.54807680523,1.0,0.0,0.0,0.0,1.0,0.0,0.0,0.0,1.0
1463662774204174062,745,1463662774039760660,,-5.03694820404,-2.85933017731,-159.625335693,0.0101730003953,1.0,0.0,0.0,0.0,1.0,0.0,0.0,0.0,1.0,29.5731697083,8.41463470459,-19.6951236725,1.0,0.0,0.0,0.0,1.0,0.0,0.0,0.0,1.0,-0.981622680664,0.0814028564453,-9.39005832661,1.0,0.0,0.0,0.0,1.0,0.0,0.0,0.0,1.0
1463662774204431601,746,1463662774049557243,,-4.76274347305,-2.77607584,-159.79133606,0.0100239999592,1.0,0.0,0.0,0.0,1.0,0.0,0.0,0.0,1.0,28.8414649963,8.17073154449,-17.317073822,1.0,0.0,0.0,0.0,1.0,0.0,0.0,0.0,1.0,-0.857124194336,0.225054956055,-9.20809958496,1.0,0.0,0.0,0.0,1.0,0.0,0.0,0.0,1.0
1463662774204726281,747,1463662774059419408,,-4.60632228851,-2.78671121597,-159.947463989,0.0101399999112,1.0,0.0,0.0,0.0,1.0,0.0,0.0,0.0,1.0,25.0,5.24390268326,-16.8292694092,1.0,0.0,0.0,0.0,1.0,0.0,0.0,0.0,1.0,-2.51391174316,1.94409174805,-11.7842605713,1.0,0.0,0.0,0.0,1.0,0.0,0.0,0.0,1.0
1463662774205011793,748,1463662774069924899,,-4.30951452255,-2.72888922691,-160.09602356,0.0100680002943,1.0,0.0,0.0,0.0,1.0,0.0,0.0,0.0,1.0,32.0731697083,6.40243911743,-15.7926826477,1.0,0.0,0.0,0.0,1.0,0.0,0.0,0.0,1.0,-0.905008227539,0.282515795898,-8.18338127441,1.0,0.0,0.0,0.0,1.0,0.0,0.0,0.0,1.0
1463662774205288189,749,1463662774080010275,,-4.06060600281,-2.67894411087,-160.254699707,0.0102899996564,1.0,0.0,0.0,0.0,1.0,0.0,0.0,0.0,1.0,32.5609779358,4.14634132385,-16.9512195587,1.0,0.0,0.0,0.0,1.0,0.0,0.0,0.0,1.0,-0.814028564453,1.26413847656,-9.50019277202,1.0,0.0,0.0,0.0,1.0,0.0,0.0,0.0,1.0
1463662774205602559,750,1463662774090364650,,-3.76171207428,-2.65949726105,-160.415115356,0.00991300027817,1.0,0.0,0.0,0.0,1.0,0.0,0.0,0.0,1.0,35.6097564697,2.07317066193,-17.7439022064,1.0,0.0,0.0,0.0,1.0,0.0,0.0,0.0,1.0,-0.943315454102,0.727837304687,-9.48103915874,1.0,0.0,0.0,0.0,1.0,0.0,0.0,0.0,1.0
1463662774206483994,751,1463662774100085804,,-3.4479227066,-2.6537027359,-160.587295532,0.0101420003921,1.0,0.0,0.0,0.0,1.0,0.0,0.0,0.0,1.0,37.5,2.25609779358,-18.5975627899,1.0,0.0,0.0,0.0,1.0,0.0,0.0,0.0,1.0,-1.26892687988,0.909796630859,-9.90720646973,1.0,0.0,0.0,0.0,1.0,0.0,0.0,0.0,1.0
1463662774206790707,752,1463662774110277811,,-3.12382268906,-2.66293168068,-160.762939453,0.0100699998438,1.0,0.0,0.0,0.0,1.0,0.0,0.0,0.0,1.0,40.6097564697,0.670731723309,-19.2682914734,1.0,0.0,0.0,0.0,1.0,0.0,0.0,0.0,1.0,-1.24019645996,1.16837033709,-9.71567033691,1.0,0.0,0.0,0.0,1.0,0.0,0.0,0.0,1.0
1463662774207048558,753,1463662774120849562,,-2.77183461189,-2.67814183235,-160.939056396,0.0100889997557,1.0,0.0,0.0,0.0,1.0,0.0,0.0,0.0,1.0,45.0,0.487804889679,-19.3902435303,1.0,0.0,0.0,0.0,1.0,0.0,0.0,0.0,1.0,-1.32638771973,1.40300217285,-9.65821008159,1.0,0.0,0.0,0.0,1.0,0.0,0.0,0.0,1.0
1463662774207336987,754,1463662774129967032,,-2.34643578529,-2.70545148849,-161.11265564,0.0100899999961,1.0,0.0,0.0,0.0,1.0,0.0,0.0,0.0,1.0,50.2439041138,0.0,-19.0853652954,1.0,0.0,0.0,0.0,1.0,0.0,0.0,0.0,1.0,-1.45088620605,0.972045874023,-9.5193463853,1.0,0.0,0.0,0.0,1.0,0.0,0.0,0.0,1.0
1463662774207639168,755,1463662774140064285,,-1.84020113945,-2.73386645317,-161.282119751,0.0100959995762,1.0,0.0,0.0,0.0,1.0,0.0,0.0,0.0,1.0,51.9512214661,-0.609756112099,-18.4146347046,1.0,0.0,0.0,0.0,1.0,0.0,0.0,0.0,1.0,-1.35032973633,-0.167594116211,-9.25119521484,1.0,0.0,0.0,0.0,1.0,0.0,0.0,0.0,1.0
1463662774207890925,756,1463662774151259620,,-1.38021862507,-2.7509894371,-161.417526245,0.0101450001821,1.0,0.0,0.0,0.0,1.0,0.0,0.0,0.0,1.0,47.4390258789,-1.40243899822,-15.0609760284,1.0,0.0,0.0,0.0,1.0,0.0,0.0,0.0,1.0,-1.07260241682,-0.225054956055,-9.23683000488,1.0,0.0,0.0,0.0,1.0,0.0,0.0,0.0,1.0
1463662774208178312,757,1463662774161027864,,-0.970926403999,-2.77540898323,-161.528259277,0.0100880004466,1.0,0.0,0.0,0.0,1.0,0.0,0.0,0.0,1.0,44.0853652954,-2.31707310677,-12.8048782349,1.0,0.0,0.0,0.0,1.0,0.0,0.0,0.0,1.0,-1.08696755371,-0.0861912597656,-9.38048151997,1.0,0.0,0.0,0.0,1.0,0.0,0.0,0.0,1.0
1463662774208646977,758,1463662774171032239,,-0.579000234604,-2.82897281647,-161.631973267,0.0100769996643,1.0,0.0,0.0,0.0,1.0,0.0,0.0,0.0,1.0,41.7073173523,-5.0,-12.1341466904,1.0,0.0,0.0,0.0,1.0,0.0,0.0,0.0,1.0,-1.17315874041,-0.282515795898,-9.63905646831,1.0,0.0,0.0,0.0,1.0,0.0,0.0,0.0,1.0
1463662775877358036,759,1463662774180608579,,-0.230904147029,-2.89642071724,-161.737945557,0.0101020000875,1.0,0.0,0.0,0.0,1.0,0.0,0.0,0.0,1.0,39.390247345,-6.40243911743,-12.4390249252,1.0,0.0,0.0,0.0,1.0,0.0,0.0,0.0,1.0,-1.20667770978,0.0191536132812,-9.80665,1.0,0.0,0.0,0.0,1.0,0.0,0.0,0.0,1.0
1463662775877497692,760,1463662774191336240,,0.0920141041279,-2.99097299576,-161.855102539,0.0101209999993,1.0,0.0,0.0,0.0,1.0,0.0,0.0,0.0,1.0,38.5975608826,-8.59756088257,-13.5975618362,1.0,0.0,0.0,0.0,1.0,0.0,0.0,0.0,1.0,-1.35032973633,0.287304199219,-10.0939541992,1.0,0.0,0.0,0.0,1.0,0.0,0.0,0.0,1.0
1463662775878627498,761,1463662774202386032,,0.412959843874,-3.11160206795,-161.992294312,0.010108999908,1.0,0.0,0.0,0.0,1.0,0.0,0.0,0.0,1.0,37.317073822,-10.6097564697,-15.4878053665,1.0,0.0,0.0,0.0,1.0,0.0,0.0,0.0,1.0,-1.5322890625,0.0526724365234,-10.4099888184,1.0,0.0,0.0,0.0,1.0,0.0,0.0,0.0,1.0
1463662775878759497,762,1463662774211110109,,0.722637712955,-3.24933958054,-162.139328003,0.0100680002943,1.0,0.0,0.0,0.0,1.0,0.0,0.0,0.0,1.0,36.2195129395,-11.8902444839,-16.4634151459,1.0,0.0,0.0,0.0,1.0,0.0,0.0,0.0,1.0,-1.67594116211,-0.00957680664062,-10.5153336914,1.0,0.0,0.0,0.0,1.0,0.0,0.0,0.0,1.0
1463662775878850188,763,1463662774222475261,,1.02021205425,-3.40251040459,-162.30128479,0.0101070003584,1.0,0.0,0.0,0.0,1.0,0.0,0.0,0.0,1.0,34.634147644,-12.8048782349,-17.8048782349,1.0,0.0,0.0,0.0,1.0,0.0,0.0,0.0,1.0,-1.84832368164,-0.0957680664062,-10.6302553711,1.0,0.0,0.0,0.0,1.0,0.0,0.0,0.0,1.0
1463662775878891965,764,1463662774232309714,,1.305773139,-3.54647183418,-162.459915161,0.0101239997894,1.0,0.0,0.0,0.0,1.0,0.0,0.0,0.0,1.0,32.7439041138,-12.5,-17.3780498505,1.0,0.0,0.0,0.0,1.0,0.0,0.0,0.0,1.0,-1.71424838867,-0.263362164351,-10.2950671387,1.0,0.0,0.0,0.0,1.0,0.0,0.0,0.0,1.0
1463662775878939889,765,1463662774241802188,,1.57749199867,-3.71129274368,-162.63092041,0.0100739998743,1.0,0.0,0.0,0.0,1.0,0.0,0.0,0.0,1.0,30.0000019073,-12.6219520569,-18.5365848541,1.0,0.0,0.0,0.0,1.0,0.0,0.0,0.0,1.0,-2.09732050817,-0.560243188477,-10.060435376,1.0,0.0,0.0,0.0,1.0,0.0,0.0,0.0,1.0
1463662775879018703,766,1463662774252743526,,1.8082202673,-3.87445449829,-162.814758301,0.0102120004594,1.0,0.0,0.0,0.0,1.0,0.0,0.0,0.0,1.0,27.4390258789,-12.8658542633,-19.6341457367,1.0,0.0,0.0,0.0,1.0,0.0,0.0,0.0,1.0,-1.93451494141,-0.244208569336,-9.58638403179,1.0,0.0,0.0,0.0,1.0,0.0,0.0,0.0,1.0
1463662775879090380,767,1463662774263172183,,2.01464772224,-4.02025461197,-163.014144897,0.00998099986464,1.0,0.0,0.0,0.0,1.0,0.0,0.0,0.0,1.0,25.975610733,-11.5853662491,-21.6463432312,1.0,0.0,0.0,0.0,1.0,0.0,0.0,0.0,1.0,-1.90578452148,-0.167594116211,-9.27034882812,1.0,0.0,0.0,0.0,1.0,0.0,0.0,0.0,1.0
1463662775879479710,768,1463662774272813221,,2.20980286598,-4.18745470047,-163.235458374,0.0101939998567,1.0,0.0,0.0,0.0,1.0,0.0,0.0,0.0,1.0,24.9390239716,-12.5,-23.3536586761,1.0,0.0,0.0,0.0,1.0,0.0,0.0,0.0,1.0,-2.10689731481,-0.0861912597656,-9.27513723145,1.0,0.0,0.0,0.0,1.0,0.0,0.0,0.0,1.0
1463662775879567744,769,1463662774283257974,,2.40805053711,-4.33500003815,-163.480331421,0.0100490003824,1.0,0.0,0.0,0.0,1.0,0.0,0.0,0.0,1.0,23.658536911,-12.3170728683,-25.8536586761,1.0,0.0,0.0,0.0,1.0,0.0,0.0,0.0,1.0,-1.92014973145,-0.392649072266,-9.36611631001,1.0,0.0,0.0,0.0,1.0,0.0,0.0,0.0,1.0
1463662775879625826,770,1463662774292460821,,2.58557963371,-4.48172092438,-163.740325928,0.010158999823,1.0,0.0,0.0,0.0,1.0,0.0,0.0,0.0,1.0,20.3658542633,-12.8658542633,-26.9512195587,1.0,0.0,0.0,0.0,1.0,0.0,0.0,0.0,1.0,-1.95366855469,-0.612915625,-9.99339772949,1.0,0.0,0.0,0.0,1.0,0.0,0.0,0.0,1.0
1463662775879717819,771,1463662774303178949,,2.71624803543,-4.62728643417,-164.017303467,0.0100299995393,1.0,0.0,0.0,0.0,1.0,0.0,0.0,0.0,1.0,17.6219520569,-12.8048782349,-29.0853672028,1.0,0.0,0.0,0.0,1.0,0.0,0.0,0.0,1.0,-2.14041643031,-0.31124621582,-10.524910498,1.0,0.0,0.0,0.0,1.0,0.0,0.0,0.0,1.0
1463662775879788507,772,1463662774313550878,,2.82705259323,-4.78384971619,-164.315505981,0.0102869998664,1.0,0.0,0.0,0.0,1.0,0.0,0.0,0.0,1.0,16.5243911743,-12.5609760284,-30.5487804413,1.0,0.0,0.0,0.0,1.0,0.0,0.0,0.0,1.0,-2.3415290775,-0.076614453125,-10.3621047852,1.0,0.0,0.0,0.0,1.0,0.0,0.0,0.0,1.0
1463662775879843984,773,1463662774323148941,,2.94071507454,-4.92011880875,-164.612686157,0.00994800031185,1.0,0.0,0.0,0.0,1.0,0.0,0.0,0.0,1.0,15.1219511032,-10.7926826477,-31.341463089,1.0,0.0,0.0,0.0,1.0,0.0,0.0,0.0,1.0,-2.43729729004,-0.45489831543,-10.3477395752,1.0,0.0,0.0,0.0,1.0,0.0,0.0,0.0,1.0
1463662775879884823,774,1463662774333715848,,3.04001760483,-5.04970502853,-164.909790039,0.0102129997686,1.0,0.0,0.0,0.0,1.0,0.0,0.0,0.0,1.0,11.5853662491,-10.1219511032,-30.4268321991,1.0,0.0,0.0,0.0,1.0,0.0,0.0,0.0,1.0,-2.31279880371,-0.790086547852,-9.95509050293,1.0,0.0,0.0,0.0,1.0,0.0,0.0,0.0,1.0
1463662775879936498,775,1463662774343857378,,3.07401895523,-5.15093898773,-165.195205688,0.0101910000667,1.0,0.0,0.0,0.0,1.0,0.0,0.0,0.0,1.0,6.95121955872,-8.65853691101,-29.5731697083,1.0,0.0,0.0,0.0,1.0,0.0,0.0,0.0,1.0,-2.02070620117,-0.478840332031,-9.61990285503,1.0,0.0,0.0,0.0,1.0,0.0,0.0,0.0,1.0
1463662775879998799,776,1463662774353396786,,3.08020877838,-5.26228952408,-165.455062866,0.0098479995504,1.0,0.0,0.0,0.0,1.0,0.0,0.0,0.0,1.0,3.47560977936,-9.02439117432,-27.8658542633,1.0,0.0,0.0,0.0,1.0,0.0,0.0,0.0,1.0,-2.17872351074,-0.627280834961,-9.4954043687,1.0,0.0,0.0,0.0,1.0,0.0,0.0,0.0,1.0
1463662775880048910,777,1463662774363704435,,3.05394935608,-5.36290216446,-165.710327148,0.0101129999384,1.0,0.0,0.0,0.0,1.0,0.0,0.0,0.0,1.0,0.426829278469,-8.47560977936,-26.7682933807,1.0,0.0,0.0,0.0,1.0,0.0,0.0,0.0,1.0,-2.03028300781,-0.603338854892,-9.43794235981,1.0,0.0,0.0,0.0,1.0,0.0,0.0,0.0,1.0
1463662775880098449,778,1463662774373910246,,2.97049331665,-5.44317626953,-165.952957153,0.010106000118,1.0,0.0,0.0,0.0,1.0,0.0,0.0,0.0,1.0,-5.0,-7.56097555161,-25.6097564697,1.0,0.0,0.0,0.0,1.0,0.0,0.0,0.0,1.0,-1.92972653809,-0.598550451572,-9.89762966309,1.0,0.0,0.0,0.0,1.0,0.0,0.0,0.0,1.0
1463662775880147207,779,1463662774384214405,,2.8467965126,-5.52508926392,-166.176239014,0.0101300003007,1.0,0.0,0.0,0.0,1.0,0.0,0.0,0.0,1.0,-6.52439069748,-8.35365867615,-23.8414649963,1.0,0.0,0.0,0.0,1.0,0.0,0.0,0.0,1.0,-1.84353527832,-0.181959326172,-10.1466266357,1.0,0.0,0.0,0.0,1.0,0.0,0.0,0.0,1.0
1463662775880187681,780,1463662774393788506,,2.71553087234,-5.60512018204,-166.389877319,0.0100490003824,1.0,0.0,0.0,0.0,1.0,0.0,0.0,0.0,1.0,-8.41463470459,-7.98780536652,-22.9878044128,1.0,0.0,0.0,0.0,1.0,0.0,0.0,0.0,1.0,-1.89620771484,-0.359130249023,-10.1897222656,1.0,0.0,0.0,0.0,1.0,0.0,0.0,0.0,1.0
1463662775880227375,781,1463662774404191690,,2.55515432358,-5.69706487656,-166.59942627,0.0105480002239,1.0,0.0,0.0,0.0,1.0,0.0,0.0,0.0,1.0,-9.81707286835,-8.65853691101,-21.6463432312,1.0,0.0,0.0,0.0,1.0,0.0,0.0,0.0,1.0,-1.95845695801,-0.225054956055,-10.4818148682,1.0,0.0,0.0,0.0,1.0,0.0,0.0,0.0,1.0
1463662775880275559,782,1463662774414191272,,2.39218521118,-5.79036951065,-166.772689819,0.00972399953753,1.0,0.0,0.0,0.0,1.0,0.0,0.0,0.0,1.0,-10.6097564697,-8.5365858078,-19.6951236725,1.0,0.0,0.0,0.0,1.0,0.0,0.0,0.0,1.0,-2.11168571813,-0.0814028564453,-10.3381627686,1.0,0.0,0.0,0.0,1.0,0.0,0.0,0.0,1.0
1463662775880323379,783,1463662774424526165,,2.22674369812,-5.88417339325,-166.928070068,0.0100549999624,1.0,0.0,0.0,0.0,1.0,0.0,0.0,0.0,1.0,-11.341463089,-6.64634132385,-17.317073822,1.0,0.0,0.0,0.0,1.0,0.0,0.0,0.0,1.0,-2.48039291992,-0.292092584273,-10.6206785645,1.0,0.0,0.0,0.0,1.0,0.0,0.0,0.0,1.0
1463662775880362031,784,1463662774434369838,,2.04947042465,-5.97311830521,-167.071075439,0.0101460004225,1.0,0.0,0.0,0.0,1.0,0.0,0.0,0.0,1.0,-12.6219520569,-5.73170757294,-15.975610733,1.0,0.0,0.0,0.0,1.0,0.0,0.0,0.0,1.0,-2.5234885498,-0.330399829102,-10.5105452881,1.0,0.0,0.0,0.0,1.0,0.0,0.0,0.0,1.0
1463662775913857241,785,1463662774444427501,,1.85479664803,-6.0379319191,-167.209671021,0.010169999674,1.0,0.0,0.0,0.0,1.0,0.0,0.0,0.0,1.0,-12.8048782349,-3.90243911743,-15.7317075729,1.0,0.0,0.0,0.0,1.0,0.0,0.0,0.0,1.0,-2.4277204834,-0.0191536132812,-10.5584293213,1.0,0.0,0.0,0.0,1.0,0.0,0.0,0.0,1.0
1463662775914007784,830,1463662774900111310,,-2.48807644844,-8.38750457764,-167.406234741,0.0107190003619,1.0,0.0,0.0,0.0,1.0,0.0,0.0,0.0,1.0,-4.57317066193,-44.0853652954,21.341463089,1.0,0.0,0.0,0.0,1.0,0.0,0.0,0.0,1.0,-1.41736738281,-0.296881024126,-10.6829278076,1.0,0.0,0.0,0.0,1.0,0.0,0.0,0.0,1.0
1463662775923549901,831,1463662774909783238,,-2.60204768181,-8.79533195496,-167.146377563,0.010435000062,1.0,0.0,0.0,0.0,1.0,0.0,0.0,0.0,1.0,-4.81707286835,-44.5731735229,21.158536911,1.0,0.0,0.0,0.0,1.0,0.0,0.0,0.0,1.0,-1.47482822266,-0.201112939453,-10.5584293213,1.0,0.0,0.0,0.0,1.0,0.0,0.0,0.0,1.0
1463662775927254627,832,1463662774918764541,,-2.71468353271,-9.15876102448,-166.917266846,0.00915000028908,1.0,0.0,0.0,0.0,1.0,0.0,0.0,0.0,1.0,-4.45121955872,-45.7317085266,20.9146347046,1.0,0.0,0.0,0.0,1.0,0.0,0.0,0.0,1.0,-1.4844050293,0.119710083008,-10.7164466309,1.0,0.0,0.0,0.0,1.0,0.0,0.0,0.0,1.0
1463662775927321564,833,1463662774929948677,,-2.84198021889,-9.62604999542,-166.63269043,0.0116020003334,1.0,0.0,0.0,0.0,1.0,0.0,0.0,0.0,1.0,-3.04878044128,-45.9756088257,20.3048782349,1.0,0.0,0.0,0.0,1.0,0.0,0.0,0.0,1.0,-1.56580788574,0.129286889648,-10.3621047852,1.0,0.0,0.0,0.0,1.0,0.0,0.0,0.0,1.0
1463662775927364539,834,1463662774938290977,,-2.92499661446,-9.97590637207,-166.422622681,0.00861299969256,1.0,0.0,0.0,0.0,1.0,0.0,0.0,0.0,1.0,-1.2804877758,-46.5853691101,20.0,1.0,0.0,0.0,0.0,1.0,0.0,0.0,0.0,1.0,-1.61369191895,0.205901342773,-10.3908352051,1.0,0.0,0.0,0.0,1.0,0.0,0.0,0.0,1.0
1463662775927407671,835,1463662774948641081,,-2.99040389061,-10.3836660385,-166.187408447,0.0100880004466,1.0,0.0,0.0,0.0,1.0,0.0,0.0,0.0,1.0,0.12195122242,-46.0975646973,19.2073173523,1.0,0.0,0.0,0.0,1.0,0.0,0.0,0.0,1.0,-1.73340200195,-0.105344873047,-10.419565625,1.0,0.0,0.0,0.0,1.0,0.0,0.0,0.0,1.0
1463662775927486016,836,1463662774958510487,,-3.04940080643,-10.7943572998,-165.949981689,0.0101229995489,1.0,0.0,0.0,0.0,1.0,0.0,0.0,0.0,1.0,0.609756112099,-45.4878082275,19.3902435303,1.0,0.0,0.0,0.0,1.0,0.0,0.0,0.0,1.0,-1.93930334473,-0.162805712891,-10.3094323486,1.0,0.0,0.0,0.0,1.0,0.0,0.0,0.0,1.0
1463662775927533054,837,1463662774968436255,,-3.09832906723,-11.1866550446,-165.722610474,0.0100999996066,1.0,0.0,0.0,0.0,1.0,0.0,0.0,0.0,1.0,1.40243899822,-44.0853652954,18.5365848541,1.0,0.0,0.0,0.0,1.0,0.0,0.0,0.0,1.0,-1.95845695801,-0.186747729492,-10.3573163818,1.0,0.0,0.0,0.0,1.0,0.0,0.0,0.0,1.0
1463662775927585250,838,1463662774980948872,,-3.14345669746,-11.5798072815,-165.479507446,0.0108580002561,1.0,0.0,0.0,0.0,1.0,0.0,0.0,0.0,1.0,1.58536589146,-42.5,18.5975627899,1.0,0.0,0.0,0.0,1.0,0.0,0.0,0.0,1.0,-1.83395847168,-0.296881024126,-10.3429511719,1.0,0.0,0.0,0.0,1.0,0.0,0.0,0.0,1.0
1463662775927637862,839,1463662774988599402,,-3.1896750927,-11.9070291519,-165.27130127,0.00932299997658,1.0,0.0,0.0,0.0,1.0,0.0,0.0,0.0,1.0,1.46341466904,-41.1585350037,18.475610733,1.0,0.0,0.0,0.0,1.0,0.0,0.0,0.0,1.0,-1.95845695801,-0.186747729492,-10.3668931885,1.0,0.0,0.0,0.0,1.0,0.0,0.0,0.0,1.0
1463662775927678233,840,1463662774998791356,,-3.24296784401,-12.2512798309,-165.045089722,0.0101199997589,1.0,0.0,0.0,0.0,1.0,0.0,0.0,0.0,1.0,2.62195134163,-39.0853652954,18.2926826477,1.0,0.0,0.0,0.0,1.0,0.0,0.0,0.0,1.0,-2.18830031738,0.0718260498047,-10.2519715088,1.0,0.0,0.0,0.0,1.0,0.0,0.0,0.0,1.0
1463662775927713394,841,1463662775008928823,,-3.2811794281,-12.555803299,-164.823684692,0.0101770004258,1.0,0.0,0.0,0.0,1.0,0.0,0.0,0.0,1.0,2.86585378647,-36.3414611816,18.1097564697,1.0,0.0,0.0,0.0,1.0,0.0,0.0,0.0,1.0,-1.95845695801,-0.15322890625,-10.060435376,1.0,0.0,0.0,0.0,1.0,0.0,0.0,0.0,1.0
1463662775927818670,842,1463662775018881002,,-3.32022356987,-12.8359489441,-164.602767944,0.00999999977648,1.0,0.0,0.0,0.0,1.0,0.0,0.0,0.0,1.0,3.41463422775,-34.3292694092,18.4146347046,1.0,0.0,0.0,0.0,1.0,0.0,0.0,0.0,1.0,-2.04943662109,-0.0526724365234,-10.1083194092,1.0,0.0,0.0,0.0,1.0,0.0,0.0,0.0,1.0
1463662775927858520,843,1463662775030001326,,-3.3429210186,-13.093580246,-164.386184692,0.010108999908,1.0,0.0,0.0,0.0,1.0,0.0,0.0,0.0,1.0,4.39024400711,-31.6463413239,18.0487823486,1.0,0.0,0.0,0.0,1.0,0.0,0.0,0.0,1.0,-2.14041643031,-0.167594116211,-10.180145459,1.0,0.0,0.0,0.0,1.0,0.0,0.0,0.0,1.0
1463662775927915352,844,1463662775039165781,,-3.3642168045,-13.3343744278,-164.170516968,0.0101359998807,1.0,0.0,0.0,0.0,1.0,0.0,0.0,0.0,1.0,4.2682929039,-29.2682933807,18.1097564697,1.0,0.0,0.0,0.0,1.0,0.0,0.0,0.0,1.0,-2.32716386754,-0.229843359375,-10.2519715088,1.0,0.0,0.0,0.0,1.0,0.0,0.0,0.0,1.0
1463662775927955254,845,1463662775049583447,,-3.38748025894,-13.5335760117,-163.962493896,0.0101810004562,1.0,0.0,0.0,0.0,1.0,0.0,0.0,0.0,1.0,4.20731735229,-25.6707324982,17.4390239716,1.0,0.0,0.0,0.0,1.0,0.0,0.0,0.0,1.0,-2.27927998047,-0.181959326172,-10.3716815918,1.0,0.0,0.0,0.0,1.0,0.0,0.0,0.0,1.0
1463662775927995885,846,1463662775059571100,,-3.40403294563,-13.7088251114,-163.770507812,0.0099849998951,1.0,0.0,0.0,0.0,1.0,0.0,0.0,0.0,1.0,4.69512224197,-23.0487823486,16.4024391174,1.0,0.0,0.0,0.0,1.0,0.0,0.0,0.0,1.0,-2.4516625,-0.167594116211,-10.4961800781,1.0,0.0,0.0,0.0,1.0,0.0,0.0,0.0,1.0
1463662775928030369,847,1463662775070090604,,-3.40954947472,-13.8525648117,-163.591949463,0.010106000118,1.0,0.0,0.0,0.0,1.0,0.0,0.0,0.0,1.0,5.30487823486,-20.0,15.1219511032,1.0,0.0,0.0,0.0,1.0,0.0,0.0,0.0,1.0,-2.41814367676,-0.201112939453,-10.5105452881,1.0,0.0,0.0,0.0,1.0,0.0,0.0,0.0,1.0
1463662775928072094,848,1463662775079633606,,-3.40031790733,-13.9672527313,-163.429855347,0.0101549997926,1.0,0.0,0.0,0.0,1.0,0.0,0.0,0.0,1.0,5.79268312454,-17.3780498505,13.7804880142,1.0,0.0,0.0,0.0,1.0,0.0,0.0,0.0,1.0,-2.39420180629,-0.320823022461,-10.6302553711,1.0,0.0,0.0,0.0,1.0,0.0,0.0,0.0,1.0
1463662775928103401,849,1463662775089896665,,-3.38691973686,-14.0522212982,-163.287399292,0.0100440001115,1.0,0.0,0.0,0.0,1.0,0.0,0.0,0.0,1.0,6.15853643417,-14.8170728683,12.1341466904,1.0,0.0,0.0,0.0,1.0,0.0,0.0,0.0,1.0,-2.29843359375,-0.248996972656,-10.4291424316,1.0,0.0,0.0,0.0,1.0,0.0,0.0,0.0,1.0
1463662775928143824,850,1463662775099792533,,-3.3711707592,-14.1192932129,-163.155700684,0.0101439999416,1.0,0.0,0.0,0.0,1.0,0.0,0.0,0.0,1.0,6.40243911743,-12.6219520569,11.0365858078,1.0,0.0,0.0,0.0,1.0,0.0,0.0,0.0,1.0,-2.38462499965,-0.196324536133,-10.5009684814,1.0,0.0,0.0,0.0,1.0,0.0,0.0,0.0,1.0
1463662775928202374,851,1463662775110150919,,-3.33242440224,-14.1587734222,-163.047622681,0.0100689996034,1.0,0.0,0.0,0.0,1.0,0.0,0.0,0.0,1.0,7.37804937363,-10.3048782349,9.20731735229,1.0,0.0,0.0,0.0,1.0,0.0,0.0,0.0,1.0,-2.31279880371,-0.354341845703,-10.5632177246,1.0,0.0,0.0,0.0,1.0,0.0,0.0,0.0,1.0
1463662775928241443,852,1463662775121029175,,-3.28345346451,-14.1774835587,-162.959152222,0.0101779997349,1.0,0.0,0.0,0.0,1.0,0.0,0.0,0.0,1.0,7.86585378647,-7.92682981491,7.37804937363,1.0,0.0,0.0,0.0,1.0,0.0,0.0,0.0,1.0,-2.38462499965,-0.363918652344,-10.6972930176,1.0,0.0,0.0,0.0,1.0,0.0,0.0,0.0,1.0
1463662775928278427,853,1463662775130597129,,-3.22758817673,-14.1703310013,-162.892486572,0.0100050000474,1.0,0.0,0.0,0.0,1.0,0.0,0.0,0.0,1.0,7.68292665482,-5.67073154449,5.67073154449,1.0,0.0,0.0,0.0,1.0,0.0,0.0,0.0,1.0,-2.30801040039,-0.46447512207,-10.7068698242,1.0,0.0,0.0,0.0,1.0,0.0,0.0,0.0,1.0
1463662775928324788,854,1463662775140144403,,-3.16787266731,-14.1295700073,-162.84236145,0.0101180002093,1.0,0.0,0.0,0.0,1.0,0.0,0.0,0.0,1.0,6.95121955872,-4.14634132385,4.2682929039,1.0,0.0,0.0,0.0,1.0,0.0,0.0,0.0,1.0,-1.92014973145,-0.588973571866,-10.6254669678,1.0,0.0,0.0,0.0,1.0,0.0,0.0,0.0,1.0
1463662775928366722,855,1463662775150182689,,-3.11347436905,-14.0887823105,-162.810211182,0.0100800003856,1.0,0.0,0.0,0.0,1.0,0.0,0.0,0.0,1.0,6.15853643417,-3.47560977936,2.56097555161,1.0,0.0,0.0,0.0,1.0,0.0,0.0,0.0,1.0,-1.99197578125,-0.565031591797,-10.4770264648,1.0,0.0,0.0,0.0,1.0,0.0,0.0,0.0,1.0
1463662775928428762,856,1463662775161347759,,-3.05945301056,-14.0335874557,-162.796630859,0.0101330000907,1.0,0.0,0.0,0.0,1.0,0.0,0.0,0.0,1.0,4.51219558716,-2.74390244484,1.09756100178,1.0,0.0,0.0,0.0,1.0,0.0,0.0,0.0,1.0,-1.8626888916,-0.804451757813,-10.6302553711,1.0,0.0,0.0,0.0,1.0,0.0,0.0,0.0,1.0
1463662775928473457,857,1463662775170538937,,-3.026222229,-13.9797563553,-162.801147461,0.0100889997557,1.0,0.0,0.0,0.0,1.0,0.0,0.0,0.0,1.0,3.23170733452,-2.31707310677,-0.914634168148,1.0,0.0,0.0,0.0,1.0,0.0,0.0,0.0,1.0,-1.89141931152,-0.565031591797,-10.3668931885,1.0,0.0,0.0,0.0,1.0,0.0,0.0,0.0,1.0
1463662775928511171,858,1463662775183564705,,-3.01315999031,-13.9183139801,-162.822418213,0.0103580001742,1.0,0.0,0.0,0.0,1.0,0.0,0.0,0.0,1.0,2.01219511032,-1.76829278469,-2.74390244484,1.0,0.0,0.0,0.0,1.0,0.0,0.0,0.0,1.0,-1.8626888916,-0.339976635742,-10.3956236084,1.0,0.0,0.0,0.0,1.0,0.0,0.0,0.0,1.0
1463662775928547114,859,1463662775192885070,,-2.99493217468,-13.8656692505,-162.859863281,0.00984099972993,1.0,0.0,0.0,0.0,1.0,0.0,0.0,0.0,1.0,2.25609779358,-1.64634156227,-4.45121955872,1.0,0.0,0.0,0.0,1.0,0.0,0.0,0.0,1.0,-1.96803376465,-0.330399829102,-10.3956236084,1.0,0.0,0.0,0.0,1.0,0.0,0.0,0.0,1.0
1463662775928594569,860,1463662775204037846,,-2.96814632416,-13.8150186539,-162.92338562,0.0101150004193,1.0,0.0,0.0,0.0,1.0,0.0,0.0,0.0,1.0,2.13414645195,-1.64634156227,-6.7682929039,1.0,0.0,0.0,0.0,1.0,0.0,0.0,0.0,1.0,-1.97282216797,-0.392649072266,-10.2567599121,1.0,0.0,0.0,0.0,1.0,0.0,0.0,0.0,1.0
1463662775928634627,861,1463662775213483282,,-2.93493771553,-13.7517614365,-163.012924194,0.0120620001107,1.0,0.0,0.0,0.0,1.0,0.0,0.0,0.0,1.0,2.01219511032,-1.15853655338,-7.86585378647,1.0,0.0,0.0,0.0,1.0,0.0,0.0,0.0,1.0,-1.98718737793,-0.387860668945,-10.1897222656,1.0,0.0,0.0,0.0,1.0,0.0,0.0,0.0,1.0
1463662775928667601,862,1463662775223158752,,-2.90403032303,-13.6936569214,-163.103134155,0.0100440001115,1.0,0.0,0.0,0.0,1.0,0.0,0.0,0.0,1.0,1.40243899822,-0.548780500889,-9.20731735229,1.0,0.0,0.0,0.0,1.0,0.0,0.0,0.0,1.0,-1.99676418457,-0.507570751953,-10.3046439453,1.0,0.0,0.0,0.0,1.0,0.0,0.0,0.0,1.0
1463662775928711201,863,1463662775232882407,,-2.88349890709,-13.6423521042,-163.20262146,0.00931499991566,1.0,0.0,0.0,0.0,1.0,0.0,0.0,0.0,1.0,1.15853655338,-0.304878056049,-11.0975618362,1.0,0.0,0.0,0.0,1.0,0.0,0.0,0.0,1.0,-2.05422502441,-0.316034619141,-10.2280294922,1.0,0.0,0.0,0.0,1.0,0.0,0.0,0.0,1.0
1463662775928749227,864,1463662775241348267,,-2.86335659027,-13.5891199112,-163.31048584,0.00896099954844,1.0,0.0,0.0,0.0,1.0,0.0,0.0,0.0,1.0,1.15853655338,0.548780500889,-12.4390249252,1.0,0.0,0.0,0.0,1.0,0.0,0.0,0.0,1.0,-2.09732050817,-0.268150604204,-10.1562034424,1.0,0.0,0.0,0.0,1.0,0.0,0.0,0.0,1.0
1463662775928787567,865,1463662775251793698,,-2.83434152603,-13.5310640335,-163.447814941,0.0101349996403,1.0,0.0,0.0,0.0,1.0,0.0,0.0,0.0,1.0,1.52439022064,1.15853655338,-13.9024391174,1.0,0.0,0.0,0.0,1.0,0.0,0.0,0.0,1.0,-2.20745393066,-0.253785375977,-10.060435376,1.0,0.0,0.0,0.0,1.0,0.0,0.0,0.0,1.0
1463662775928820697,866,1463662775262437804,,-2.80232024193,-13.4689378738,-163.596481323,0.0101439999416,1.0,0.0,0.0,0.0,1.0,0.0,0.0,0.0,1.0,1.70731711388,2.68292689323,-14.9390249252,1.0,0.0,0.0,0.0,1.0,0.0,0.0,0.0,1.0,-2.32237546422,-0.229843359375,-9.73961235352,1.0,0.0,0.0,0.0,1.0,0.0,0.0,0.0,1.0
1463662775928868568,867,1463662775272059724,,-2.76963210106,-13.3949966431,-163.753173828,0.0100459996611,1.0,0.0,0.0,0.0,1.0,0.0,0.0,0.0,1.0,2.31707310677,3.90243911743,-15.975610733,1.0,0.0,0.0,0.0,1.0,0.0,0.0,0.0,1.0,-2.31279880371,-0.105344873047,-9.78749638672,1.0,0.0,0.0,0.0,1.0,0.0,0.0,0.0,1.0
1463662775930069531,868,1463662775281833751,,-2.72976183891,-13.3049907684,-163.914978027,0.0100999996066,1.0,0.0,0.0,0.0,1.0,0.0,0.0,0.0,1.0,2.07317066193,4.57317066193,-16.158536911,1.0,0.0,0.0,0.0,1.0,0.0,0.0,0.0,1.0,-2.11647412145,-0.263362164351,-9.69172832031,1.0,0.0,0.0,0.0,1.0,0.0,0.0,0.0,1.0
1463662775930123758,869,1463662775292731073,,-2.69882535934,-13.2047376633,-164.080917358,0.0100830001757,1.0,0.0,0.0,0.0,1.0,0.0,0.0,0.0,1.0,1.2195122242,4.14634132385,-16.6463413239,1.0,0.0,0.0,0.0,1.0,0.0,0.0,0.0,1.0,-1.84832368164,-0.248996972656,-9.74440075684,1.0,0.0,0.0,0.0,1.0,0.0,0.0,0.0,1.0
1463662775930167671,870,1463662775302184270,,-2.67895245552,-13.1064910889,-164.250213623,0.0100929997861,1.0,0.0,0.0,0.0,1.0,0.0,0.0,0.0,1.0,1.2195122242,3.7804877758,-17.2560977936,1.0,0.0,0.0,0.0,1.0,0.0,0.0,0.0,1.0,-1.82438166504,-0.0478840332031,-9.86889924316,1.0,0.0,0.0,0.0,1.0,0.0,0.0,0.0,1.0
1463662775930235910,871,1463662775312063781,,-2.65830159187,-13.0250415802,-164.421524048,0.0101870000362,1.0,0.0,0.0,0.0,1.0,0.0,0.0,0.0,1.0,1.2195122242,3.29268312454,-17.317073822,1.0,0.0,0.0,0.0,1.0,0.0,0.0,0.0,1.0,-2.04943662109,-0.067037651051,-9.94551369629,1.0,0.0,0.0,0.0,1.0,0.0,0.0,0.0,1.0
1463662775930307119,872,1463662775322964072,,-2.63950204849,-12.9489040375,-164.595001221,0.0100889997557,1.0,0.0,0.0,0.0,1.0,0.0,0.0,0.0,1.0,-0.12195122242,3.23170733452,-17.4390239716,1.0,0.0,0.0,0.0,1.0,0.0,0.0,0.0,1.0,-2.14999323695,-0.282515795898,-10.165780249,1.0,0.0,0.0,0.0,1.0,0.0,0.0,0.0,1.0
1463662775930339520,873,1463662775334914625,,-2.63963961601,-12.8628292084,-164.793212891,0.0120789995417,1.0,0.0,0.0,0.0,1.0,0.0,0.0,0.0,1.0,-1.58536589146,3.90243911743,-16.7073173523,1.0,0.0,0.0,0.0,1.0,0.0,0.0,0.0,1.0,-2.35589428746,-0.248996972656,-10.1992990723,1.0,0.0,0.0,0.0,1.0,0.0,0.0,0.0,1.0
1463662775930376296,874,1463662775342986728,,-2.65514922142,-12.7993946075,-164.921722412,0.00825399998575,1.0,0.0,0.0,0.0,1.0,0.0,0.0,0.0,1.0,-2.80487799644,4.51219558716,-15.975610733,1.0,0.0,0.0,0.0,1.0,0.0,0.0,0.0,1.0,-2.32716386754,-0.162805712891,-10.0748005859,1.0,0.0,0.0,0.0,1.0,0.0,0.0,0.0,1.0
1463662775930500377,875,1463662775352699184,,-2.6848077774,-12.7331724167,-165.068634033,0.00989499967545,1.0,0.0,0.0,0.0,1.0,0.0,0.0,0.0,1.0,-4.08536577225,4.93902444839,-15.1829271317,1.0,0.0,0.0,0.0,1.0,0.0,0.0,0.0,1.0,-2.56179577637,-0.225054956055,-9.97424411621,1.0,0.0,0.0,0.0,1.0,0.0,0.0,0.0,1.0
1463662775930552781,876,1463662775362953075,,-2.72847938538,-12.652007103,-165.205459595,0.0102890003473,1.0,0.0,0.0,0.0,1.0,0.0,0.0,0.0,1.0,-4.87804889679,5.91463422775,-13.658536911,1.0,0.0,0.0,0.0,1.0,0.0,0.0,0.0,1.0,-2.5234885498,-0.201112939453,-9.98860932617,1.0,0.0,0.0,0.0,1.0,0.0,0.0,0.0,1.0
1463662775930583098,877,1463662775373132475,,-2.79069185257,-12.5686388016,-165.324478149,0.00993099994957,1.0,0.0,0.0,0.0,1.0,0.0,0.0,0.0,1.0,-6.40243911743,6.95121955872,-12.3780488968,1.0,0.0,0.0,0.0,1.0,0.0,0.0,0.0,1.0,-2.60489140625,-0.15801730957,-9.94072529297,1.0,0.0,0.0,0.0,1.0,0.0,0.0,0.0,1.0
1463662775930628417,878,1463662775382947862,,-2.87598371506,-12.4779043198,-165.427139282,0.0102439997718,1.0,0.0,0.0,0.0,1.0,0.0,0.0,0.0,1.0,-7.25609779358,7.56097555161,-10.6097564697,1.0,0.0,0.0,0.0,1.0,0.0,0.0,0.0,1.0,-2.57137258301,-0.00478840332031,-9.71088193359,1.0,0.0,0.0,0.0,1.0,0.0,0.0,0.0,1.0
1463662775930676914,879,1463662775393169405,,-2.98231506348,-12.3728628159,-165.509735107,0.0102070001885,1.0,0.0,0.0,0.0,1.0,0.0,0.0,0.0,1.0,-8.17073154449,8.5365858078,-8.84146404266,1.0,0.0,0.0,0.0,1.0,0.0,0.0,0.0,1.0,-2.44208569336,0.143652099609,-9.53849999858,1.0,0.0,0.0,0.0,1.0,0.0,0.0,0.0,1.0
1463662775930710096,880,1463662775403276971,,-3.0863199234,-12.269282341,-165.572616577,0.00988100003451,1.0,0.0,0.0,0.0,1.0,0.0,0.0,0.0,1.0,-7.68292665482,8.47560977936,-7.19512224197,1.0,0.0,0.0,0.0,1.0,0.0,0.0,0.0,1.0,-2.40377861293,0.201112939453,-9.58638403179,1.0,0.0,0.0,0.0,1.0,0.0,0.0,0.0,1.0
1463662775930768491,881,1463662775413126218,,-3.19283342361,-12.1464347839,-165.626434326,0.0101159997284,1.0,0.0,0.0,0.0,1.0,0.0,0.0,0.0,1.0,-7.13414621353,8.71951198578,-6.21951246262,1.0,0.0,0.0,0.0,1.0,0.0,0.0,0.0,1.0,-2.17872351074,0.282515795898,-9.7587659668,1.0,0.0,0.0,0.0,1.0,0.0,0.0,0.0,1.0
1463662775930806413,882,1463662775423442254,,-3.28509783745,-12.0329627991,-165.670013428,0.0100440001115,1.0,0.0,0.0,0.0,1.0,0.0,0.0,0.0,1.0,-6.21951246262,8.47560977936,-5.12195110321,1.0,0.0,0.0,0.0,1.0,0.0,0.0,0.0,1.0,-2.25533796387,0.181959326172,-9.67736311035,1.0,0.0,0.0,0.0,1.0,0.0,0.0,0.0,1.0
1463662775932386339,883,1463662775433248212,,-3.37153172493,-11.9307937622,-165.701751709,0.0100929997861,1.0,0.0,0.0,0.0,1.0,0.0,0.0,0.0,1.0,-5.60975599289,8.23170757294,-3.90243911743,1.0,0.0,0.0,0.0,1.0,0.0,0.0,0.0,1.0,-2.41814367676,0.148440512063,-9.69172832031,1.0,0.0,0.0,0.0,1.0,0.0,0.0,0.0,1.0
1463662775932429939,884,1463662775443837987,,-3.45724654198,-11.8326072693,-165.715606689,0.0101070003584,1.0,0.0,0.0,0.0,1.0,0.0,0.0,0.0,1.0,-5.12195110321,8.84146404266,-2.13414645195,1.0,0.0,0.0,0.0,1.0,0.0,0.0,0.0,1.0,-2.60010300293,0.167594116211,-9.67736311035,1.0,0.0,0.0,0.0,1.0,0.0,0.0,0.0,1.0
1463662775932469997,885,1463662775454594454,,-3.53548407555,-11.7323293686,-165.717163086,0.0101260002702,1.0,0.0,0.0,0.0,1.0,0.0,0.0,0.0,1.0,-4.39024400711,9.20731735229,-0.853658556938,1.0,0.0,0.0,0.0,1.0,0.0,0.0,0.0,1.0,-2.57137258301,0.129286889648,-9.46667277974,1.0,0.0,0.0,0.0,1.0,0.0,0.0,0.0,1.0
1463662775932518182,886,1463662775463697338,,-3.61712622643,-11.6227855682,-165.703445435,0.0102390004322,1.0,0.0,0.0,0.0,1.0,0.0,0.0,0.0,1.0,-4.2682929039,9.32926845551,0.609756112099,1.0,0.0,0.0,0.0,1.0,0.0,0.0,0.0,1.0,-2.40856701625,0.15322890625,-9.30865547017,1.0,0.0,0.0,0.0,1.0,0.0,0.0,0.0,1.0
1463662775932554854,887,1463662775476184847,,-3.68978571892,-11.5075120926,-165.672744751,0.0100250001997,1.0,0.0,0.0,0.0,1.0,0.0,0.0,0.0,1.0,-4.63414621353,8.65853691101,2.56097555161,1.0,0.0,0.0,0.0,1.0,0.0,0.0,0.0,1.0,-2.12126281703,-0.076614453125,-9.17458076172,1.0,0.0,0.0,0.0,1.0,0.0,0.0,0.0,1.0
1463662775932593818,888,1463662775484125993,,-3.78404355049,-11.3920507431,-165.622299194,0.0100600002334,1.0,0.0,0.0,0.0,1.0,0.0,0.0,0.0,1.0,-4.81707286835,7.56097555161,4.08536577225,1.0,0.0,0.0,0.0,1.0,0.0,0.0,0.0,1.0,-1.92972653809,0.201112939453,-9.1219083252,1.0,0.0,0.0,0.0,1.0,0.0,0.0,0.0,1.0
1463662775932628667,889,1463662775494078485,,-3.87200117111,-11.2837896347,-165.563995361,0.0100469999015,1.0,0.0,0.0,0.0,1.0,0.0,0.0,0.0,1.0,-4.2682929039,6.09756088257,4.81707286835,1.0,0.0,0.0,0.0,1.0,0.0,0.0,0.0,1.0,-1.7908628418,0.181959326172,-9.11233151855,1.0,0.0,0.0,0.0,1.0,0.0,0.0,0.0,1.0
1463662775932671173,890,1463662775504038269,,-3.96189808846,-11.2027444839,-165.488861084,0.0101129999384,1.0,0.0,0.0,0.0,1.0,0.0,0.0,0.0,1.0,-3.65853667259,3.59756112099,6.15853643417,1.0,0.0,0.0,0.0,1.0,0.0,0.0,0.0,1.0,-1.82917006836,0.268150604204,-9.07881269531,1.0,0.0,0.0,0.0,1.0,0.0,0.0,0.0,1.0
1463662775932705241,891,1463662775514480626,,-4.04298400879,-11.1436767578,-165.398025513,0.0101140001789,1.0,0.0,0.0,0.0,1.0,0.0,0.0,0.0,1.0,-2.92682933807,1.46341466904,7.62195110321,1.0,0.0,0.0,0.0,1.0,0.0,0.0,0.0,1.0,-1.84353527832,0.210689746094,-9.08838950195,1.0,0.0,0.0,0.0,1.0,0.0,0.0,0.0,1.0
1463662775932740351,892,1463662775524135207,,-4.11044216156,-11.1058368683,-165.294845581,0.010153000243,1.0,0.0,0.0,0.0,1.0,0.0,0.0,0.0,1.0,-1.95121955872,-0.304878056049,8.78048801422,1.0,0.0,0.0,0.0,1.0,0.0,0.0,0.0,1.0,-1.90578452148,0.119710083008,-9.08360109863,1.0,0.0,0.0,0.0,1.0,0.0,0.0,0.0,1.0
1463662775932776606,893,1463662775534049464,,-4.16532993317,-11.0866613388,-165.181167603,0.0100640002638,1.0,0.0,0.0,0.0,1.0,0.0,0.0,0.0,1.0,-0.609756112099,-2.31707310677,9.75609779358,1.0,0.0,0.0,0.0,1.0,0.0,0.0,0.0,1.0,-1.86747729492,0.119710083008,-9.01177504883,1.0,0.0,0.0,0.0,1.0,0.0,0.0,0.0,1.0
1463662775932824165,894,1463662775547003189,,-4.22152423859,-11.0963306427,-165.035171509,0.0120649999008,1.0,0.0,0.0,0.0,1.0,0.0,0.0,0.0,1.0,0.487804889679,-6.0365858078,10.2439022064,1.0,0.0,0.0,0.0,1.0,0.0,0.0,0.0,1.0,-1.75255561523,0.15801730957,-9.25119521484,1.0,0.0,0.0,0.0,1.0,0.0,0.0,0.0,1.0
1463662775932867609,895,1463662775554284288,,-4.25638818741,-11.1228408813,-164.933532715,0.00811900012195,1.0,0.0,0.0,0.0,1.0,0.0,0.0,0.0,1.0,0.914634168148,-8.29268264771,10.4878053665,1.0,0.0,0.0,0.0,1.0,0.0,0.0,0.0,1.0,-1.7908628418,0.162805712891,-9.22725319824,1.0,0.0,0.0,0.0,1.0,0.0,0.0,0.0,1.0
1463662775932910376,896,1463662775565667099,,-4.29306125641,-11.2008523941,-164.784606934,0.0115099996328,1.0,0.0,0.0,0.0,1.0,0.0,0.0,0.0,1.0,2.01219511032,-11.5243911743,10.6707315445,1.0,0.0,0.0,0.0,1.0,0.0,0.0,0.0,1.0,-1.8866309082,0.15322890625,-9.41878874653,1.0,0.0,0.0,0.0,1.0,0.0,0.0,0.0,1.0
1463662775932946319,897,1463662775574607458,,-4.30627346039,-11.2873182297,-164.674346924,0.00867599993944,1.0,0.0,0.0,0.0,1.0,0.0,0.0,0.0,1.0,2.68292689323,-14.3292694092,10.4268293381,1.0,0.0,0.0,0.0,1.0,0.0,0.0,0.0,1.0,-1.95366855469,-0.00957680664062,-9.37090471333,1.0,0.0,0.0,0.0,1.0,0.0,0.0,0.0,1.0
1463662775932988461,898,1463662775585578228,,-4.32195091248,-11.4130020142,-164.537261963,0.0102730002254,1.0,0.0,0.0,0.0,1.0,0.0,0.0,0.0,1.0,3.17073178291,-16.7682933807,10.7926826477,1.0,0.0,0.0,0.0,1.0,0.0,0.0,0.0,1.0,-1.97761057129,0.0526724365234,-9.5193463853,1.0,0.0,0.0,0.0,1.0,0.0,0.0,0.0,1.0
1463662775933020914,899,1463662775595415911,,-4.32307624817,-11.5779123306,-164.406616211,0.0100189996883,1.0,0.0,0.0,0.0,1.0,0.0,0.0,0.0,1.0,3.23170733452,-20.4268302917,10.4878053665,1.0,0.0,0.0,0.0,1.0,0.0,0.0,0.0,1.0,-2.11647412145,-0.181959326172,-9.61990285503,1.0,0.0,0.0,0.0,1.0,0.0,0.0,0.0,1.0
1463662775933053314,900,1463662775605860768,,-4.33653640747,-11.7597198486,-164.281692505,0.0100349998102,1.0,0.0,0.0,0.0,1.0,0.0,0.0,0.0,1.0,1.70731711388,-23.1097564697,9.75609779358,1.0,0.0,0.0,0.0,1.0,0.0,0.0,0.0,1.0,-1.98718737793,-0.220266552734,-9.77791958008,1.0,0.0,0.0,0.0,1.0,0.0,0.0,0.0,1.0
1463662775933128847,901,1463662775615817739,,-4.3560552597,-11.9958686829,-164.150756836,0.0105769997463,1.0,0.0,0.0,0.0,1.0,0.0,0.0,0.0,1.0,0.975609779358,-26.158536911,9.51219558716,1.0,0.0,0.0,0.0,1.0,0.0,0.0,0.0,1.0,-2.25533796387,-0.272938989258,-9.89762966309,1.0,0.0,0.0,0.0,1.0,0.0,0.0,0.0,1.0
1463662775933164842,902,1463662775624817691,,-4.38871145248,-12.2338581085,-164.03288269,0.00961800012738,1.0,0.0,0.0,0.0,1.0,0.0,0.0,0.0,1.0,-0.548780500889,-28.5975608826,9.20731735229,1.0,0.0,0.0,0.0,1.0,0.0,0.0,0.0,1.0,-2.31279880371,-0.272938989258,-9.98382092285,1.0,0.0,0.0,0.0,1.0,0.0,0.0,0.0,1.0
1463662775938113609,903,1463662775635291355,,-4.43235397339,-12.5065927505,-163.915618896,0.010106000118,1.0,0.0,0.0,0.0,1.0,0.0,0.0,0.0,1.0,-1.46341466904,-31.0975627899,8.35365867615,1.0,0.0,0.0,0.0,1.0,0.0,0.0,0.0,1.0,-2.33674067418,-0.253785375977,-10.1418382324,1.0,0.0,0.0,0.0,1.0,0.0,0.0,0.0,1.0
1463662775938982959,904,1463662775645581813,,-4.48351955414,-12.8058166504,-163.804290771,0.0101370001212,1.0,0.0,0.0,0.0,1.0,0.0,0.0,0.0,1.0,-2.43902444839,-33.9024391174,7.56097555161,1.0,0.0,0.0,0.0,1.0,0.0,0.0,0.0,1.0,-2.32237546422,-0.277727392578,-10.1178962158,1.0,0.0,0.0,0.0,1.0,0.0,0.0,0.0,1.0
1463662775939044948,905,1463662775655416683,,-4.52875232697,-13.1273765564,-163.703582764,0.0100680002943,1.0,0.0,0.0,0.0,1.0,0.0,0.0,0.0,1.0,-3.53658556938,-36.8902435303,6.70731735229,1.0,0.0,0.0,0.0,1.0,0.0,0.0,0.0,1.0,-2.26012636719,-0.550666381836,-10.1274730225,1.0,0.0,0.0,0.0,1.0,0.0,0.0,0.0,1.0
1463662775939085735,906,1463662775667872364,,-4.61101818085,-13.4859285355,-163.602325439,0.0100699998438,1.0,0.0,0.0,0.0,1.0,0.0,0.0,0.0,1.0,-6.82926845551,-40.3048782349,6.40243911743,1.0,0.0,0.0,0.0,1.0,0.0,0.0,0.0,1.0,-2.39899020961,-0.493205541992,-10.2567599121,1.0,0.0,0.0,0.0,1.0,0.0,0.0,0.0,1.0
1463662775939123970,907,1463662775677858246,,-4.71448230743,-13.8971624374,-163.493118286,0.0107650002465,1.0,0.0,0.0,0.0,1.0,0.0,0.0,0.0,1.0,-9.02439117432,-42.7439041138,6.46341466904,1.0,0.0,0.0,0.0,1.0,0.0,0.0,0.0,1.0,-2.46602770996,-0.636857641602,-10.1178962158,1.0,0.0,0.0,0.0,1.0,0.0,0.0,0.0,1.0
1463662775939173665,908,1463662775687474437,,-4.83394002914,-14.2887763977,-163.389801025,0.00971100013703,1.0,0.0,0.0,0.0,1.0,0.0,0.0,0.0,1.0,-11.6463422775,-44.7560997009,6.7682929039,1.0,0.0,0.0,0.0,1.0,0.0,0.0,0.0,1.0,-2.59052619629,-0.651222851562,-10.180145459,1.0,0.0,0.0,0.0,1.0,0.0,0.0,0.0,1.0
1463662775939210337,909,1463662775698637215,,-4.98978424072,-14.7147836685,-163.277023315,0.0102479998022,1.0,0.0,0.0,0.0,1.0,0.0,0.0,0.0,1.0,-14.5121955872,-46.4024391174,6.95121955872,1.0,0.0,0.0,0.0,1.0,0.0,0.0,0.0,1.0,-2.53785375977,-0.641646044922,-9.95030209961,1.0,0.0,0.0,0.0,1.0,0.0,0.0,0.0,1.0
1463662775939249197,910,1463662775707011499,,-5.18660974503,-15.1808586121,-163.151870728,0.0106579996645,1.0,0.0,0.0,0.0,1.0,0.0,0.0,0.0,1.0,-16.7073173523,-48.2926864624,7.19512224197,1.0,0.0,0.0,0.0,1.0,0.0,0.0,0.0,1.0,-2.67192905273,-0.469263525391,-9.90720646973,1.0,0.0,0.0,0.0,1.0,0.0,0.0,0.0,1.0
1463662775939289724,911,1463662775718005814,,-5.37376880646,-15.5892982483,-163.037155151,0.00933200027794,1.0,0.0,0.0,0.0,1.0,0.0,0.0,0.0,1.0,-18.2926826477,-49.5731735229,7.56097555161,1.0,0.0,0.0,0.0,1.0,0.0,0.0,0.0,1.0,-2.4995465332,-0.469263525391,-9.74918916016,1.0,0.0,0.0,0.0,1.0,0.0,0.0,0.0,1.0
1463662775942540423,912,1463662775726372598,,-5.58593225479,-16.036157608,-162.906997681,0.00990200042725,1.0,0.0,0.0,0.0,1.0,0.0,0.0,0.0,1.0,-19.2682914734,-50.8536605835,8.10975551605,1.0,0.0,0.0,0.0,1.0,0.0,0.0,0.0,1.0,-2.5234885498,-0.416591088867,-9.43315395649,1.0,0.0,0.0,0.0,1.0,0.0,0.0,0.0,1.0
1463662775942591577,913,1463662775736028482,,-5.80692243576,-16.4994258881,-162.764465332,0.0100940000266,1.0,0.0,0.0,0.0,1.0,0.0,0.0,0.0,1.0,-19.817073822,-52.1951255798,8.90243911743,1.0,0.0,0.0,0.0,1.0,0.0,0.0,0.0,1.0,-2.48518132324,-0.45968671875,-9.2942902602,1.0,0.0,0.0,0.0,1.0,0.0,0.0,0.0,1.0
1463662775942633614,914,1463662775746732545,,-6.03784751892,-16.9828624725,-162.606445312,0.0102739995345,1.0,0.0,0.0,0.0,1.0,0.0,0.0,0.0,1.0,-20.6097564697,-53.7195129395,10.0,1.0,0.0,0.0,0.0,1.0,0.0,0.0,0.0,1.0,-2.52827695312,-0.550666381836,-9.28950185688,1.0,0.0,0.0,0.0,1.0,0.0,0.0,0.0,1.0
1463662775942674454,915,1463662775757290700,,-6.28032016754,-17.4388656616,-162.435180664,0.00997999962419,1.0,0.0,0.0,0.0,1.0,0.0,0.0,0.0,1.0,-20.9146347046,-55.365852356,11.0975618362,1.0,0.0,0.0,0.0,1.0,0.0,0.0,0.0,1.0,-2.11647412145,-0.344765039063,-9.25119521484,1.0,0.0,0.0,0.0,1.0,0.0,0.0,0.0,1.0
1463662775942729670,916,1463662775767270852,,-6.51003313065,-17.9266147614,-162.251449585,0.0100750001147,1.0,0.0,0.0,0.0,1.0,0.0,0.0,0.0,1.0,-20.0609760284,-57.2560997009,12.0731716156,1.0,0.0,0.0,0.0,1.0,0.0,0.0,0.0,1.0,-2.27927998047,-0.493205541992,-8.9112185791,1.0,0.0,0.0,0.0,1.0,0.0,0.0,0.0,1.0
1463662775942777490,917,1463662775777339611,,-6.77025556564,-18.4132804871,-162.040161133,0.0102040003985,1.0,0.0,0.0,0.0,1.0,0.0,0.0,0.0,1.0,-20.0,-58.0487823486,13.5365858078,1.0,0.0,0.0,0.0,1.0,0.0,0.0,0.0,1.0,-2.1691467041,-0.138863696289,-8.93994899902,1.0,0.0,0.0,0.0,1.0,0.0,0.0,0.0,1.0
1463662775942816454,918,1463662775787245845,,-7.02331495285,-18.9012565613,-161.823852539,0.0100170001388,1.0,0.0,0.0,0.0,1.0,0.0,0.0,0.0,1.0,-18.7804889679,-58.5975608826,13.9024391174,1.0,0.0,0.0,0.0,1.0,0.0,0.0,0.0,1.0,-2.29843359375,-0.0143652099609,-8.71489404297,1.0,0.0,0.0,0.0,1.0,0.0,0.0,0.0,1.0
1463662775942857502,919,1463662775797105614,,-7.24932050705,-19.3937549591,-161.601013184,0.0100760003552,1.0,0.0,0.0,0.0,1.0,0.0,0.0,0.0,1.0,-16.7073173523,-58.9634132385,14.5121955872,1.0,0.0,0.0,0.0,1.0,0.0,0.0,0.0,1.0,-2.27927998047,-0.162805712891,-8.39885883931,1.0,0.0,0.0,0.0,1.0,0.0,0.0,0.0,1.0
1463662775942900529,920,1463662775807652362,,-7.47258996964,-19.8876399994,-161.366195679,0.0101079996675,1.0,0.0,0.0,0.0,1.0,0.0,0.0,0.0,1.0,-14.2682924271,-58.9024391174,14.8170728683,1.0,0.0,0.0,0.0,1.0,0.0,0.0,0.0,1.0,-2.26970317383,0.110133276367,-7.95832631836,1.0,0.0,0.0,0.0,1.0,0.0,0.0,0.0,1.0
1463662775942938660,921,1463662775817148117,,-7.67468833923,-20.3688678741,-161.127838135,0.0101410001516,1.0,0.0,0.0,0.0,1.0,0.0,0.0,0.0,1.0,-12.7439022064,-59.0853652954,15.1829271317,1.0,0.0,0.0,0.0,1.0,0.0,0.0,0.0,1.0,-2.08774370153,0.0,-7.84819304199,1.0,0.0,0.0,0.0,1.0,0.0,0.0,0.0,1.0
1463662775942979395,922,1463662775827681634,,-7.85656166077,-20.8459625244,-160.882507324,0.0100689996034,1.0,0.0,0.0,0.0,1.0,0.0,0.0,0.0,1.0,-10.4878053665,-59.4512176514,15.7926826477,1.0,0.0,0.0,0.0,1.0,0.0,0.0,0.0,1.0,-2.17872351074,0.00957680664062,-8.07324799805,1.0,0.0,0.0,0.0,1.0,0.0,0.0,0.0,1.0
1463662775943016849,923,1463662775837611934,,-8.02448272705,-21.3211841583,-160.632492065,0.010095000267,1.0,0.0,0.0,0.0,1.0,0.0,0.0,0.0,1.0,-8.59756088257,-60.1219520569,15.8536596298,1.0,0.0,0.0,0.0,1.0,0.0,0.0,0.0,1.0,-2.05901342773,0.0526724365234,-7.85776984863,1.0,0.0,0.0,0.0,1.0,0.0,0.0,0.0,1.0
1463662775943054198,924,1463662775847535411,,-8.1623916626,-21.7781181335,-160.387863159,0.0101199997589,1.0,0.0,0.0,0.0,1.0,0.0,0.0,0.0,1.0,-6.0365858078,-58.9024391174,15.4878053665,1.0,0.0,0.0,0.0,1.0,0.0,0.0,0.0,1.0,-2.08774370153,0.00957680664062,-8.11634362793,1.0,0.0,0.0,0.0,1.0,0.0,0.0,0.0,1.0
1463662775943103581,925,1463662775857975892,,-8.25766849518,-22.2309398651,-160.154373169,0.0100940000266,1.0,0.0,0.0,0.0,1.0,0.0,0.0,0.0,1.0,-4.81707286835,-59.5731735229,15.4268302917,1.0,0.0,0.0,0.0,1.0,0.0,0.0,0.0,1.0,-1.94409174805,-0.407014282227,-7.92959589844,1.0,0.0,0.0,0.0,1.0,0.0,0.0,0.0,1.0
