%time,field.header.seq,field.header.stamp,field.header.frame_id,field.orientation.x,field.orientation.y,field.orientation.z,field.orientation.w,field.orientation_covariance0,field.orientation_covariance1,field.orientation_covariance2,field.orientation_covariance3,field.orientation_covariance4,field.orientation_covariance5,field.orientation_covariance6,field.orientation_covariance7,field.orientation_covariance8,field.angular_velocity.x,field.angular_velocity.y,field.angular_velocity.z,field.angular_velocity_covariance0,field.angular_velocity_covariance1,field.angular_velocity_covariance2,field.angular_velocity_covariance3,field.angular_velocity_covariance4,field.angular_velocity_covariance5,field.angular_velocity_covariance6,field.angular_velocity_covariance7,field.angular_velocity_covariance8,field.linear_acceleration.x,field.linear_acceleration.y,field.linear_acceleration.z,field.linear_acceleration_covariance0,field.linear_acceleration_covariance1,field.linear_acceleration_covariance2,field.linear_acceleration_covariance3,field.linear_acceleration_covariance4,field.linear_acceleration_covariance5,field.linear_acceleration_covariance6,field.linear_acceleration_covariance7,field.linear_acceleration_covariance8
1480971092513942144,449,1480971092280959031,,4.01702737808,-0.522667884827,160.720230103,0.00306500005536,1.0,0.0,0.0,0.0,1.0,0.0,0.0,0.0,1.0,0.0,3.10975623131,-0.548780500889,1.0,0.0,0.0,0.0,1.0,0.0,0.0,0.0,1.0,0.172382519531,-0.067037651051,10.1466266357,1.0,0.0,0.0,0.0,1.0,0.0,0.0,0.0,1.0
1480971092516517135,450,1480971092304718533,,4.02977609634,-0.519802153111,160.6980896,0.00279500009492,1.0,0.0,0.0,0.0,1.0,0.0,0.0,0.0,1.0,0.243902444839,3.23170733452,-0.365853667259,1.0,0.0,0.0,0.0,1.0,0.0,0.0,0.0,1.0,0.138863696289,-0.148440512063,10.3190091553,1.0,0.0,0.0,0.0,1.0,0.0,0.0,0.0,1.0
1480971092516555416,451,1480971092324802736,,4.04778242111,-0.518663585186,160.679016113,0.00119900004938,1.0,0.0,0.0,0.0,1.0,0.0,0.0,0.0,1.0,0.243902444839,3.29268312454,-0.243902444839,1.0,0.0,0.0,0.0,1.0,0.0,0.0,0.0,1.0,0.162805712891,-0.172382519531,10.2040874756,1.0,0.0,0.0,0.0,1.0,0.0,0.0,0.0,1.0
1480971092516590520,452,1480971092345999486,,4.06982707977,-0.517569601536,160.656860352,0.00116400001571,1.0,0.0,0.0,0.0,1.0,0.0,0.0,0.0,1.0,0.0,3.29268312454,-0.548780500889,1.0,0.0,0.0,0.0,1.0,0.0,0.0,0.0,1.0,0.100556469727,-0.0909796630859,10.3573163818,1.0,0.0,0.0,0.0,1.0,0.0,0.0,0.0,1.0
1480971092516646353,453,1480971092373448455,,4.09317541122,-0.516233026981,160.635253906,0.00172099994961,1.0,0.0,0.0,0.0,1.0,0.0,0.0,0.0,1.0,0.12195122242,3.29268312454,-0.487804889679,1.0,0.0,0.0,0.0,1.0,0.0,0.0,0.0,1.0,0.110133276367,-0.129286889648,10.2902787354,1.0,0.0,0.0,0.0,1.0,0.0,0.0,0.0,1.0
1480971092516702239,454,1480971092388961111,,4.11123132706,-0.515252888203,160.614730835,0.00118599995039,1.0,0.0,0.0,0.0,1.0,0.0,0.0,0.0,1.0,0.12195122242,3.35365867615,-0.426829278469,1.0,0.0,0.0,0.0,1.0,0.0,0.0,0.0,1.0,0.0814028564453,-0.0335188255255,10.1370498291,1.0,0.0,0.0,0.0,1.0,0.0,0.0,0.0,1.0
1480971092516757290,455,1480971092410905828,,4.13167715073,-0.511558651924,160.589080811,0.00121400004718,1.0,0.0,0.0,0.0,1.0,0.0,0.0,0.0,1.0,-0.0609756112099,3.10975623131,-0.548780500889,1.0,0.0,0.0,0.0,1.0,0.0,0.0,0.0,1.0,0.105344873047,-0.0430956298828,10.165780249,1.0,0.0,0.0,0.0,1.0,0.0,0.0,0.0,1.0
1480971092518935981,456,1480971092431056488,,4.14625740051,-0.512146413326,160.568313599,0.00112300005276,1.0,0.0,0.0,0.0,1.0,0.0,0.0,0.0,1.0,0.243902444839,2.86585378647,-0.365853667259,1.0,0.0,0.0,0.0,1.0,0.0,0.0,0.0,1.0,0.0526724365234,-0.119710083008,10.180145459,1.0,0.0,0.0,0.0,1.0,0.0,0.0,0.0,1.0
1480971092519151657,457,1480971092451442304,,4.15781831741,-0.505720674992,160.550308228,0.00140700000338,1.0,0.0,0.0,0.0,1.0,0.0,0.0,0.0,1.0,0.0609756112099,2.62195134163,-0.365853667259,1.0,0.0,0.0,0.0,1.0,0.0,0.0,0.0,1.0,0.0383072265625,-0.0430956298828,10.3285859619,1.0,0.0,0.0,0.0,1.0,0.0,0.0,0.0,1.0
1480971092519463583,458,1480971092472419837,,4.16696071625,-0.501460075378,160.530441284,0.00129000004381,1.0,0.0,0.0,0.0,1.0,0.0,0.0,0.0,1.0,0.12195122242,2.5,-0.365853667259,1.0,0.0,0.0,0.0,1.0,0.0,0.0,0.0,1.0,0.0814028564453,-0.0622492431641,10.2376062988,1.0,0.0,0.0,0.0,1.0,0.0,0.0,0.0,1.0
1480971092519539104,459,1480971092493225808,,4.17259407043,-0.501852631569,160.509643555,0.00121799996123,1.0,0.0,0.0,0.0,1.0,0.0,0.0,0.0,1.0,0.12195122242,2.62195134163,-0.914634168148,1.0,0.0,0.0,0.0,1.0,0.0,0.0,0.0,1.0,-0.0143652099609,-0.114921679688,10.1035310059,1.0,0.0,0.0,0.0,1.0,0.0,0.0,0.0,1.0
1480971092521333056,460,1480971092516616145,,4.17361402512,-0.499165058136,160.489242554,0.00273899990134,1.0,0.0,0.0,0.0,1.0,0.0,0.0,0.0,1.0,0.243902444839,2.13414645195,-0.609756112099,1.0,0.0,0.0,0.0,1.0,0.0,0.0,0.0,1.0,0.114921679688,-0.067037651051,10.2902787354,1.0,0.0,0.0,0.0,1.0,0.0,0.0,0.0,1.0
1480971092540447783,461,1480971092537906698,,4.16893720627,-0.496025979519,160.472717285,0.00386600010097,1.0,0.0,0.0,0.0,1.0,0.0,0.0,0.0,1.0,0.0609756112099,2.31707310677,-0.304878056049,1.0,0.0,0.0,0.0,1.0,0.0,0.0,0.0,1.0,0.0430956298828,-0.0143652099609,10.1131078125,1.0,0.0,0.0,0.0,1.0,0.0,0.0,0.0,1.0
1480971092564709054,462,1480971092556976997,,4.16268062592,-0.497010827065,160.453079224,0.000986999948509,1.0,0.0,0.0,0.0,1.0,0.0,0.0,0.0,1.0,0.0,2.37804889679,-0.487804889679,1.0,0.0,0.0,0.0,1.0,0.0,0.0,0.0,1.0,0.134075302102,-0.110133276367,10.2328178955,1.0,0.0,0.0,0.0,1.0,0.0,0.0,0.0,1.0
1480971092579416504,463,1480971092577689062,,4.15636253357,-0.491156041622,160.433288574,0.00103100005072,1.0,0.0,0.0,0.0,1.0,0.0,0.0,0.0,1.0,0.0,2.25609779358,-0.426829278469,1.0,0.0,0.0,0.0,1.0,0.0,0.0,0.0,1.0,0.129286889648,-0.067037651051,10.2950671387,1.0,0.0,0.0,0.0,1.0,0.0,0.0,0.0,1.0
1480971092600594661,464,1480971092598974875,,4.15351486206,-0.49272146821,160.412841797,0.00112000002991,1.0,0.0,0.0,0.0,1.0,0.0,0.0,0.0,1.0,0.304878056049,2.19512200356,-0.426829278469,1.0,0.0,0.0,0.0,1.0,0.0,0.0,0.0,1.0,0.15322890625,-0.0718260498047,10.2711251221,1.0,0.0,0.0,0.0,1.0,0.0,0.0,0.0,1.0
1480971092621759954,465,1480971092619904491,,4.14929199219,-0.493687480688,160.395584106,0.000973000016529,1.0,0.0,0.0,0.0,1.0,0.0,0.0,0.0,1.0,0.0,2.25609779358,-0.548780500889,1.0,0.0,0.0,0.0,1.0,0.0,0.0,0.0,1.0,0.0478840332031,-0.110133276367,10.2232410889,1.0,0.0,0.0,0.0,1.0,0.0,0.0,0.0,1.0
1480971092649682098,466,1480971092646879972,,4.14362621307,-0.498504310846,160.374191284,0.00387399992906,1.0,0.0,0.0,0.0,1.0,0.0,0.0,0.0,1.0,0.0,2.37804889679,-0.426829278469,1.0,0.0,0.0,0.0,1.0,0.0,0.0,0.0,1.0,0.0909796630859,-0.0430956298828,10.1897222656,1.0,0.0,0.0,0.0,1.0,0.0,0.0,0.0,1.0
1480971092674737586,467,1480971092669337136,,4.14206790924,-0.500445842743,160.35559082,0.00097499997355,1.0,0.0,0.0,0.0,1.0,0.0,0.0,0.0,1.0,0.12195122242,2.43902444839,-0.304878056049,1.0,0.0,0.0,0.0,1.0,0.0,0.0,0.0,1.0,0.110133276367,-0.0814028564453,10.1418382324,1.0,0.0,0.0,0.0,1.0,0.0,0.0,0.0,1.0
1480971092693069763,468,1480971092688151499,,4.14054870605,-0.500946700573,160.33392334,0.00108700001147,1.0,0.0,0.0,0.0,1.0,0.0,0.0,0.0,1.0,0.0609756112099,2.31707310677,-0.12195122242,1.0,0.0,0.0,0.0,1.0,0.0,0.0,0.0,1.0,0.225054956055,-0.105344873047,10.2615483154,1.0,0.0,0.0,0.0,1.0,0.0,0.0,0.0,1.0
1480971092713068966,469,1480971092709644030,,4.14511585236,-0.50190192461,160.314697266,0.00246999994852,1.0,0.0,0.0,0.0,1.0,0.0,0.0,0.0,1.0,0.0,2.68292689323,-0.12195122242,1.0,0.0,0.0,0.0,1.0,0.0,0.0,0.0,1.0,0.148440512063,-0.124498486328,10.1418382324,1.0,0.0,0.0,0.0,1.0,0.0,0.0,0.0,1.0
1480971092738963461,470,1480971092733138793,,4.14640522003,-0.498462408781,160.294052124,0.0102949999273,1.0,0.0,0.0,0.0,1.0,0.0,0.0,0.0,1.0,0.18292683363,2.31707310677,-0.304878056049,1.0,0.0,0.0,0.0,1.0,0.0,0.0,0.0,1.0,0.114921679688,-0.0383072265625,10.3094323486,1.0,0.0,0.0,0.0,1.0,0.0,0.0,0.0,1.0
1480971092755601321,471,1480971092753373985,,4.14764404297,-0.497220188379,160.27671814,0.00113800005056,1.0,0.0,0.0,0.0,1.0,0.0,0.0,0.0,1.0,-0.0609756112099,2.5,-0.487804889679,1.0,0.0,0.0,0.0,1.0,0.0,0.0,0.0,1.0,0.0239420166016,-0.148440512063,10.2759135254,1.0,0.0,0.0,0.0,1.0,0.0,0.0,0.0,1.0
1480971092776543854,472,1480971092774464330,,4.1463432312,-0.494882941246,160.259017944,0.00113200000487,1.0,0.0,0.0,0.0,1.0,0.0,0.0,0.0,1.0,0.0609756112099,2.31707310677,-0.426829278469,1.0,0.0,0.0,0.0,1.0,0.0,0.0,0.0,1.0,0.0957680664062,-0.105344873047,10.1418382324,1.0,0.0,0.0,0.0,1.0,0.0,0.0,0.0,1.0
1480971092797535918,473,1480971092795434102,,4.14884233475,-0.493998706341,160.240432739,0.00101000000723,1.0,0.0,0.0,0.0,1.0,0.0,0.0,0.0,1.0,0.0609756112099,2.37804889679,-0.487804889679,1.0,0.0,0.0,0.0,1.0,0.0,0.0,0.0,1.0,0.0574608398438,-0.0383072265625,10.2471831055,1.0,0.0,0.0,0.0,1.0,0.0,0.0,0.0,1.0
1480971092818554075,474,1480971092816476635,,4.14898920059,-0.492610752583,160.221481323,0.00103399995714,1.0,0.0,0.0,0.0,1.0,0.0,0.0,0.0,1.0,0.0,2.07317066193,-0.426829278469,1.0,0.0,0.0,0.0,1.0,0.0,0.0,0.0,1.0,0.0957680664062,-0.124498486328,10.2280294922,1.0,0.0,0.0,0.0,1.0,0.0,0.0,0.0,1.0
1480971092839820201,475,1480971092837690833,,4.14686250687,-0.494743615389,160.20085144,0.000983000034466,1.0,0.0,0.0,0.0,1.0,0.0,0.0,0.0,1.0,-0.0609756112099,1.64634156227,-0.548780500889,1.0,0.0,0.0,0.0,1.0,0.0,0.0,0.0,1.0,0.0478840332031,-0.0574608398438,10.1274730225,1.0,0.0,0.0,0.0,1.0,0.0,0.0,0.0,1.0
1480971092860899244,476,1480971092858648158,,4.13784456253,-0.492495119572,160.183258057,0.00118899997324,1.0,0.0,0.0,0.0,1.0,0.0,0.0,0.0,1.0,-0.12195122242,1.34146344662,-0.487804889679,1.0,0.0,0.0,0.0,1.0,0.0,0.0,0.0,1.0,0.0814028564453,-0.0861912597656,10.285490332,1.0,0.0,0.0,0.0,1.0,0.0,0.0,0.0,1.0
1480971092881774485,477,1480971092879512566,,4.12520456314,-0.490202784538,160.167526245,0.00101200002246,1.0,0.0,0.0,0.0,1.0,0.0,0.0,0.0,1.0,-0.0609756112099,1.58536589146,-0.365853667259,1.0,0.0,0.0,0.0,1.0,0.0,0.0,0.0,1.0,0.0909796630859,-0.201112939453,10.2280294922,1.0,0.0,0.0,0.0,1.0,0.0,0.0,0.0,1.0
1480971092902223322,478,1480971092900161975,,4.10745239258,-0.490263581276,160.149871826,0.00112499995157,1.0,0.0,0.0,0.0,1.0,0.0,0.0,0.0,1.0,0.0609756112099,1.2195122242,-0.426829278469,1.0,0.0,0.0,0.0,1.0,0.0,0.0,0.0,1.0,0.0718260498047,-0.110133276367,10.2328178955,1.0,0.0,0.0,0.0,1.0,0.0,0.0,0.0,1.0
1480971092924163820,479,1480971092921898567,,4.08326148987,-0.488836616278,160.131134033,0.0033809999004,1.0,0.0,0.0,0.0,1.0,0.0,0.0,0.0,1.0,0.243902444839,1.52439022064,-0.365853667259,1.0,0.0,0.0,0.0,1.0,0.0,0.0,0.0,1.0,0.215478149414,-0.076614453125,10.2040874756,1.0,0.0,0.0,0.0,1.0,0.0,0.0,0.0,1.0
1480971092945585570,480,1480971092943121099,,4.06089925766,-0.485903710127,160.112442017,0.00114599999506,1.0,0.0,0.0,0.0,1.0,0.0,0.0,0.0,1.0,0.243902444839,1.76829278469,-0.609756112099,1.0,0.0,0.0,0.0,1.0,0.0,0.0,0.0,1.0,0.134075302102,-0.0430956298828,10.3716815918,1.0,0.0,0.0,0.0,1.0,0.0,0.0,0.0,1.0
1480971092966249406,481,1480971092963529832,,4.04562616348,-0.487661212683,160.094863892,0.00112399994396,1.0,0.0,0.0,0.0,1.0,0.0,0.0,0.0,1.0,0.0,1.8292683363,-0.12195122242,1.0,0.0,0.0,0.0,1.0,0.0,0.0,0.0,1.0,0.167594116211,-0.067037651051,10.1897222656,1.0,0.0,0.0,0.0,1.0,0.0,0.0,0.0,1.0
1480971092989912607,482,1480971092985456164,,4.03125190735,-0.489548146725,160.075073242,0.00102900003549,1.0,0.0,0.0,0.0,1.0,0.0,0.0,0.0,1.0,-0.18292683363,2.31707310677,-0.304878056049,1.0,0.0,0.0,0.0,1.0,0.0,0.0,0.0,1.0,0.134075302102,-0.105344873047,10.2902787354,1.0,0.0,0.0,0.0,1.0,0.0,0.0,0.0,1.0
1480971093010049257,483,1480971093006393592,,4.0228228569,-0.488251745701,160.055465698,0.00165200000629,1.0,0.0,0.0,0.0,1.0,0.0,0.0,0.0,1.0,0.0609756112099,2.31707310677,-0.487804889679,1.0,0.0,0.0,0.0,1.0,0.0,0.0,0.0,1.0,0.177170922852,-0.076614453125,10.2232410889,1.0,0.0,0.0,0.0,1.0,0.0,0.0,0.0,1.0
1480971093030794551,484,1480971093027192480,,4.02065038681,-0.490605443716,160.034637451,0.00100299995393,1.0,0.0,0.0,0.0,1.0,0.0,0.0,0.0,1.0,0.12195122242,2.68292689323,-0.0609756112099,1.0,0.0,0.0,0.0,1.0,0.0,0.0,0.0,1.0,0.110133276367,-0.0909796630859,10.2711251221,1.0,0.0,0.0,0.0,1.0,0.0,0.0,0.0,1.0
1480971093052744580,485,1480971093049662820,,4.0226316452,-0.490792691708,160.015151978,0.00107700005174,1.0,0.0,0.0,0.0,1.0,0.0,0.0,0.0,1.0,0.18292683363,2.74390244484,-0.243902444839,1.0,0.0,0.0,0.0,1.0,0.0,0.0,0.0,1.0,0.196324536133,-0.105344873047,10.2759135254,1.0,0.0,0.0,0.0,1.0,0.0,0.0,0.0,1.0
1480971093073262479,486,1480971093070098896,,4.03271150589,-0.491098791361,159.995010376,0.00124000001233,1.0,0.0,0.0,0.0,1.0,0.0,0.0,0.0,1.0,-0.0609756112099,3.04878044128,-0.426829278469,1.0,0.0,0.0,0.0,1.0,0.0,0.0,0.0,1.0,0.076614453125,-0.110133276367,10.3190091553,1.0,0.0,0.0,0.0,1.0,0.0,0.0,0.0,1.0
1480971093093473400,487,1480971093090419087,,4.04429864883,-0.490076780319,159.973739624,0.00148099998478,1.0,0.0,0.0,0.0,1.0,0.0,0.0,0.0,1.0,0.12195122242,3.17073178291,-0.670731723309,1.0,0.0,0.0,0.0,1.0,0.0,0.0,0.0,1.0,0.181959326172,-0.186747729492,10.2902787354,1.0,0.0,0.0,0.0,1.0,0.0,0.0,0.0,1.0
1480971093113917810,488,1480971093111390735,,4.05961370468,-0.491216391325,159.952178955,0.00142800004687,1.0,0.0,0.0,0.0,1.0,0.0,0.0,0.0,1.0,-0.0609756112099,3.04878044128,-0.548780500889,1.0,0.0,0.0,0.0,1.0,0.0,0.0,0.0,1.0,0.15322890625,-0.076614453125,10.1466266357,1.0,0.0,0.0,0.0,1.0,0.0,0.0,0.0,1.0
1480971093135815964,489,1480971093133709878,,4.07682037354,-0.491630613804,159.931686401,0.00166900001932,1.0,0.0,0.0,0.0,1.0,0.0,0.0,0.0,1.0,0.0609756112099,3.04878044128,-0.670731723309,1.0,0.0,0.0,0.0,1.0,0.0,0.0,0.0,1.0,0.0861912597656,-0.114921679688,10.2280294922,1.0,0.0,0.0,0.0,1.0,0.0,0.0,0.0,1.0
1480971093156088343,490,1480971093153786580,,4.09108304977,-0.493342399597,159.911087036,0.00111399998423,1.0,0.0,0.0,0.0,1.0,0.0,0.0,0.0,1.0,0.0,2.80487799644,-0.426829278469,1.0,0.0,0.0,0.0,1.0,0.0,0.0,0.0,1.0,0.067037651051,-0.162805712891,10.299855542,1.0,0.0,0.0,0.0,1.0,0.0,0.0,0.0,1.0
1480971093177034938,491,1480971093175014424,,4.1009850502,-0.494333714247,159.89175415,0.00118699995801,1.0,0.0,0.0,0.0,1.0,0.0,0.0,0.0,1.0,-0.18292683363,2.5,-0.243902444839,1.0,0.0,0.0,0.0,1.0,0.0,0.0,0.0,1.0,0.162805712891,-0.105344873047,10.1466266357,1.0,0.0,0.0,0.0,1.0,0.0,0.0,0.0,1.0
1480971093197989190,492,1480971093195760448,,4.10338258743,-0.49154701829,159.872970581,0.00117399997544,1.0,0.0,0.0,0.0,1.0,0.0,0.0,0.0,1.0,0.18292683363,2.37804889679,-0.304878056049,1.0,0.0,0.0,0.0,1.0,0.0,0.0,0.0,1.0,0.129286889648,-0.129286889648,10.2184526855,1.0,0.0,0.0,0.0,1.0,0.0,0.0,0.0,1.0
1480971093219542502,493,1480971093217136416,,4.10283613205,-0.490207314491,159.85307312,0.00110899994615,1.0,0.0,0.0,0.0,1.0,0.0,0.0,0.0,1.0,0.0609756112099,1.95121955872,-0.365853667259,1.0,0.0,0.0,0.0,1.0,0.0,0.0,0.0,1.0,0.0909796630859,-0.0622492431641,10.180145459,1.0,0.0,0.0,0.0,1.0,0.0,0.0,0.0,1.0
1480971093239609569,494,1480971093237610878,,4.09726142883,-0.488511532545,159.835357666,0.00102700002026,1.0,0.0,0.0,0.0,1.0,0.0,0.0,0.0,1.0,-0.0609756112099,1.76829278469,-0.609756112099,1.0,0.0,0.0,0.0,1.0,0.0,0.0,0.0,1.0,0.0909796630859,-0.119710083008,10.2376062988,1.0,0.0,0.0,0.0,1.0,0.0,0.0,0.0,1.0
1480971093260885226,495,1480971093258382526,,4.08554267883,-0.48786380887,159.818130493,0.0011569999624,1.0,0.0,0.0,0.0,1.0,0.0,0.0,0.0,1.0,0.0609756112099,1.58536589146,-0.548780500889,1.0,0.0,0.0,0.0,1.0,0.0,0.0,0.0,1.0,0.124498486328,-0.0718260498047,10.2759135254,1.0,0.0,0.0,0.0,1.0,0.0,0.0,0.0,1.0
1480971093282881141,496,1480971093280168181,,4.07189273834,-0.488375455141,159.799468994,0.00115200004075,1.0,0.0,0.0,0.0,1.0,0.0,0.0,0.0,1.0,0.243902444839,1.64634156227,-0.365853667259,1.0,0.0,0.0,0.0,1.0,0.0,0.0,0.0,1.0,0.215478149414,-0.138863696289,10.2615483154,1.0,0.0,0.0,0.0,1.0,0.0,0.0,0.0,1.0
1480971093303566122,497,1480971093301196703,,4.05572271347,-0.488217532635,159.781936646,0.00120499997865,1.0,0.0,0.0,0.0,1.0,0.0,0.0,0.0,1.0,-0.0609756112099,1.64634156227,-0.426829278469,1.0,0.0,0.0,0.0,1.0,0.0,0.0,0.0,1.0,0.15801730957,-0.134075302102,10.3285859619,1.0,0.0,0.0,0.0,1.0,0.0,0.0,0.0,1.0
1480971093324411833,498,1480971093321967518,,4.03893566132,-0.489021599293,159.764266968,0.00096700002905,1.0,0.0,0.0,0.0,1.0,0.0,0.0,0.0,1.0,0.12195122242,1.64634156227,-0.487804889679,1.0,0.0,0.0,0.0,1.0,0.0,0.0,0.0,1.0,0.15801730957,-0.162805712891,10.2232410889,1.0,0.0,0.0,0.0,1.0,0.0,0.0,0.0,1.0
1480971093350943617,499,1480971093343565674,,4.02529907227,-0.491990238428,159.746109009,0.00102500000503,1.0,0.0,0.0,0.0,1.0,0.0,0.0,0.0,1.0,-0.0609756112099,1.8902438879,-0.426829278469,1.0,0.0,0.0,0.0,1.0,0.0,0.0,0.0,1.0,0.129286889648,-0.114921679688,10.180145459,1.0,0.0,0.0,0.0,1.0,0.0,0.0,0.0,1.0
1480971093366163826,500,1480971093364092375,,4.01659107208,-0.490404903889,159.728408813,0.00115499994718,1.0,0.0,0.0,0.0,1.0,0.0,0.0,0.0,1.0,0.12195122242,2.13414645195,-0.365853667259,1.0,0.0,0.0,0.0,1.0,0.0,0.0,0.0,1.0,0.105344873047,-0.134075302102,10.2471831055,1.0,0.0,0.0,0.0,1.0,0.0,0.0,0.0,1.0
1480971093389543434,501,1480971093385338188,,4.00769329071,-0.49130910635,159.708709717,0.00124799995683,1.0,0.0,0.0,0.0,1.0,0.0,0.0,0.0,1.0,0.0,2.19512200356,-0.365853667259,1.0,0.0,0.0,0.0,1.0,0.0,0.0,0.0,1.0,0.205901342773,-0.076614453125,10.2471831055,1.0,0.0,0.0,0.0,1.0,0.0,0.0,0.0,1.0
1480971093407767538,502,1480971093406033846,,4.00403118134,-0.490764051676,159.692062378,0.00119099998847,1.0,0.0,0.0,0.0,1.0,0.0,0.0,0.0,1.0,0.12195122242,2.5,-0.426829278469,1.0,0.0,0.0,0.0,1.0,0.0,0.0,0.0,1.0,0.181959326172,-0.0957680664062,10.1514150391,1.0,0.0,0.0,0.0,1.0,0.0,0.0,0.0,1.0
1480971093429467464,503,1480971093427341378,,4.00373506546,-0.493155151606,159.671600342,0.00117299996782,1.0,0.0,0.0,0.0,1.0,0.0,0.0,0.0,1.0,-0.0609756112099,2.62195134163,-0.426829278469,1.0,0.0,0.0,0.0,1.0,0.0,0.0,0.0,1.0,0.196324536133,-0.110133276367,10.2567599121,1.0,0.0,0.0,0.0,1.0,0.0,0.0,0.0,1.0
1480971093450208436,504,1480971093448457816,,4.0072927475,-0.49376347661,159.650665283,0.00117099995259,1.0,0.0,0.0,0.0,1.0,0.0,0.0,0.0,1.0,0.0,2.86585378647,-0.853658556938,1.0,0.0,0.0,0.0,1.0,0.0,0.0,0.0,1.0,0.119710083008,-0.067037651051,10.2950671387,1.0,0.0,0.0,0.0,1.0,0.0,0.0,0.0,1.0
1480971093471240864,505,1480971093469517172,,4.01948833466,-0.492575496435,159.631088257,0.00127500004601,1.0,0.0,0.0,0.0,1.0,0.0,0.0,0.0,1.0,0.12195122242,3.04878044128,-0.487804889679,1.0,0.0,0.0,0.0,1.0,0.0,0.0,0.0,1.0,0.105344873047,-0.134075302102,10.2040874756,1.0,0.0,0.0,0.0,1.0,0.0,0.0,0.0,1.0
1480971093494139536,506,1480971093490341007,,4.03428030014,-0.493727833033,159.608657837,0.00130500004161,1.0,0.0,0.0,0.0,1.0,0.0,0.0,0.0,1.0,0.18292683363,3.10975623131,-0.365853667259,1.0,0.0,0.0,0.0,1.0,0.0,0.0,0.0,1.0,0.167594116211,-0.067037651051,10.2423947021,1.0,0.0,0.0,0.0,1.0,0.0,0.0,0.0,1.0
1480971093519100336,507,1480971093512088017,,4.05224514008,-0.492288708687,159.586517334,0.00249699992128,1.0,0.0,0.0,0.0,1.0,0.0,0.0,0.0,1.0,-0.12195122242,3.23170733452,-0.365853667259,1.0,0.0,0.0,0.0,1.0,0.0,0.0,0.0,1.0,0.148440512063,-0.138863696289,10.2615483154,1.0,0.0,0.0,0.0,1.0,0.0,0.0,0.0,1.0
1480971093537707408,508,1480971093533625964,,4.06743812561,-0.487500727177,159.566131592,0.00184899999294,1.0,0.0,0.0,0.0,1.0,0.0,0.0,0.0,1.0,0.243902444839,3.10975623131,-0.548780500889,1.0,0.0,0.0,0.0,1.0,0.0,0.0,0.0,1.0,0.134075302102,-0.0574608398438,10.3573163818,1.0,0.0,0.0,0.0,1.0,0.0,0.0,0.0,1.0
1480971093555865784,509,1480971093553496053,,4.0844502449,-0.484745621681,159.544830322,0.00263300002553,1.0,0.0,0.0,0.0,1.0,0.0,0.0,0.0,1.0,0.12195122242,2.92682933807,-0.426829278469,1.0,0.0,0.0,0.0,1.0,0.0,0.0,0.0,1.0,0.0526724365234,-0.110133276367,10.2711251221,1.0,0.0,0.0,0.0,1.0,0.0,0.0,0.0,1.0
1480971093577736699,510,1480971093574406867,,4.10076713562,-0.483679234982,159.521896362,0.00138999999035,1.0,0.0,0.0,0.0,1.0,0.0,0.0,0.0,1.0,-0.12195122242,2.92682933807,-0.548780500889,1.0,0.0,0.0,0.0,1.0,0.0,0.0,0.0,1.0,0.0335188255255,-0.119710083008,10.2902787354,1.0,0.0,0.0,0.0,1.0,0.0,0.0,0.0,1.0
1480971093597859495,511,1480971093595778044,,4.11063671112,-0.485434681177,159.501739502,0.0010529999854,1.0,0.0,0.0,0.0,1.0,0.0,0.0,0.0,1.0,-0.18292683363,2.62195134163,-0.304878056049,1.0,0.0,0.0,0.0,1.0,0.0,0.0,0.0,1.0,-0.0383072265625,-0.0383072265625,10.3237975586,1.0,0.0,0.0,0.0,1.0,0.0,0.0,0.0,1.0
1480971093618219270,512,1480971093616345318,,4.11172008514,-0.485194146633,159.481491089,0.00119900004938,1.0,0.0,0.0,0.0,1.0,0.0,0.0,0.0,1.0,0.0609756112099,1.8292683363,-0.487804889679,1.0,0.0,0.0,0.0,1.0,0.0,0.0,0.0,1.0,0.067037651051,-0.114921679688,10.2184526855,1.0,0.0,0.0,0.0,1.0,0.0,0.0,0.0,1.0
1480971093639983987,513,1480971093637537277,,4.10900211334,-0.483640104532,159.465270996,0.00117699999828,1.0,0.0,0.0,0.0,1.0,0.0,0.0,0.0,1.0,0.365853667259,1.95121955872,-0.243902444839,1.0,0.0,0.0,0.0,1.0,0.0,0.0,0.0,1.0,0.0957680664062,-0.15322890625,10.1753570557,1.0,0.0,0.0,0.0,1.0,0.0,0.0,0.0,1.0
1480971093660500011,514,1480971093658362571,,4.10133314133,-0.484933197498,159.44682312,0.00114299997222,1.0,0.0,0.0,0.0,1.0,0.0,0.0,0.0,1.0,0.0609756112099,1.70731711388,-0.426829278469,1.0,0.0,0.0,0.0,1.0,0.0,0.0,0.0,1.0,0.15801730957,-0.0814028564453,10.165780249,1.0,0.0,0.0,0.0,1.0,0.0,0.0,0.0,1.0
1480971093681507804,515,1480971093679452082,,4.0887260437,-0.484970390797,159.427856445,0.00107200001366,1.0,0.0,0.0,0.0,1.0,0.0,0.0,0.0,1.0,0.0609756112099,1.46341466904,-0.426829278469,1.0,0.0,0.0,0.0,1.0,0.0,0.0,0.0,1.0,0.138863696289,-0.0814028564453,10.3285859619,1.0,0.0,0.0,0.0,1.0,0.0,0.0,0.0,1.0
1480971093702809034,516,1480971093700224407,,4.07361412048,-0.487044155598,159.408615112,0.00113999994937,1.0,0.0,0.0,0.0,1.0,0.0,0.0,0.0,1.0,-0.0609756112099,1.58536589146,-0.365853667259,1.0,0.0,0.0,0.0,1.0,0.0,0.0,0.0,1.0,0.00957680664062,-0.129286889648,10.2759135254,1.0,0.0,0.0,0.0,1.0,0.0,0.0,0.0,1.0
1480971093722958132,517,1480971093720996212,,4.05616903305,-0.486098527908,159.389144897,0.00112399994396,1.0,0.0,0.0,0.0,1.0,0.0,0.0,0.0,1.0,0.18292683363,1.52439022064,-0.304878056049,1.0,0.0,0.0,0.0,1.0,0.0,0.0,0.0,1.0,0.148440512063,-0.067037651051,10.2232410889,1.0,0.0,0.0,0.0,1.0,0.0,0.0,0.0,1.0
1480971093744816860,518,1480971093742730773,,4.04268074036,-0.486184358597,159.369522095,0.00116999994498,1.0,0.0,0.0,0.0,1.0,0.0,0.0,0.0,1.0,-0.0609756112099,1.8292683363,-0.609756112099,1.0,0.0,0.0,0.0,1.0,0.0,0.0,0.0,1.0,0.0526724365234,-0.0574608398438,10.2232410889,1.0,0.0,0.0,0.0,1.0,0.0,0.0,0.0,1.0
1480971093765774705,519,1480971093763792576,,4.03037166595,-0.487345308065,159.352264404,0.00115899997763,1.0,0.0,0.0,0.0,1.0,0.0,0.0,0.0,1.0,0.18292683363,2.01219511032,-0.548780500889,1.0,0.0,0.0,0.0,1.0,0.0,0.0,0.0,1.0,0.148440512063,-0.114921679688,10.1945106689,1.0,0.0,0.0,0.0,1.0,0.0,0.0,0.0,1.0
1480971093787313277,520,1480971093785247503,,4.02252101898,-0.487444967031,159.335296631,0.00118599995039,1.0,0.0,0.0,0.0,1.0,0.0,0.0,0.0,1.0,0.0609756112099,1.95121955872,-0.487804889679,1.0,0.0,0.0,0.0,1.0,0.0,0.0,0.0,1.0,0.148440512063,-0.0622492431641,10.2471831055,1.0,0.0,0.0,0.0,1.0,0.0,0.0,0.0,1.0
1480971093808582320,521,1480971093806159359,,4.01580762863,-0.489561319351,159.315292358,0.00110899994615,1.0,0.0,0.0,0.0,1.0,0.0,0.0,0.0,1.0,-0.0609756112099,2.13414645195,-0.304878056049,1.0,0.0,0.0,0.0,1.0,0.0,0.0,0.0,1.0,0.15801730957,-0.148440512063,10.3046439453,1.0,0.0,0.0,0.0,1.0,0.0,0.0,0.0,1.0
1480971093828657668,522,1480971093827033715,,4.01349258423,-0.488084197044,159.294647217,0.00107799994294,1.0,0.0,0.0,0.0,1.0,0.0,0.0,0.0,1.0,0.12195122242,2.56097555161,-0.426829278469,1.0,0.0,0.0,0.0,1.0,0.0,0.0,0.0,1.0,0.0957680664062,-0.0239420166016,10.2280294922,1.0,0.0,0.0,0.0,1.0,0.0,0.0,0.0,1.0
1480971093850778843,523,1480971093848695985,,4.01428508759,-0.486700564623,159.274017334,0.00118899997324,1.0,0.0,0.0,0.0,1.0,0.0,0.0,0.0,1.0,0.18292683363,2.43902444839,-0.365853667259,1.0,0.0,0.0,0.0,1.0,0.0,0.0,0.0,1.0,0.124498486328,-0.076614453125,10.1562034424,1.0,0.0,0.0,0.0,1.0,0.0,0.0,0.0,1.0
1480971093872597050,524,1480971093870275547,,4.02235031128,-0.483699858189,159.252456665,0.00159899995197,1.0,0.0,0.0,0.0,1.0,0.0,0.0,0.0,1.0,0.0609756112099,2.62195134163,-0.243902444839,1.0,0.0,0.0,0.0,1.0,0.0,0.0,0.0,1.0,0.0861912597656,-0.076614453125,10.3094323486,1.0,0.0,0.0,0.0,1.0,0.0,0.0,0.0,1.0
1480971093894332080,525,1480971093891074903,,4.03306007385,-0.484828412533,159.232437134,0.00112499995157,1.0,0.0,0.0,0.0,1.0,0.0,0.0,0.0,1.0,0.0,2.92682933807,-0.670731723309,1.0,0.0,0.0,0.0,1.0,0.0,0.0,0.0,1.0,0.0430956298828,-0.110133276367,10.2280294922,1.0,0.0,0.0,0.0,1.0,0.0,0.0,0.0,1.0
1480971093915813777,526,1480971093911968530,,4.04290866852,-0.485444426537,159.208892822,0.00144300004467,1.0,0.0,0.0,0.0,1.0,0.0,0.0,0.0,1.0,0.243902444839,2.74390244484,-0.670731723309,1.0,0.0,0.0,0.0,1.0,0.0,0.0,0.0,1.0,0.114921679688,-0.15801730957,10.3237975586,1.0,0.0,0.0,0.0,1.0,0.0,0.0,0.0,1.0
1480971093935617252,527,1480971093933360957,,4.04842567444,-0.489867448807,159.187973022,0.00566700007766,1.0,0.0,0.0,0.0,1.0,0.0,0.0,0.0,1.0,0.12195122242,2.62195134163,-0.304878056049,1.0,0.0,0.0,0.0,1.0,0.0,0.0,0.0,1.0,0.119710083008,-0.167594116211,10.2232410889,1.0,0.0,0.0,0.0,1.0,0.0,0.0,0.0,1.0
1480971093956922544,528,1480971093954158959,,4.05546998978,-0.488815367222,159.169387817,0.00180399999954,1.0,0.0,0.0,0.0,1.0,0.0,0.0,0.0,1.0,-0.0609756112099,2.68292689323,-0.487804889679,1.0,0.0,0.0,0.0,1.0,0.0,0.0,0.0,1.0,0.100556469727,-0.0718260498047,10.1466266357,1.0,0.0,0.0,0.0,1.0,0.0,0.0,0.0,1.0
1480971093977671848,529,1480971093975647324,,4.05980396271,-0.489467591047,159.150680542,0.00121300003957,1.0,0.0,0.0,0.0,1.0,0.0,0.0,0.0,1.0,0.12195122242,2.5,-0.548780500889,1.0,0.0,0.0,0.0,1.0,0.0,0.0,0.0,1.0,0.143652099609,-0.119710083008,10.2088758789,1.0,0.0,0.0,0.0,1.0,0.0,0.0,0.0,1.0
1480971093998145841,530,1480971093996158869,,4.05951213837,-0.485927313566,159.131912231,0.0012009999482,1.0,0.0,0.0,0.0,1.0,0.0,0.0,0.0,1.0,0.304878056049,2.31707310677,-0.670731723309,1.0,0.0,0.0,0.0,1.0,0.0,0.0,0.0,1.0,0.0909796630859,-0.0861912597656,10.2423947021,1.0,0.0,0.0,0.0,1.0,0.0,0.0,0.0,1.0
1480971094019045926,531,1480971094016805100,,4.06017971039,-0.485736399889,159.115371704,0.00122600002214,1.0,0.0,0.0,0.0,1.0,0.0,0.0,0.0,1.0,-0.243902444839,2.31707310677,-0.487804889679,1.0,0.0,0.0,0.0,1.0,0.0,0.0,0.0,1.0,0.067037651051,-0.0383072265625,10.2280294922,1.0,0.0,0.0,0.0,1.0,0.0,0.0,0.0,1.0
1480971094039538669,532,1480971094037247583,,4.05483102798,-0.485657155514,159.095809937,0.00114800001029,1.0,0.0,0.0,0.0,1.0,0.0,0.0,0.0,1.0,0.12195122242,2.37804889679,-0.304878056049,1.0,0.0,0.0,0.0,1.0,0.0,0.0,0.0,1.0,0.119710083008,-0.134075302102,10.2759135254,1.0,0.0,0.0,0.0,1.0,0.0,0.0,0.0,1.0
1480971094060282452,533,1480971094058067877,,4.05209445953,-0.488207936287,159.07711792,0.00119400001131,1.0,0.0,0.0,0.0,1.0,0.0,0.0,0.0,1.0,0.0,2.07317066193,-0.365853667259,1.0,0.0,0.0,0.0,1.0,0.0,0.0,0.0,1.0,0.138863696289,-0.110133276367,10.3381627686,1.0,0.0,0.0,0.0,1.0,0.0,0.0,0.0,1.0
1480971094080639935,534,1480971094078639838,,4.04741477966,-0.489663988352,159.05809021,0.00115400005598,1.0,0.0,0.0,0.0,1.0,0.0,0.0,0.0,1.0,-0.12195122242,1.52439022064,-0.365853667259,1.0,0.0,0.0,0.0,1.0,0.0,0.0,0.0,1.0,0.143652099609,-0.0814028564453,10.2184526855,1.0,0.0,0.0,0.0,1.0,0.0,0.0,0.0,1.0
1480971094101489083,535,1480971094099288153,,4.03569698334,-0.491190552711,159.04069519,0.00103499996476,1.0,0.0,0.0,0.0,1.0,0.0,0.0,0.0,1.0,0.18292683363,1.34146344662,-0.243902444839,1.0,0.0,0.0,0.0,1.0,0.0,0.0,0.0,1.0,0.0718260498047,-0.0622492431641,10.2519715088,1.0,0.0,0.0,0.0,1.0,0.0,0.0,0.0,1.0
1480971094125292127,536,1480971094122770781,,4.01672315598,-0.491423994303,159.023132324,0.00456999987364,1.0,0.0,0.0,0.0,1.0,0.0,0.0,0.0,1.0,0.12195122242,1.46341466904,-0.243902444839,1.0,0.0,0.0,0.0,1.0,0.0,0.0,0.0,1.0,0.172382519531,-0.167594116211,10.2232410889,1.0,0.0,0.0,0.0,1.0,0.0,0.0,0.0,1.0
1480971094146556534,537,1480971094143778053,,3.99591779709,-0.490964472294,159.005935669,0.00125099997967,1.0,0.0,0.0,0.0,1.0,0.0,0.0,0.0,1.0,0.0609756112099,1.2804877758,-0.487804889679,1.0,0.0,0.0,0.0,1.0,0.0,0.0,0.0,1.0,0.134075302102,-0.119710083008,10.2136642822,1.0,0.0,0.0,0.0,1.0,0.0,0.0,0.0,1.0
1480971094166582559,538,1480971094164268400,,3.97236323357,-0.49046626687,158.989318848,0.00117499998305,1.0,0.0,0.0,0.0,1.0,0.0,0.0,0.0,1.0,0.0609756112099,1.40243899822,-0.12195122242,1.0,0.0,0.0,0.0,1.0,0.0,0.0,0.0,1.0,0.191536132812,-0.119710083008,10.1466266357,1.0,0.0,0.0,0.0,1.0,0.0,0.0,0.0,1.0
1480971094186991396,539,1480971094184802445,,3.95217323303,-0.491012275219,158.970504761,0.00148300000001,1.0,0.0,0.0,0.0,1.0,0.0,0.0,0.0,1.0,0.12195122242,1.52439022064,-0.426829278469,1.0,0.0,0.0,0.0,1.0,0.0,0.0,0.0,1.0,0.138863696289,-0.105344873047,10.2328178955,1.0,0.0,0.0,0.0,1.0,0.0,0.0,0.0,1.0
1480971094208820176,540,1480971094205925967,,3.93189716339,-0.490578085184,158.952148438,0.00129499996547,1.0,0.0,0.0,0.0,1.0,0.0,0.0,0.0,1.0,0.0,1.64634156227,-0.304878056049,1.0,0.0,0.0,0.0,1.0,0.0,0.0,0.0,1.0,0.105344873047,-0.0526724365234,10.2615483154,1.0,0.0,0.0,0.0,1.0,0.0,0.0,0.0,1.0
1480971094229190523,541,1480971094226387824,,3.91368508339,-0.493704110384,158.934143066,0.00128500000574,1.0,0.0,0.0,0.0,1.0,0.0,0.0,0.0,1.0,-0.0609756112099,1.40243899822,-0.0609756112099,1.0,0.0,0.0,0.0,1.0,0.0,0.0,0.0,1.0,0.162805712891,-0.138863696289,10.2184526855,1.0,0.0,0.0,0.0,1.0,0.0,0.0,0.0,1.0
1480971094252600756,542,1480971094247217076,,3.90135121346,-0.49319127202,158.915786743,0.00130200001877,1.0,0.0,0.0,0.0,1.0,0.0,0.0,0.0,1.0,-0.12195122242,2.01219511032,-0.731707334518,1.0,0.0,0.0,0.0,1.0,0.0,0.0,0.0,1.0,0.239420166016,-0.110133276367,10.1945106689,1.0,0.0,0.0,0.0,1.0,0.0,0.0,0.0,1.0
1480971094271475015,543,1480971094268462577,,3.88608050346,-0.494705796242,158.898590088,0.00122199999169,1.0,0.0,0.0,0.0,1.0,0.0,0.0,0.0,1.0,0.243902444839,1.8902438879,-0.487804889679,1.0,0.0,0.0,0.0,1.0,0.0,0.0,0.0,1.0,0.215478149414,-0.119710083008,10.1705686523,1.0,0.0,0.0,0.0,1.0,0.0,0.0,0.0,1.0
1480971094291731977,544,1480971094289053288,,3.87940263748,-0.494094252586,158.877578735,0.00133600004483,1.0,0.0,0.0,0.0,1.0,0.0,0.0,0.0,1.0,0.0,2.19512200356,-0.18292683363,1.0,0.0,0.0,0.0,1.0,0.0,0.0,0.0,1.0,0.172382519531,-0.191536132812,10.2471831055,1.0,0.0,0.0,0.0,1.0,0.0,0.0,0.0,1.0
1480971094317246317,545,1480971094311577586,,3.87527346611,-0.494616389275,158.855789185,0.00306000001729,1.0,0.0,0.0,0.0,1.0,0.0,0.0,0.0,1.0,0.12195122242,2.01219511032,-0.609756112099,1.0,0.0,0.0,0.0,1.0,0.0,0.0,0.0,1.0,0.100556469727,-0.067037651051,10.3716815918,1.0,0.0,0.0,0.0,1.0,0.0,0.0,0.0,1.0
1480971094336155524,546,1480971094333239804,,3.86935997009,-0.492734253407,158.835571289,0.0028919999022,1.0,0.0,0.0,0.0,1.0,0.0,0.0,0.0,1.0,0.0609756112099,1.70731711388,-0.609756112099,1.0,0.0,0.0,0.0,1.0,0.0,0.0,0.0,1.0,0.172382519531,-0.0622492431641,10.2232410889,1.0,0.0,0.0,0.0,1.0,0.0,0.0,0.0,1.0
1480971094356322330,547,1480971094353754005,,3.86180186272,-0.492061644793,158.81678772,0.00115000002552,1.0,0.0,0.0,0.0,1.0,0.0,0.0,0.0,1.0,-0.0609756112099,1.95121955872,-0.365853667259,1.0,0.0,0.0,0.0,1.0,0.0,0.0,0.0,1.0,0.129286889648,0.00478840332031,10.2088758789,1.0,0.0,0.0,0.0,1.0,0.0,0.0,0.0,1.0
1480971094377696840,548,1480971094374871850,,3.85522699356,-0.492042243481,158.798233032,0.00175199995283,1.0,0.0,0.0,0.0,1.0,0.0,0.0,0.0,1.0,0.304878056049,1.64634156227,-0.365853667259,1.0,0.0,0.0,0.0,1.0,0.0,0.0,0.0,1.0,0.0909796630859,-0.0718260498047,10.2711251221,1.0,0.0,0.0,0.0,1.0,0.0,0.0,0.0,1.0
1480971094398253489,549,1480971094395975945,,3.83637142181,-0.489597767591,158.78024292,0.0012309999438,1.0,0.0,0.0,0.0,1.0,0.0,0.0,0.0,1.0,0.243902444839,1.2195122242,-0.365853667259,1.0,0.0,0.0,0.0,1.0,0.0,0.0,0.0,1.0,0.148440512063,0.0287304199219,10.2567599121,1.0,0.0,0.0,0.0,1.0,0.0,0.0,0.0,1.0
1480971094418701961,550,1480971094416600354,,3.81165575981,-0.491077065468,158.762771606,0.00110200000927,1.0,0.0,0.0,0.0,1.0,0.0,0.0,0.0,1.0,0.0609756112099,1.2195122242,-0.304878056049,1.0,0.0,0.0,0.0,1.0,0.0,0.0,0.0,1.0,0.134075302102,-0.0143652099609,10.1418382324,1.0,0.0,0.0,0.0,1.0,0.0,0.0,0.0,1.0
1480971094439790171,551,1480971094437627730,,3.78966188431,-0.493254601955,158.74710083,0.00118899997324,1.0,0.0,0.0,0.0,1.0,0.0,0.0,0.0,1.0,0.18292683363,1.40243899822,-0.0609756112099,1.0,0.0,0.0,0.0,1.0,0.0,0.0,0.0,1.0,0.124498486328,-0.067037651051,10.2759135254,1.0,0.0,0.0,0.0,1.0,0.0,0.0,0.0,1.0
1480971094460480569,552,1480971094458191514,,3.79006242752,-0.49087741971,158.72038269,0.00113300001249,1.0,0.0,0.0,0.0,1.0,0.0,0.0,0.0,1.0,-0.0609756112099,0.18292683363,-0.609756112099,1.0,0.0,0.0,0.0,1.0,0.0,0.0,0.0,1.0,-1.01514150391,0.287304199219,10.1131078125,1.0,0.0,0.0,0.0,1.0,0.0,0.0,0.0,1.0
1480971094481433466,553,1480971094479260974,,3.71514868736,-0.47264778614,158.706954956,0.00115899997763,1.0,0.0,0.0,0.0,1.0,0.0,0.0,0.0,1.0,4.20731735229,1.8902438879,0.548780500889,1.0,0.0,0.0,0.0,1.0,0.0,0.0,0.0,1.0,0.622492431641,0.0861912597656,10.4866032715,1.0,0.0,0.0,0.0,1.0,0.0,0.0,0.0,1.0
1480971094503178236,554,1480971094500697151,,3.72133493423,-0.432062268257,158.708969116,0.00130500004161,1.0,0.0,0.0,0.0,1.0,0.0,0.0,0.0,1.0,1.15853655338,-3.29268312454,-2.07317066193,1.0,0.0,0.0,0.0,1.0,0.0,0.0,0.0,1.0,0.205901342773,0.521935925381,10.3812583984,1.0,0.0,0.0,0.0,1.0,0.0,0.0,0.0,1.0
1480971094530527831,555,1480971094522861555,,3.62591099739,-0.423740178347,158.666763306,0.00196100003086,1.0,0.0,0.0,0.0,1.0,0.0,0.0,0.0,1.0,0.0,-5.0,-0.304878056049,1.0,0.0,0.0,0.0,1.0,0.0,0.0,0.0,1.0,-0.526724328702,-0.205901342773,10.2615483154,1.0,0.0,0.0,0.0,1.0,0.0,0.0,0.0,1.0
1480971094545240020,556,1480971094543347266,,3.50877285004,-0.419886916876,158.704559326,0.00121100002434,1.0,0.0,0.0,0.0,1.0,0.0,0.0,0.0,1.0,-1.2804877758,-2.19512200356,2.86585378647,1.0,0.0,0.0,0.0,1.0,0.0,0.0,0.0,1.0,0.277727392578,0.0287304199219,10.2232410889,1.0,0.0,0.0,0.0,1.0,0.0,0.0,0.0,1.0
1480971094566135626,557,1480971094563539489,,3.3793964386,-0.442784756422,158.711471558,0.00192900002003,1.0,0.0,0.0,0.0,1.0,0.0,0.0,0.0,1.0,-0.243902444839,-6.7682929039,-0.0609756112099,1.0,0.0,0.0,0.0,1.0,0.0,0.0,0.0,1.0,0.373495458984,-0.0191536132812,10.2232410889,1.0,0.0,0.0,0.0,1.0,0.0,0.0,0.0,1.0
1480971094586868576,558,1480971094584486970,,3.18687343597,-0.448627233505,158.674102783,0.00111700000707,1.0,0.0,0.0,0.0,1.0,0.0,0.0,0.0,1.0,-0.426829278469,-4.69512224197,-1.09756100178,1.0,0.0,0.0,0.0,1.0,0.0,0.0,0.0,1.0,0.181959326172,-0.067037651051,10.2088758789,1.0,0.0,0.0,0.0,1.0,0.0,0.0,0.0,1.0
1480971094607796109,559,1480971094605610283,,3.04380083084,-0.450818300247,158.683151245,0.0012309999438,1.0,0.0,0.0,0.0,1.0,0.0,0.0,0.0,1.0,0.853658556938,-2.86585378647,2.37804889679,1.0,0.0,0.0,0.0,1.0,0.0,0.0,0.0,1.0,1.01035310059,0.201112939453,9.94072529297,1.0,0.0,0.0,0.0,1.0,0.0,0.0,0.0,1.0
1480971094628344946,560,1480971094626103286,,2.95655870438,-0.403888940811,158.702804565,0.00113999994937,1.0,0.0,0.0,0.0,1.0,0.0,0.0,0.0,1.0,2.25609779358,-2.74390244484,1.95121955872,1.0,0.0,0.0,0.0,1.0,0.0,0.0,0.0,1.0,0.430956298828,0.205901342773,10.180145459,1.0,0.0,0.0,0.0,1.0,0.0,0.0,0.0,1.0
1480971094650390652,561,1480971094647701130,,2.80299663544,-0.288989394903,158.737838745,0.00110100000165,1.0,0.0,0.0,0.0,1.0,0.0,0.0,0.0,1.0,2.92682933807,-1.34146344662,1.64634156227,1.0,0.0,0.0,0.0,1.0,0.0,0.0,0.0,1.0,0.933738647461,0.881066210937,10.1609918457,1.0,0.0,0.0,0.0,1.0,0.0,0.0,0.0,1.0
1480971094671534382,562,1480971094669270067,,2.72187495232,0.0161369796842,158.774765015,0.00123599998187,1.0,0.0,0.0,0.0,1.0,0.0,0.0,0.0,1.0,7.62195110321,3.35365867615,3.59756112099,1.0,0.0,0.0,0.0,1.0,0.0,0.0,0.0,1.0,0.531512805087,0.809240161133,9.63426806499,1.0,0.0,0.0,0.0,1.0,0.0,0.0,0.0,1.0
1480971094693628005,563,1480971094689600622,,2.65137386322,0.749156534672,158.768600464,0.0013490000274,1.0,0.0,0.0,0.0,1.0,0.0,0.0,0.0,1.0,14.0853662491,7.31707334518,0.548780500889,1.0,0.0,0.0,0.0,1.0,0.0,0.0,0.0,1.0,-0.0430956298828,1.15879360352,9.81143840332,1.0,0.0,0.0,0.0,1.0,0.0,0.0,0.0,1.0
1480971094712993199,564,1480971094710967268,,2.77811694145,1.24716615677,158.815429688,0.00180600001477,1.0,0.0,0.0,0.0,1.0,0.0,0.0,0.0,1.0,3.04878044128,2.98780488968,0.853658556938,1.0,0.0,0.0,0.0,1.0,0.0,0.0,0.0,1.0,1.52750065918,2.42293208008,11.7890489746,1.0,0.0,0.0,0.0,1.0,0.0,0.0,0.0,1.0
1480971094735591768,565,1480971094732461935,,2.9278190136,1.51882982254,158.798797607,0.00144100002944,1.0,0.0,0.0,0.0,1.0,0.0,0.0,0.0,1.0,3.17073178291,4.75609779358,0.0,1.0,0.0,0.0,0.0,1.0,0.0,0.0,0.0,1.0,-0.852335791016,2.53785375977,10.2807019287,1.0,0.0,0.0,0.0,1.0,0.0,0.0,0.0,1.0
1480971094755622481,566,1480971094753408582,,3.00510644913,1.81758880615,158.872512817,0.00158399995416,1.0,0.0,0.0,0.0,1.0,0.0,0.0,0.0,1.0,-0.12195122242,4.39024400711,5.06097555161,1.0,0.0,0.0,0.0,1.0,0.0,0.0,0.0,1.0,-0.316034619141,3.54341845703,10.2759135254,1.0,0.0,0.0,0.0,1.0,0.0,0.0,0.0,1.0
1480971094776304754,567,1480971094774021845,,3.07119369507,2.10163831711,158.98387146,0.00185200001579,1.0,0.0,0.0,0.0,1.0,0.0,0.0,0.0,1.0,0.365853667259,-0.792682945728,6.28048801422,1.0,0.0,0.0,0.0,1.0,0.0,0.0,0.0,1.0,-0.368707055664,3.21780703125,9.46667277974,1.0,0.0,0.0,0.0,1.0,0.0,0.0,0.0,1.0
1480971094797280360,568,1480971094795226877,,3.05616140366,2.40181946754,159.122314453,0.00112300005276,1.0,0.0,0.0,0.0,1.0,0.0,0.0,0.0,1.0,1.2804877758,-4.39024400711,5.73170757294,1.0,0.0,0.0,0.0,1.0,0.0,0.0,0.0,1.0,-1.55144267578,2.41335541957,11.0660000732,1.0,0.0,0.0,0.0,1.0,0.0,0.0,0.0,1.0
1480971094817465812,569,1480971094815558110,,2.91392397881,2.69920635223,159.246398926,0.00111700000707,1.0,0.0,0.0,0.0,1.0,0.0,0.0,0.0,1.0,-4.08536577225,-7.92682981491,6.64634132385,1.0,0.0,0.0,0.0,1.0,0.0,0.0,0.0,1.0,-0.9193734375,2.20266552734,12.5073094727,1.0,0.0,0.0,0.0,1.0,0.0,0.0,0.0,1.0
1480971094838430272,570,1480971094836347467,,2.66683220863,3.11859536171,159.442260742,0.00105700001586,1.0,0.0,0.0,0.0,1.0,0.0,0.0,0.0,1.0,4.57317066193,-12.0731716156,11.7073173523,1.0,0.0,0.0,0.0,1.0,0.0,0.0,0.0,1.0,0.92416184082,4.60165559082,8.88248815918,1.0,0.0,0.0,0.0,1.0,0.0,0.0,0.0,1.0
1480971094859597231,571,1480971094857658332,,2.34141945839,3.69724440575,159.742172241,0.00101699994411,1.0,0.0,0.0,0.0,1.0,0.0,0.0,0.0,1.0,8.65853691101,-6.7682929039,14.2682924271,1.0,0.0,0.0,0.0,1.0,0.0,0.0,0.0,1.0,0.679953271484,9.02614025879,9.66778688823,1.0,0.0,0.0,0.0,1.0,0.0,0.0,0.0,1.0
1480971094880673618,572,1480971094878615291,,2.21244692802,4.14299535751,160.078231812,0.00109799997881,1.0,0.0,0.0,0.0,1.0,0.0,0.0,0.0,1.0,3.17073178291,3.90243911743,15.9146347046,1.0,0.0,0.0,0.0,1.0,0.0,0.0,0.0,1.0,0.167594116211,2.56658417969,14.2646534912,1.0,0.0,0.0,0.0,1.0,0.0,0.0,0.0,1.0
1480971094901254225,573,1480971094899075691,,2.2194507122,4.51990318298,160.417816162,0.000983000034466,1.0,0.0,0.0,0.0,1.0,0.0,0.0,0.0,1.0,4.51219558716,-3.84146332741,17.7439022064,1.0,0.0,0.0,0.0,1.0,0.0,0.0,0.0,1.0,0.972045874023,7.57046564941,7.27837304687,1.0,0.0,0.0,0.0,1.0,0.0,0.0,0.0,1.0
1480971094922582902,574,1480971094919817182,,2.28922915459,5.18542671204,160.772140503,0.00121799996123,1.0,0.0,0.0,0.0,1.0,0.0,0.0,0.0,1.0,22.9878044128,11.0975618362,17.7439022064,1.0,0.0,0.0,0.0,1.0,0.0,0.0,0.0,1.0,-0.76614453125,5.72693037109,8.21690009766,1.0,0.0,0.0,0.0,1.0,0.0,0.0,0.0,1.0
1480971094942136742,575,1480971094940322477,,2.59703588486,5.26790094376,161.180221558,0.00098600005731,1.0,0.0,0.0,0.0,1.0,0.0,0.0,0.0,1.0,4.2682929039,32.7439041138,7.19512224197,1.0,0.0,0.0,0.0,1.0,0.0,0.0,0.0,1.0,0.0287304199219,-12.8520745117,17.5542865723,1.0,0.0,0.0,0.0,1.0,0.0,0.0,0.0,1.0
1480971094965331715,576,1480971094960993240,,2.65695476532,6.19091176987,161.529937744,0.000977999996394,1.0,0.0,0.0,0.0,1.0,0.0,0.0,0.0,1.0,-78.9024429321,18.9634151459,25.3048782349,1.0,0.0,0.0,0.0,1.0,0.0,0.0,0.0,1.0,6.14830986328,14.9589719727,4.56813676758,1.0,0.0,0.0,0.0,1.0,0.0,0.0,0.0,1.0
1480971094985252220,577,1480971094981929783,,3.18863391876,7.21781349182,161.791870117,0.00100599997677,1.0,0.0,0.0,0.0,1.0,0.0,0.0,0.0,1.0,-20.8536586761,-0.548780500889,52.0121955872,1.0,0.0,0.0,0.0,1.0,0.0,0.0,0.0,1.0,-3.28005627441,18.6029468994,2.53785375977,1.0,0.0,0.0,0.0,1.0,0.0,0.0,0.0,1.0
1480971095004702258,578,1480971095002605130,,3.46547698975,7.51835393906,162.354995728,0.00104999996256,1.0,0.0,0.0,0.0,1.0,0.0,0.0,0.0,1.0,-19.0243911743,49.817073822,28.6585388184,1.0,0.0,0.0,0.0,1.0,0.0,0.0,0.0,1.0,-1.56101948242,2.23618435059,12.7994020752,1.0,0.0,0.0,0.0,1.0,0.0,0.0,0.0,1.0
1480971095026983328,579,1480971095024265160,,3.81173610687,7.48203325272,162.910476685,0.00159899995197,1.0,0.0,0.0,0.0,1.0,0.0,0.0,0.0,1.0,-67.0121994019,45.4878082275,18.475610733,1.0,0.0,0.0,0.0,1.0,0.0,0.0,0.0,1.0,4.0078935791,-5.36301171875,11.8656634277,1.0,0.0,0.0,0.0,1.0,0.0,0.0,0.0,1.0
1480971095049849552,580,1480971095046656855,,4.18132972717,7.91041278839,163.530288696,0.00101999996696,1.0,0.0,0.0,0.0,1.0,0.0,0.0,0.0,1.0,-31.6463413239,14.3292694092,24.6341457367,1.0,0.0,0.0,0.0,1.0,0.0,0.0,0.0,1.0,1.35511813965,18.7513862333,3.62003291016,1.0,0.0,0.0,0.0,1.0,0.0,0.0,0.0,1.0
1480971095072684162,581,1480971095068210011,,4.81650590897,7.94385433197,164.148254395,0.00263600004837,1.0,0.0,0.0,0.0,1.0,0.0,0.0,0.0,1.0,-6.0365858078,36.0365867615,23.2317085266,1.0,0.0,0.0,0.0,1.0,0.0,0.0,0.0,1.0,-2.1930887207,6.44040246582,7.23527741699,1.0,0.0,0.0,0.0,1.0,0.0,0.0,0.0,1.0
1480971095091747639,582,1480971095089517907,,5.36554527283,8.55062103271,164.74810791,0.00102399999741,1.0,0.0,0.0,0.0,1.0,0.0,0.0,0.0,1.0,-32.5609779358,9.5731716156,21.2804889679,1.0,0.0,0.0,0.0,1.0,0.0,0.0,0.0,1.0,1.91536132812,12.9047469482,2.08774370153,1.0,0.0,0.0,0.0,1.0,0.0,0.0,0.0,1.0
1480971095112915379,583,1480971095110618095,,6.00494670868,8.40654468536,165.239395142,0.00121300003957,1.0,0.0,0.0,0.0,1.0,0.0,0.0,0.0,1.0,17.6829280853,25.1219520569,21.8902435303,1.0,0.0,0.0,0.0,1.0,0.0,0.0,0.0,1.0,-2.5234885498,-1.19710090314,10.9558667969,1.0,0.0,0.0,0.0,1.0,0.0,0.0,0.0,1.0
1480971095134315411,584,1480971095132086199,,6.42326927185,8.83602237701,165.718063354,0.0011569999624,1.0,0.0,0.0,0.0,1.0,0.0,0.0,0.0,1.0,-28.2926845551,30.1219520569,16.5853652954,1.0,0.0,0.0,0.0,1.0,0.0,0.0,0.0,1.0,0.162805712891,3.88339509277,11.9039706543,1.0,0.0,0.0,0.0,1.0,0.0,0.0,0.0,1.0
1480971095154736851,585,1480971095152608057,,6.99071311951,9.0529756546,166.066558838,0.00129100005142,1.0,0.0,0.0,0.0,1.0,0.0,0.0,0.0,1.0,-1.46341466904,-5.12195110321,5.54878091812,1.0,0.0,0.0,0.0,1.0,0.0,0.0,0.0,1.0,-3.62482131348,14.9924907959,5.96156213379,1.0,0.0,0.0,0.0,1.0,0.0,0.0,0.0,1.0
1480971095175316469,586,1480971095173332465,,7.2156252861,9.07122039795,166.363723755,0.00112599995919,1.0,0.0,0.0,0.0,1.0,0.0,0.0,0.0,1.0,-44.0853652954,38.9024391174,5.24390268326,1.0,0.0,0.0,0.0,1.0,0.0,0.0,0.0,1.0,0.373495458984,7.32146867676,12.7467296387,1.0,0.0,0.0,0.0,1.0,0.0,0.0,0.0,1.0
1480971095196153898,587,1480971095193902968,,7.48151302338,9.47781276703,166.448471069,0.0012009999482,1.0,0.0,0.0,0.0,1.0,0.0,0.0,0.0,1.0,-26.8292694092,-1.46341466904,0.365853667259,1.0,0.0,0.0,0.0,1.0,0.0,0.0,0.0,1.0,-3.1124621582,9.58638403179,6.04775339355,1.0,0.0,0.0,0.0,1.0,0.0,0.0,0.0,1.0
1480971095216848411,588,1480971095214854824,,7.37730789185,9.27804470062,166.656402588,0.000990999978967,1.0,0.0,0.0,0.0,1.0,0.0,0.0,0.0,1.0,29.6341457367,7.19512224197,8.78048801422,1.0,0.0,0.0,0.0,1.0,0.0,0.0,0.0,1.0,4.18985261301,-5.61679709473,10.6158901611,1.0,0.0,0.0,0.0,1.0,0.0,0.0,0.0,1.0
1480971095237838704,589,1480971095235596159,,7.60629367828,9.9718170166,166.986495972,0.00096700002905,1.0,0.0,0.0,0.0,1.0,0.0,0.0,0.0,1.0,0.304878056049,12.7439022064,15.4878053665,1.0,0.0,0.0,0.0,1.0,0.0,0.0,0.0,1.0,-0.493205541992,-1.19710090314,12.24394729,1.0,0.0,0.0,0.0,1.0,0.0,0.0,0.0,1.0
1480971095258842487,590,1480971095256820671,,7.68975257874,10.3019371033,167.223754883,0.000967999978457,1.0,0.0,0.0,0.0,1.0,0.0,0.0,0.0,1.0,82.1951293945,-25.7926845551,2.07317066193,1.0,0.0,0.0,0.0,1.0,0.0,0.0,0.0,1.0,-0.842758984375,7.67581052246,7.03895288086,1.0,0.0,0.0,0.0,1.0,0.0,0.0,0.0,1.0
1480971095279581635,591,1480971095277618516,,7.76080036163,10.7646522522,167.591323853,0.00096700002905,1.0,0.0,0.0,0.0,1.0,0.0,0.0,0.0,1.0,-41.2195129395,34.2073173523,10.9756097794,1.0,0.0,0.0,0.0,1.0,0.0,0.0,0.0,1.0,1.17794714373,1.35511813965,8.06845959473,1.0,0.0,0.0,0.0,1.0,0.0,0.0,0.0,1.0
1480971095300754323,592,1480971095298765944,,8.04946422577,11.2372503281,167.872390747,0.000975999981165,1.0,0.0,0.0,0.0,1.0,0.0,0.0,0.0,1.0,-10.2439022064,-9.5731716156,15.6707315445,1.0,0.0,0.0,0.0,1.0,0.0,0.0,0.0,1.0,-4.12760366211,10.405200415,2.23139594727,1.0,0.0,0.0,0.0,1.0,0.0,0.0,0.0,1.0
1480971095321483888,593,1480971095319342697,,7.99886035919,11.9727334976,168.172805786,0.00112000002991,1.0,0.0,0.0,0.0,1.0,0.0,0.0,0.0,1.0,62.9268302917,31.2804889679,30.0000019073,1.0,0.0,0.0,0.0,1.0,0.0,0.0,0.0,1.0,-0.0383072265625,9.10754311523,15.5718875977,1.0,0.0,0.0,0.0,1.0,0.0,0.0,0.0,1.0
1480971095342699649,594,1480971095340371584,,8.17960453033,12.1334381104,169.027175903,0.00100299995393,1.0,0.0,0.0,0.0,1.0,0.0,0.0,0.0,1.0,-6.0365858078,40.7317085266,27.8048782349,1.0,0.0,0.0,0.0,1.0,0.0,0.0,0.0,1.0,0.0335188255255,2.41335541957,8.87769975586,1.0,0.0,0.0,0.0,1.0,0.0,0.0,0.0,1.0
1480971095363659942,595,1480971095361640157,,8.81377220154,12.3581581116,169.901641846,0.000996000017039,1.0,0.0,0.0,0.0,1.0,0.0,0.0,0.0,1.0,64.8780441284,13.3536586761,31.4024391174,1.0,0.0,0.0,0.0,1.0,0.0,0.0,0.0,1.0,1.31681091309,16.3428217013,-1.88184250488,1.0,0.0,0.0,0.0,1.0,0.0,0.0,0.0,1.0
1480971095385014661,596,1480971095383044199,,10.3632993698,11.8762483597,170.779647827,0.00101200002246,1.0,0.0,0.0,0.0,1.0,0.0,0.0,0.0,1.0,-18.658536911,85.9146347046,8.35365867615,1.0,0.0,0.0,0.0,1.0,0.0,0.0,0.0,1.0,-3.15555778809,-11.7603185547,19.3930334473,1.0,0.0,0.0,0.0,1.0,0.0,0.0,0.0,1.0
1480971095405700268,597,1480971095403978972,,12.0003509521,11.7416715622,171.383804321,0.00107100000605,1.0,0.0,0.0,0.0,1.0,0.0,0.0,0.0,1.0,-105.914634705,150.365859985,-8.47560977936,1.0,0.0,0.0,0.0,1.0,0.0,0.0,0.0,1.0,2.05901342773,-3.22259543457,7.65665690918,1.0,0.0,0.0,0.0,1.0,0.0,0.0,0.0,1.0
1480971095430214455,598,1480971095424620360,,14.0370512009,11.1204299927,171.471374512,0.00100899999961,1.0,0.0,0.0,0.0,1.0,0.0,0.0,0.0,1.0,41.8292694092,75.7926864624,-1.70731711388,1.0,0.0,0.0,0.0,1.0,0.0,0.0,0.0,1.0,-4.90811340332,-1.56101948242,9.82580361328,1.0,0.0,0.0,0.0,1.0,0.0,0.0,0.0,1.0
1480971095451140165,599,1480971095447070700,,15.2902297974,11.7265605927,171.400527954,0.000974000024144,1.0,0.0,0.0,0.0,1.0,0.0,0.0,0.0,1.0,-9.45121955872,75.0,-36.6463432312,1.0,0.0,0.0,0.0,1.0,0.0,0.0,0.0,1.0,1.59453830566,5.8705824707,14.1784622314,1.0,0.0,0.0,0.0,1.0,0.0,0.0,0.0,1.0
1480971095470854942,600,1480971095467858442,,16.6298618317,11.5375156403,171.136688232,0.000975999981165,1.0,0.0,0.0,0.0,1.0,0.0,0.0,0.0,1.0,-15.3048791885,46.5243911743,-27.1951236725,1.0,0.0,0.0,0.0,1.0,0.0,0.0,0.0,1.0,5.2816088623,1.91536132812,5.77002600098,1.0,0.0,0.0,0.0,1.0,0.0,0.0,0.0,1.0
1480971095491247789,601,1480971095488116810,,17.8834171295,11.6017894745,170.756286621,0.00264899991453,1.0,0.0,0.0,0.0,1.0,0.0,0.0,0.0,1.0,-39.634147644,78.9634170532,-11.2804880142,1.0,0.0,0.0,0.0,1.0,0.0,0.0,0.0,1.0,0.335188232422,8.16901606445,11.7028577148,1.0,0.0,0.0,0.0,1.0,0.0,0.0,0.0,1.0
1480971095510799181,602,1480971095509017677,,19.0422439575,11.0225477219,170.122848511,0.00116999994498,1.0,0.0,0.0,0.0,1.0,0.0,0.0,0.0,1.0,38.9024391174,70.8536605835,-40.5487823486,1.0,0.0,0.0,0.0,1.0,0.0,0.0,0.0,1.0,1.57059628906,-5.35822331543,8.528146898,1.0,0.0,0.0,0.0,1.0,0.0,0.0,0.0,1.0
1480971095531787130,603,1480971095530104323,,19.5101051331,10.7442789078,169.620895386,0.00161200005095,1.0,0.0,0.0,0.0,1.0,0.0,0.0,0.0,1.0,-111.28049469,85.7926864624,-55.9146347046,1.0,0.0,0.0,0.0,1.0,0.0,0.0,0.0,1.0,8.54251210796,-3.16034619141,7.62792648926,1.0,0.0,0.0,0.0,1.0,0.0,0.0,0.0,1.0
1480971095553979607,604,1480971095551641073,,20.3945884705,11.2699155807,168.625457764,0.00126699998509,1.0,0.0,0.0,0.0,1.0,0.0,0.0,0.0,1.0,8.04878044128,-35.2439041138,-39.6951217651,1.0,0.0,0.0,0.0,1.0,0.0,0.0,0.0,1.0,-5.33428129883,19.9197578125,8.89685336914,1.0,0.0,0.0,0.0,1.0,0.0,0.0,0.0,1.0
1480971095574607766,605,1480971095572853709,,20.5645160675,11.1808748245,167.413146973,0.00109499995597,1.0,0.0,0.0,0.0,1.0,0.0,0.0,0.0,1.0,75.8536605835,-104.268295288,-54.0243911743,1.0,0.0,0.0,0.0,1.0,0.0,0.0,0.0,1.0,9.01656345215,17.7937067383,12.0763531738,1.0,0.0,0.0,0.0,1.0,0.0,0.0,0.0,1.0
1480971095595527226,606,1480971095593508639,,20.7881526947,10.5596933365,166.493148804,0.00106299994513,1.0,0.0,0.0,0.0,1.0,0.0,0.0,0.0,1.0,-20.6707324982,17.5609760284,-35.3658561707,1.0,0.0,0.0,0.0,1.0,0.0,0.0,0.0,1.0,3.48116921387,8.4802628648,12.3061965332,1.0,0.0,0.0,0.0,1.0,0.0,0.0,0.0,1.0
1480971095620734380,607,1480971095614430495,,21.0514183044,9.90378952026,165.318222046,0.00121400004718,1.0,0.0,0.0,0.0,1.0,0.0,0.0,0.0,1.0,106.036590576,-12.6829271317,-47.0121994019,1.0,0.0,0.0,0.0,1.0,0.0,0.0,0.0,1.0,-13.2495119873,-7.63271489258,7.16823977051,1.0,0.0,0.0,0.0,1.0,0.0,0.0,0.0,1.0
1480971095639458378,608,1480971095635726568,,20.7190227509,9.09379959106,163.880981445,0.00251100002788,1.0,0.0,0.0,0.0,1.0,0.0,0.0,0.0,1.0,143.902435303,-107.134147644,-63.3536567688,1.0,0.0,0.0,0.0,1.0,0.0,0.0,0.0,1.0,-7.55131203613,7.21133540039,20.7960356201,1.0,0.0,0.0,0.0,1.0,0.0,0.0,0.0,1.0
1480971095659384144,609,1480971095655595667,,20.0749034882,9.69858074188,162.868667603,0.00144799996633,1.0,0.0,0.0,0.0,1.0,0.0,0.0,0.0,1.0,-24.5121955872,-20.6097564697,-54.207321167,1.0,0.0,0.0,0.0,1.0,0.0,0.0,0.0,1.0,-1.96324536133,8.3270327895,10.1418382324,1.0,0.0,0.0,0.0,1.0,0.0,0.0,0.0,1.0
1480971095679271837,610,1480971095676485440,,18.5881729126,10.9177370071,161.665512085,0.000977999996394,1.0,0.0,0.0,0.0,1.0,0.0,0.0,0.0,1.0,-92.1951293945,-92.0731735229,7.86585378647,1.0,0.0,0.0,0.0,1.0,0.0,0.0,0.0,1.0,-1.24498486328,23.4679646729,14.9015111328,1.0,0.0,0.0,0.0,1.0,0.0,0.0,0.0,1.0
1480971095700356400,611,1480971095697678441,,17.3394203186,10.7234354019,159.996871948,0.00110500003211,1.0,0.0,0.0,0.0,1.0,0.0,0.0,0.0,1.0,-21.7073173523,-72.8658599854,7.50000047684,1.0,0.0,0.0,0.0,1.0,0.0,0.0,0.0,1.0,-0.234631762695,10.7356002441,17.1329082491,1.0,0.0,0.0,0.0,1.0,0.0,0.0,0.0,1.0
1480971095720639925,612,1480971095718258527,,15.7059898376,10.5101184845,158.876815796,0.00117499998305,1.0,0.0,0.0,0.0,1.0,0.0,0.0,0.0,1.0,-45.9146347046,-115.670730591,-49.9390258789,1.0,0.0,0.0,0.0,1.0,0.0,0.0,0.0,1.0,2.89219560547,6.33505759277,10.3237975586,1.0,0.0,0.0,0.0,1.0,0.0,0.0,0.0,1.0
1480971095741679384,613,1480971095739227049,,13.3848705292,11.4123926163,157.529403687,0.000990999978967,1.0,0.0,0.0,0.0,1.0,0.0,0.0,0.0,1.0,-15.0000009537,-38.4146347046,-12.5,1.0,0.0,0.0,0.0,1.0,0.0,0.0,0.0,1.0,2.89219560547,6.29675036621,16.8456017118,1.0,0.0,0.0,0.0,1.0,0.0,0.0,0.0,1.0
1480971095770504286,614,1480971095760553383,,11.084104538,11.1305017471,156.16065979,0.000973000016529,1.0,0.0,0.0,0.0,1.0,0.0,0.0,0.0,1.0,-73.0487823486,-92.8658599854,-29.5121974945,1.0,0.0,0.0,0.0,1.0,0.0,0.0,0.0,1.0,-1.20188930646,0.0,7.30231506348,1.0,0.0,0.0,0.0,1.0,0.0,0.0,0.0,1.0
1480971095787655947,615,1480971095783876116,,8.66862297058,11.3509721756,154.857406616,0.00389300007373,1.0,0.0,0.0,0.0,1.0,0.0,0.0,0.0,1.0,-68.4756164551,-66.3414611816,-62.4390258789,1.0,0.0,0.0,0.0,1.0,0.0,0.0,0.0,1.0,-0.723048901367,-8.13070883789,27.6338755615,1.0,0.0,0.0,0.0,1.0,0.0,0.0,0.0,1.0
1480971095811913312,616,1480971095804679587,,5.91458749771,12.1422271729,153.873321533,0.000990999978967,1.0,0.0,0.0,0.0,1.0,0.0,0.0,0.0,1.0,-92.3170776367,-144.817077637,-28.5365848541,1.0,0.0,0.0,0.0,1.0,0.0,0.0,0.0,1.0,3.84508786621,8.93037219238,-1.67594116211,1.0,0.0,0.0,0.0,1.0,0.0,0.0,0.0,1.0
1480971095831412569,617,1480971095828610391,,3.64122223854,11.9810400009,152.956680298,0.00100699998438,1.0,0.0,0.0,0.0,1.0,0.0,0.0,0.0,1.0,-14.5121955872,-153.597564697,-2.86585378647,1.0,0.0,0.0,0.0,1.0,0.0,0.0,0.0,1.0,-7.36935270996,13.9390420654,11.166556543,1.0,0.0,0.0,0.0,1.0,0.0,0.0,0.0,1.0
1480971095853596191,618,1480971095850542191,,0.448541194201,10.7722349167,151.93637085,0.00456100003794,1.0,0.0,0.0,0.0,1.0,0.0,0.0,0.0,1.0,28.475610733,-99.3902435303,2.80487799644,1.0,0.0,0.0,0.0,1.0,0.0,0.0,0.0,1.0,-3.6056677002,-12.4115414062,-0.282515795898,1.0,0.0,0.0,0.0,1.0,0.0,0.0,0.0,1.0
1480971095874774296,619,1480971095871869462,,-1.76735568047,11.2606554031,151.559265137,0.00113500002772,1.0,0.0,0.0,0.0,1.0,0.0,0.0,0.0,1.0,59.4512176514,-81.707321167,-14.2073173523,1.0,0.0,0.0,0.0,1.0,0.0,0.0,0.0,1.0,-2.67671745605,-14.8105314697,22.6874549316,1.0,0.0,0.0,0.0,1.0,0.0,0.0,0.0,1.0
1480971095894909696,620,1480971095892420173,,-4.64680576324,11.6184911728,151.469787598,0.00109499995597,1.0,0.0,0.0,0.0,1.0,0.0,0.0,0.0,1.0,-10.2439022064,-124.024383545,-0.792682945728,1.0,0.0,0.0,0.0,1.0,0.0,0.0,0.0,1.0,-4.94642062988,-0.861912597656,3.02627089844,1.0,0.0,0.0,0.0,1.0,0.0,0.0,0.0,1.0
1480971095916050822,621,1480971095913645830,,-6.79679298401,12.3497457504,151.550811768,0.00110200000927,1.0,0.0,0.0,0.0,1.0,0.0,0.0,0.0,1.0,-1.40243899822,-143.475601196,48.3536567688,1.0,0.0,0.0,0.0,1.0,0.0,0.0,0.0,1.0,-5.23851323242,13.3596452637,1.80522805176,1.0,0.0,0.0,0.0,1.0,0.0,0.0,0.0,1.0
1480971095936856845,622,1480971095934534561,,-9.02972412109,11.0607089996,151.751998901,0.00131800002418,1.0,0.0,0.0,0.0,1.0,0.0,0.0,0.0,1.0,-19.6341457367,17.3780498505,17.9878044128,1.0,0.0,0.0,0.0,1.0,0.0,0.0,0.0,1.0,0.555454785156,-24.6746423096,32.0918813908,1.0,0.0,0.0,0.0,1.0,0.0,0.0,0.0,1.0
1480971095958000679,623,1480971095955518031,,-11.2510099411,13.3658132553,152.390380859,0.0010450000409,1.0,0.0,0.0,0.0,1.0,0.0,0.0,0.0,1.0,-110.426834106,-90.6707382202,107.195121765,1.0,0.0,0.0,0.0,1.0,0.0,0.0,0.0,1.0,5.65031591797,12.3588689697,-4.01268198242,1.0,0.0,0.0,0.0,1.0,0.0,0.0,0.0,1.0
1480971095978826129,624,1480971095976486710,,-12.0933361053,12.430147171,153.151168823,0.00115499994718,1.0,0.0,0.0,0.0,1.0,0.0,0.0,0.0,1.0,165.487808228,-47.9878044128,-4.63414621353,1.0,0.0,0.0,0.0,1.0,0.0,0.0,0.0,1.0,-8.68137521973,-18.6173109403,0.550666381836,1.0,0.0,0.0,0.0,1.0,0.0,0.0,0.0,1.0
1480971096000101005,625,1480971095998076741,,-13.3906297684,12.8909788132,154.796325684,0.00104300002567,1.0,0.0,0.0,0.0,1.0,0.0,0.0,0.0,1.0,-97.865852356,7.13414621353,89.3902435303,1.0,0.0,0.0,0.0,1.0,0.0,0.0,0.0,1.0,4.93205541992,2.22181914063,-0.852335791016,1.0,0.0,0.0,0.0,1.0,0.0,0.0,0.0,1.0
1480971096021300985,626,1480971096018896826,,-13.8046302795,11.9901609421,155.827392578,0.00104899995495,1.0,0.0,0.0,0.0,1.0,0.0,0.0,0.0,1.0,99.5731735229,-12.6829271317,66.5853652954,1.0,0.0,0.0,0.0,1.0,0.0,0.0,0.0,1.0,-7.62313808594,-2.18830031738,3.62003291016,1.0,0.0,0.0,0.0,1.0,0.0,0.0,0.0,1.0
1480971096042397059,627,1480971096039878109,,-14.3870372772,13.1876363754,157.356369019,0.00108499999624,1.0,0.0,0.0,0.0,1.0,0.0,0.0,0.0,1.0,32.5,-22.6219520569,81.4634170532,1.0,0.0,0.0,0.0,1.0,0.0,0.0,0.0,1.0,1.36469494629,15.1074124756,15.8113077637,1.0,0.0,0.0,0.0,1.0,0.0,0.0,0.0,1.0
1480971096062686469,628,1480971096060488768,,-14.1028184891,12.2434234619,158.775741577,0.00102500000503,1.0,0.0,0.0,0.0,1.0,0.0,0.0,0.0,1.0,75.7317047119,50.4268302917,10.8536586761,1.0,0.0,0.0,0.0,1.0,0.0,0.0,0.0,1.0,-4.42927307129,-33.1070205566,37.4357371582,1.0,0.0,0.0,0.0,1.0,0.0,0.0,0.0,1.0
1480971096083825407,629,1480971096081384790,,-14.0488824844,12.7922964096,160.572555542,0.0010529999854,1.0,0.0,0.0,0.0,1.0,0.0,0.0,0.0,1.0,-55.4878082275,14.0243902206,29.0853672028,1.0,0.0,0.0,0.0,1.0,0.0,0.0,0.0,1.0,1.82917006836,3.35667072754,5.10922634277,1.0,0.0,0.0,0.0,1.0,0.0,0.0,0.0,1.0
1480971096105206532,630,1480971096102815968,,-13.1286296844,12.3999919891,162.400878906,0.00101799995173,1.0,0.0,0.0,0.0,1.0,0.0,0.0,0.0,1.0,-10.7317075729,126.646347046,62.1951255798,1.0,0.0,0.0,0.0,1.0,0.0,0.0,0.0,1.0,2.56179577637,-15.2271225586,27.5285306885,1.0,0.0,0.0,0.0,1.0,0.0,0.0,0.0,1.0
1480971096126004534,631,1480971096123575428,,-12.2607288361,14.0280179977,164.115966797,0.00102600001264,1.0,0.0,0.0,0.0,1.0,0.0,0.0,0.0,1.0,32.5,63.5365829468,46.0365867615,1.0,0.0,0.0,0.0,1.0,0.0,0.0,0.0,1.0,0.713472094727,5.93762011719,8.36055161274,1.0,0.0,0.0,0.0,1.0,0.0,0.0,0.0,1.0
1480971096146817693,632,1480971096144496451,,-10.4450321198,13.858912468,165.587371826,0.00105199997779,1.0,0.0,0.0,0.0,1.0,0.0,0.0,0.0,1.0,194.695129395,78.5975570679,16.5243911743,1.0,0.0,0.0,0.0,1.0,0.0,0.0,0.0,1.0,-0.550666381836,-20.599711084,33.3799595459,1.0,0.0,0.0,0.0,1.0,0.0,0.0,0.0,1.0
1480971096170815319,633,1480971096166838770,,-8.55381584167,12.4150857925,167.473144531,0.00103100005072,1.0,0.0,0.0,0.0,1.0,0.0,0.0,0.0,1.0,25.8536586761,123.231712341,14.5121955872,1.0,0.0,0.0,0.0,1.0,0.0,0.0,0.0,1.0,-3.77326181641,-6.22971271973,8.26957253418,1.0,0.0,0.0,0.0,1.0,0.0,0.0,0.0,1.0
1480971096193242535,634,1480971096190673168,,-6.44658041,13.7116031647,169.290512085,0.00485299993306,1.0,0.0,0.0,0.0,1.0,0.0,0.0,0.0,1.0,189.390258789,77.6219558716,45.0609779358,1.0,0.0,0.0,0.0,1.0,0.0,0.0,0.0,1.0,-6.87614716797,5.65989272461,-9.62469125835,1.0,0.0,0.0,0.0,1.0,0.0,0.0,0.0,1.0
1480971096213847621,635,1480971096211352421,,-4.12387466431,13.2126207352,170.798370361,0.00328000006266,1.0,0.0,0.0,0.0,1.0,0.0,0.0,0.0,1.0,101.707321167,144.329269409,-0.304878056049,1.0,0.0,0.0,0.0,1.0,0.0,0.0,0.0,1.0,-3.22259543457,-31.5843083008,26.0776444824,1.0,0.0,0.0,0.0,1.0,0.0,0.0,0.0,1.0
1480971096234809893,636,1480971096232439068,,-2.72386288643,14.4867687225,172.147491455,0.00106399995275,1.0,0.0,0.0,0.0,1.0,0.0,0.0,0.0,1.0,-110.121955872,102.317077637,18.841463089,1.0,0.0,0.0,0.0,1.0,0.0,0.0,0.0,1.0,0.00478840332031,18.0474932833,13.1010714844,1.0,0.0,0.0,0.0,1.0,0.0,0.0,0.0,1.0
1480971096255999300,637,1480971096253463684,,-0.307514190674,13.745475769,173.16418457,0.00104899995495,1.0,0.0,0.0,0.0,1.0,0.0,0.0,0.0,1.0,64.2682952881,57.9878082275,43.0487823486,1.0,0.0,0.0,0.0,1.0,0.0,0.0,0.0,1.0,-1.66157595215,15.1122008789,-2.55700737305,1.0,0.0,0.0,0.0,1.0,0.0,0.0,0.0,1.0
1480971096276680011,638,1480971096274294863,,2.05593490601,13.7639217377,174.378814697,0.00133700005244,1.0,0.0,0.0,0.0,1.0,0.0,0.0,0.0,1.0,-57.9268302917,167.926834106,40.1219520569,1.0,0.0,0.0,0.0,1.0,0.0,0.0,0.0,1.0,9.74440075684,2.47081611328,18.0905877441,1.0,0.0,0.0,0.0,1.0,0.0,0.0,0.0,1.0
1480971096297124004,639,1480971096294813803,,5.06181192398,13.6856441498,174.676391602,0.00113300001249,1.0,0.0,0.0,0.0,1.0,0.0,0.0,0.0,1.0,186.890258789,85.7926864624,-30.4268321991,1.0,0.0,0.0,0.0,1.0,0.0,0.0,0.0,1.0,-0.105344873047,-24.4400105469,-18.8088470731,1.0,0.0,0.0,0.0,1.0,0.0,0.0,0.0,1.0
1480971096318642004,640,1480971096316254355,,6.65290117264,13.6219015121,175.210113525,0.00108800001908,1.0,0.0,0.0,0.0,1.0,0.0,0.0,0.0,1.0,-43.5365867615,111.28049469,-15.3658533096,1.0,0.0,0.0,0.0,1.0,0.0,0.0,0.0,1.0,8.74841286621,-4.97993945312,15.5718875977,1.0,0.0,0.0,0.0,1.0,0.0,0.0,0.0,1.0
1480971096340085889,641,1480971096337632824,,9.43318080902,13.3417224884,175.802612305,0.00104300002567,1.0,0.0,0.0,0.0,1.0,0.0,0.0,0.0,1.0,70.8536605835,130.06098938,-30.6707305908,1.0,0.0,0.0,0.0,1.0,0.0,0.0,0.0,1.0,-4.38617744141,-22.8742026611,19.507955127,1.0,0.0,0.0,0.0,1.0,0.0,0.0,0.0,1.0
1480971096361130817,642,1480971096358746294,,10.6508703232,13.6488685608,176.118011475,0.00115599995479,1.0,0.0,0.0,0.0,1.0,0.0,0.0,0.0,1.0,-101.036590576,77.1951217651,-40.9756088257,1.0,0.0,0.0,0.0,1.0,0.0,0.0,0.0,1.0,1.30723410645,7.71411774902,-0.991199487305,1.0,0.0,0.0,0.0,1.0,0.0,0.0,0.0,1.0
1480971096382809650,643,1480971096380297679,,12.5454912186,15.3058729172,176.347564697,0.00101999996696,1.0,0.0,0.0,0.0,1.0,0.0,0.0,0.0,1.0,-108.597564697,64.2073135376,3.96341490746,1.0,0.0,0.0,0.0,1.0,0.0,0.0,0.0,1.0,-4.61123239746,20.9301109131,6.23450112305,1.0,0.0,0.0,0.0,1.0,0.0,0.0,0.0,1.0
1480971096403266038,644,1480971096400698808,,14.3012514114,14.8669805527,175.845001221,0.00105600000825,1.0,0.0,0.0,0.0,1.0,0.0,0.0,0.0,1.0,61.0365905762,26.5243911743,8.35365867615,1.0,0.0,0.0,0.0,1.0,0.0,0.0,0.0,1.0,-1.59453830566,27.6817595947,15.2319109619,1.0,0.0,0.0,0.0,1.0,0.0,0.0,0.0,1.0
1480971096424185394,645,1480971096421635924,,15.5727090836,13.897611618,175.464294434,0.00104300002567,1.0,0.0,0.0,0.0,1.0,0.0,0.0,0.0,1.0,61.2195167542,28.9634151459,-27.4390258789,1.0,0.0,0.0,0.0,1.0,0.0,0.0,0.0,1.0,-1.39821376953,2.14999323695,-0.316034619141,1.0,0.0,0.0,0.0,1.0,0.0,0.0,0.0,1.0
1480971096445201989,646,1480971096442733769,,16.6072120667,13.4853420258,174.977127075,0.00109000003431,1.0,0.0,0.0,0.0,1.0,0.0,0.0,0.0,1.0,176.95123291,-6.89024400711,-76.0365829468,1.0,0.0,0.0,0.0,1.0,0.0,0.0,0.0,1.0,-13.3740104736,-25.4168448242,12.0476227539,1.0,0.0,0.0,0.0,1.0,0.0,0.0,0.0,1.0
1480971096469595292,647,1480971096464391924,,16.8962306976,13.2107992172,174.661987305,0.00124899996445,1.0,0.0,0.0,0.0,1.0,0.0,0.0,0.0,1.0,-82.7439041138,56.0365867615,-45.0609779358,1.0,0.0,0.0,0.0,1.0,0.0,0.0,0.0,1.0,3.0166940918,7.52737001953,13.1537439209,1.0,0.0,0.0,0.0,1.0,0.0,0.0,0.0,1.0
1480971096490886365,648,1480971096486606692,,17.5895633698,13.368393898,173.731887817,0.00124100001995,1.0,0.0,0.0,0.0,1.0,0.0,0.0,0.0,1.0,200.243911743,-76.1585388184,-23.7195129395,1.0,0.0,0.0,0.0,1.0,0.0,0.0,0.0,1.0,-15.7777889404,15.2366993652,-11.9279126709,1.0,0.0,0.0,0.0,1.0,0.0,0.0,0.0,1.0
1480971096512290771,649,1480971096508842241,,17.5412521362,13.1563854218,173.131851196,0.00292599992827,1.0,0.0,0.0,0.0,1.0,0.0,0.0,0.0,1.0,-82.0121994019,51.8902435303,-37.682926178,1.0,0.0,0.0,0.0,1.0,0.0,0.0,0.0,1.0,-1.38384855957,-17.8463780058,11.9853735107,1.0,0.0,0.0,0.0,1.0,0.0,0.0,0.0,1.0
1480971096534884340,650,1480971096529896441,,17.0057983398,12.7742795944,171.94859314,0.00230999989435,1.0,0.0,0.0,0.0,1.0,0.0,0.0,0.0,1.0,32.4390220642,-43.5975608826,-35.0609741211,1.0,0.0,0.0,0.0,1.0,0.0,0.0,0.0,1.0,5.12837995605,-7.23527741699,11.4969563721,1.0,0.0,0.0,0.0,1.0,0.0,0.0,0.0,1.0
1480971096554019796,651,1480971096550768140,,16.618188858,13.345287323,171.25881958,0.0017640000442,1.0,0.0,0.0,0.0,1.0,0.0,0.0,0.0,1.0,-10.6097564697,121.951217651,-16.4024391174,1.0,0.0,0.0,0.0,1.0,0.0,0.0,0.0,1.0,-18.7035022001,-15.1792385254,24.1287643311,1.0,0.0,0.0,0.0,1.0,0.0,0.0,0.0,1.0
1480971096574874517,652,1480971096571865933,,15.0205602646,13.0824975967,170.495178223,0.00126900000032,1.0,0.0,0.0,0.0,1.0,0.0,0.0,0.0,1.0,43.9024391174,-95.1219558716,-23.5975627899,1.0,0.0,0.0,0.0,1.0,0.0,0.0,0.0,1.0,-8.19295808105,9.93114848633,-7.86255825195,1.0,0.0,0.0,0.0,1.0,0.0,0.0,0.0,1.0
1480971096595356739,653,1480971096592978153,,13.8720598221,12.3582401276,169.931015015,0.00125700002536,1.0,0.0,0.0,0.0,1.0,0.0,0.0,0.0,1.0,-79.3292694092,-63.5975646973,-13.4756097794,1.0,0.0,0.0,0.0,1.0,0.0,0.0,0.0,1.0,-0.737414111328,6.60799658203,4.8793829834,1.0,0.0,0.0,0.0,1.0,0.0,0.0,0.0,1.0
1480971096616026616,654,1480971096613666260,,13.4165248871,11.3318243027,169.027008057,0.00135999999475,1.0,0.0,0.0,0.0,1.0,0.0,0.0,0.0,1.0,364.085357666,-151.89024353,-75.0609817505,1.0,0.0,0.0,0.0,1.0,0.0,0.0,0.0,1.0,-15.576676001,-49.8568553711,-45.6957328857,1.0,0.0,0.0,0.0,1.0,0.0,0.0,0.0,1.0
1480971096637437585,655,1480971096635045562,,11.3098917007,12.7361698151,169.268508911,0.00172900001053,1.0,0.0,0.0,0.0,1.0,0.0,0.0,0.0,1.0,-1.2195122242,-3.04878044128,-86.7682952881,1.0,0.0,0.0,0.0,1.0,0.0,0.0,0.0,1.0,2.94965644531,-18.1001645508,19.2158625244,1.0,0.0,0.0,0.0,1.0,0.0,0.0,0.0,1.0
1480971096658233243,656,1480971096655636950,,10.6602592468,12.5615653992,168.30255127,0.00153899996076,1.0,0.0,0.0,0.0,1.0,0.0,0.0,0.0,1.0,141.219512939,-82.8658599854,-34.634147644,1.0,0.0,0.0,0.0,1.0,0.0,0.0,0.0,1.0,-10.5488525146,-39.21223479,-18.2581830294,1.0,0.0,0.0,0.0,1.0,0.0,0.0,0.0,1.0
1480971096678880933,657,1480971096675987089,,8.4786195755,13.6279506683,168.136779785,0.00148199999239,1.0,0.0,0.0,0.0,1.0,0.0,0.0,0.0,1.0,15.9146347046,-42.0121955872,-29.4512195587,1.0,0.0,0.0,0.0,1.0,0.0,0.0,0.0,1.0,5.88015927734,-2.09732050817,15.083470459,1.0,0.0,0.0,0.0,1.0,0.0,0.0,0.0,1.0
1480971096699401749,658,1480971096697027695,,7.68794822693,13.9546442032,167.634002686,0.00138399994466,1.0,0.0,0.0,0.0,1.0,0.0,0.0,0.0,1.0,115.182929993,-98.1097564697,0.0609756112099,1.0,0.0,0.0,0.0,1.0,0.0,0.0,0.0,1.0,-5.95198532715,11.03248125,20.0777751221,1.0,0.0,0.0,0.0,1.0,0.0,0.0,0.0,1.0
1480971096719882669,659,1480971096717440073,,6.17710542679,13.6634712219,167.334487915,0.00150300003588,1.0,0.0,0.0,0.0,1.0,0.0,0.0,0.0,1.0,-90.792678833,-54.634147644,-7.19512224197,1.0,0.0,0.0,0.0,1.0,0.0,0.0,0.0,1.0,13.4602017334,-5.28639726562,22.9460287109,1.0,0.0,0.0,0.0,1.0,0.0,0.0,0.0,1.0
1480971096740876452,660,1480971096738352606,,4.36495542526,14.5734043121,167.228012085,0.0012150000548,1.0,0.0,0.0,0.0,1.0,0.0,0.0,0.0,1.0,-129.451217651,29.5121974945,22.8658542633,1.0,0.0,0.0,0.0,1.0,0.0,0.0,0.0,1.0,10.9941740234,-0.703895288086,7.69496413574,1.0,0.0,0.0,0.0,1.0,0.0,0.0,0.0,1.0
1480971096762518930,661,1480971096759928210,,3.28854012489,16.233537674,166.547515869,0.00121799996123,1.0,0.0,0.0,0.0,1.0,0.0,0.0,0.0,1.0,16.0975608826,-225.121948242,60.9146347046,1.0,0.0,0.0,0.0,1.0,0.0,0.0,0.0,1.0,-22.7784345947,29.7838686523,2.20745393066,1.0,0.0,0.0,0.0,1.0,0.0,0.0,0.0,1.0
1480971096783790316,662,1480971096781137096,,2.00390672684,13.9913988113,166.765975952,0.00109499995597,1.0,0.0,0.0,0.0,1.0,0.0,0.0,0.0,1.0,-85.6707305908,-45.9146347046,-18.1707305908,1.0,0.0,0.0,0.0,1.0,0.0,0.0,0.0,1.0,0.555454785156,-0.191536132812,-2.88740720215,1.0,0.0,0.0,0.0,1.0,0.0,0.0,0.0,1.0
1480971096805409878,663,1480971096802584262,,1.36896204948,13.6849994659,166.80279541,0.00117099995259,1.0,0.0,0.0,0.0,1.0,0.0,0.0,0.0,1.0,108.658538818,-125.548774719,30.2439022064,1.0,0.0,0.0,0.0,1.0,0.0,0.0,0.0,1.0,-1.13963999023,25.8717431396,3.52905324707,1.0,0.0,0.0,0.0,1.0,0.0,0.0,0.0,1.0
1480971096829531098,664,1480971096824177366,,0.643210113049,12.8661403656,167.115432739,0.00139099999797,1.0,0.0,0.0,0.0,1.0,0.0,0.0,0.0,1.0,-94.207321167,127.5,27.2560977936,1.0,0.0,0.0,0.0,1.0,0.0,0.0,0.0,1.0,0.440533105469,-19.3020537842,54.3723197021,1.0,0.0,0.0,0.0,1.0,0.0,0.0,0.0,1.0
1480971096851599408,665,1480971096844857087,,-0.446935504675,14.2492399216,167.123657227,0.00126399996225,1.0,0.0,0.0,0.0,1.0,0.0,0.0,0.0,1.0,-35.2439041138,134.146347046,67.5,1.0,0.0,0.0,0.0,1.0,0.0,0.0,0.0,1.0,-4.64475092844,-7.43160195312,10.9175595703,1.0,0.0,0.0,0.0,1.0,0.0,0.0,0.0,1.0
1480971096870355125,666,1480971096867000189,,-0.779126644135,14.2922563553,167.082870483,0.00167899997905,1.0,0.0,0.0,0.0,1.0,0.0,0.0,0.0,1.0,196.402450562,-45.7317085266,-62.0731735229,1.0,0.0,0.0,0.0,1.0,0.0,0.0,0.0,1.0,-10.5440641113,-37.7230413574,-12.737152832,1.0,0.0,0.0,0.0,1.0,0.0,0.0,0.0,1.0
1480971096892864320,667,1480971096887621108,,-1.92012917995,13.564455986,167.628829956,0.00167000002693,1.0,0.0,0.0,0.0,1.0,0.0,0.0,0.0,1.0,-7.74390268326,76.9512252808,-37.5,1.0,0.0,0.0,0.0,1.0,0.0,0.0,0.0,1.0,-1.07260241682,-23.4392342529,3.31357509766,1.0,0.0,0.0,0.0,1.0,0.0,0.0,0.0,1.0
1480971096913049980,668,1480971096909356815,,-2.22712826729,14.1060781479,168.425735474,0.00147799996193,1.0,0.0,0.0,0.0,1.0,0.0,0.0,0.0,1.0,-173.10975647,41.0365867615,66.9512252808,1.0,0.0,0.0,0.0,1.0,0.0,0.0,0.0,1.0,7.01979926758,-9.32302068013,18.521544043,1.0,0.0,0.0,0.0,1.0,0.0,0.0,0.0,1.0
1480971096932994808,669,1480971096930348411,,-1.64598894119,14.0731554031,168.601608276,0.0014009999577,1.0,0.0,0.0,0.0,1.0,0.0,0.0,0.0,1.0,136.524398804,73.2317123413,-8.47560977936,1.0,0.0,0.0,0.0,1.0,0.0,0.0,0.0,1.0,4.74051957937,-20.6715371338,73.6887340201,1.0,0.0,0.0,0.0,1.0,0.0,0.0,0.0,1.0
1480971096954365516,670,1480971096951389745,,-2.41124415398,14.4128475189,169.416564941,0.00128199998289,1.0,0.0,0.0,0.0,1.0,0.0,0.0,0.0,1.0,-168.170730591,93.3536605835,35.4268302917,1.0,0.0,0.0,0.0,1.0,0.0,0.0,0.0,1.0,12.7802484619,-9.03092866211,19.6037231934,1.0,0.0,0.0,0.0,1.0,0.0,0.0,0.0,1.0
1480971096975724194,671,1480971096972633110,,-1.35500776768,14.2079124451,169.731750488,0.00111800001469,1.0,0.0,0.0,0.0,1.0,0.0,0.0,0.0,1.0,115.121955872,36.2195129395,12.8048782349,1.0,0.0,0.0,0.0,1.0,0.0,0.0,0.0,1.0,-7.36935270996,-16.2087464083,15.5958296143,1.0,0.0,0.0,0.0,1.0,0.0,0.0,0.0,1.0
1480971096996118916,672,1480971096993448717,,-1.62905979156,14.6656246185,170.930953979,0.00107899995055,1.0,0.0,0.0,0.0,1.0,0.0,0.0,0.0,1.0,14.5731706619,113.780487061,-20.7926826477,1.0,0.0,0.0,0.0,1.0,0.0,0.0,0.0,1.0,4.51067592773,-4.35744702148,33.3512314641,1.0,0.0,0.0,0.0,1.0,0.0,0.0,0.0,1.0
1480971097016602805,673,1480971097013852553,,-0.885252416134,15.1754951477,171.611358643,0.00114800001029,1.0,0.0,0.0,0.0,1.0,0.0,0.0,0.0,1.0,-218.963409424,113.658538818,99.5121994019,1.0,0.0,0.0,0.0,1.0,0.0,0.0,0.0,1.0,3.45722719727,13.5080857666,0.234631762695,1.0,0.0,0.0,0.0,1.0,0.0,0.0,0.0,1.0
1480971097036792059,674,1480971097034450608,,0.856394886971,14.1453523636,172.012039185,0.00124799995683,1.0,0.0,0.0,0.0,1.0,0.0,0.0,0.0,1.0,155.731704712,-3.90243911743,19.8780498505,1.0,0.0,0.0,0.0,1.0,0.0,0.0,0.0,1.0,-16.323668088,-28.20848396,45.6047532227,1.0,0.0,0.0,0.0,1.0,0.0,0.0,0.0,1.0
1480971097057744800,675,1480971097055054913,,1.15371394157,15.6211996078,173.282104492,0.00120499997865,1.0,0.0,0.0,0.0,1.0,0.0,0.0,0.0,1.0,-119.756103516,93.6585388184,52.2560997009,1.0,0.0,0.0,0.0,1.0,0.0,0.0,0.0,1.0,15.5958296143,21.5142961182,2.4756045166,1.0,0.0,0.0,0.0,1.0,0.0,0.0,0.0,1.0
1480971097079067540,676,1480971097076301091,,2.94974136353,14.9513998032,173.46257019,0.00114299997222,1.0,0.0,0.0,0.0,1.0,0.0,0.0,0.0,1.0,-107.987808228,56.5243911743,-9.08536529541,1.0,0.0,0.0,0.0,1.0,0.0,0.0,0.0,1.0,-8.58081933452,-3.6535517334,-4.65432773508,1.0,0.0,0.0,0.0,1.0,0.0,0.0,0.0,1.0
1480971097100079968,677,1480971097097397529,,3.90227890015,14.2695417404,173.888397217,0.00110500003211,1.0,0.0,0.0,0.0,1.0,0.0,0.0,0.0,1.0,62.0731735229,45.182926178,13.2926826477,1.0,0.0,0.0,0.0,1.0,0.0,0.0,0.0,1.0,-11.2048637695,11.899182251,3.50511123047,1.0,0.0,0.0,0.0,1.0,0.0,0.0,0.0,1.0
1480971097120575888,678,1480971097117787408,,4.43132162094,16.1099739075,174.283004761,0.00112100003753,1.0,0.0,0.0,0.0,1.0,0.0,0.0,0.0,1.0,-149.634155273,38.3536567688,38.9634132385,1.0,0.0,0.0,0.0,1.0,0.0,0.0,0.0,1.0,0.751779321289,33.0399829102,-9.39005832661,1.0,0.0,0.0,0.0,1.0,0.0,0.0,0.0,1.0
1480971097141012381,679,1480971097138343328,,5.36768817902,16.6790065765,174.063583374,0.0011340000201,1.0,0.0,0.0,0.0,1.0,0.0,0.0,0.0,1.0,-173.536590576,28.8414649963,36.1585350037,1.0,0.0,0.0,0.0,1.0,0.0,0.0,0.0,1.0,13.7044103027,9.01177504883,-5.51145222168,1.0,0.0,0.0,0.0,1.0,0.0,0.0,0.0,1.0
1480971097162119965,680,1480971097159298256,,6.71796703339,14.9229354858,174.364532471,0.00113099999726,1.0,0.0,0.0,0.0,1.0,0.0,0.0,0.0,1.0,93.6585388184,140.60975647,8.5365858078,1.0,0.0,0.0,0.0,1.0,0.0,0.0,0.0,1.0,24.621969873,-14.7722242432,55.909397168,1.0,0.0,0.0,0.0,1.0,0.0,0.0,0.0,1.0
1480971097182922863,681,1480971097179892769,,7.16298818588,15.4771785736,174.8384552,0.00117699999828,1.0,0.0,0.0,0.0,1.0,0.0,0.0,0.0,1.0,-85.365852356,87.6829299927,-11.4634151459,1.0,0.0,0.0,0.0,1.0,0.0,0.0,0.0,1.0,7.26879624023,-6.72770666504,56.5558316162,1.0,0.0,0.0,0.0,1.0,0.0,0.0,0.0,1.0
1480971097203562637,682,1480971097200584991,,7.55082702637,16.0239486694,174.517990112,0.0010890000267,1.0,0.0,0.0,0.0,1.0,0.0,0.0,0.0,1.0,66.4634170532,-120.426826477,-20.975610733,1.0,0.0,0.0,0.0,1.0,0.0,0.0,0.0,1.0,-4.06056601562,19.9772186523,-5.09486113281,1.0,0.0,0.0,0.0,1.0,0.0,0.0,0.0,1.0
1480971097225110168,683,1480971097222066115,,7.50916481018,15.2055807114,174.181564331,0.00121699995361,1.0,0.0,0.0,0.0,1.0,0.0,0.0,0.0,1.0,-49.3292694092,-11.6463422775,13.841463089,1.0,0.0,0.0,0.0,1.0,0.0,0.0,0.0,1.0,16.2901480957,-1.59453830566,19.1296712646,1.0,0.0,0.0,0.0,1.0,0.0,0.0,0.0,1.0
1480971097246211242,684,1480971097243221773,,7.37592077255,16.0826377869,174.067733765,0.00115300004836,1.0,0.0,0.0,0.0,1.0,0.0,0.0,0.0,1.0,-107.865852356,-87.4390258789,28.9634151459,1.0,0.0,0.0,0.0,1.0,0.0,0.0,0.0,1.0,10.5967365479,16.2614176758,8.70052883301,1.0,0.0,0.0,0.0,1.0,0.0,0.0,0.0,1.0
1480971097269786943,685,1480971097264203212,,7.0944237709,15.2349720001,174.092956543,0.00128399999812,1.0,0.0,0.0,0.0,1.0,0.0,0.0,0.0,1.0,-125.487808228,21.6463432312,-0.304878056049,1.0,0.0,0.0,0.0,1.0,0.0,0.0,0.0,1.0,4.48673391113,1.70945998535,3.82114584961,1.0,0.0,0.0,0.0,1.0,0.0,0.0,0.0,1.0
1480971097289278335,686,1480971097284865120,,6.55165576935,16.1676177979,173.680999756,0.00162100000307,1.0,0.0,0.0,0.0,1.0,0.0,0.0,0.0,1.0,-203.597564697,17.8658542633,66.8902435303,1.0,0.0,0.0,0.0,1.0,0.0,0.0,0.0,1.0,14.9254531494,12.4067530029,1.33596452637,1.0,0.0,0.0,0.0,1.0,0.0,0.0,0.0,1.0
1480971097310352377,687,1480971097306201506,,7.34270238876,15.3897180557,173.743453979,0.00112799997441,1.0,0.0,0.0,0.0,1.0,0.0,0.0,0.0,1.0,23.7804889679,12.0121955872,1.40243899822,1.0,0.0,0.0,0.0,1.0,0.0,0.0,0.0,1.0,-35.3144768254,-13.0148802246,-41.5872828369,1.0,0.0,0.0,0.0,1.0,0.0,0.0,0.0,1.0
1480971097333218185,688,1480971097326924352,,6.29076433182,15.6840362549,173.748718262,0.00116200000048,1.0,0.0,0.0,0.0,1.0,0.0,0.0,0.0,1.0,18.658536911,58.7195129395,-49.817073822,1.0,0.0,0.0,0.0,1.0,0.0,0.0,0.0,1.0,-6.29196196289,-5.17626398926,45.461101123,1.0,0.0,0.0,0.0,1.0,0.0,0.0,0.0,1.0
1480971097353032753,689,1480971097347507824,,5.46963405609,14.8476724625,173.279632568,0.00128900003619,1.0,0.0,0.0,0.0,1.0,0.0,0.0,0.0,1.0,20.1829280853,-92.3780517578,-30.6097583771,1.0,0.0,0.0,0.0,1.0,0.0,0.0,0.0,1.0,3.16034619141,-15.069105249,13.5511813965,1.0,0.0,0.0,0.0,1.0,0.0,0.0,0.0,1.0
1480971097372567582,690,1480971097369147854,,4.92863798141,14.4982347488,173.40184021,0.00147999997716,1.0,0.0,0.0,0.0,1.0,0.0,0.0,0.0,1.0,3.35365867615,-47.134147644,-0.18292683363,1.0,0.0,0.0,0.0,1.0,0.0,0.0,0.0,1.0,8.61433815776,-24.4591641602,8.48505126812,1.0,0.0,0.0,0.0,1.0,0.0,0.0,0.0,1.0
1480971097393394543,691,1480971097390199085,,4.54444408417,14.6389598846,173.558029175,0.00149199995212,1.0,0.0,0.0,0.0,1.0,0.0,0.0,0.0,1.0,-25.6097564697,-14.9390249252,-25.975610733,1.0,0.0,0.0,0.0,1.0,0.0,0.0,0.0,1.0,3.0406361084,-12.1721212402,37.3926438664,1.0,0.0,0.0,0.0,1.0,0.0,0.0,0.0,1.0
1480971097413812963,692,1480971097410825525,,4.25811815262,14.9841213226,173.110610962,0.00123900000472,1.0,0.0,0.0,0.0,1.0,0.0,0.0,0.0,1.0,170.853668213,-83.5365905762,-39.7560997009,1.0,0.0,0.0,0.0,1.0,0.0,0.0,0.0,1.0,-19.3643030273,9.16021555176,40.8738107422,1.0,0.0,0.0,0.0,1.0,0.0,0.0,0.0,1.0
1480971097434298883,693,1480971097431508736,,3.35903310776,15.4794712067,173.1590271,0.00136700004805,1.0,0.0,0.0,0.0,1.0,0.0,0.0,0.0,1.0,163.292678833,-149.878051758,23.9024391174,1.0,0.0,0.0,0.0,1.0,0.0,0.0,0.0,1.0,-14.5998417236,23.9276513916,-2.72460148926,1.0,0.0,0.0,0.0,1.0,0.0,0.0,0.0,1.0
1480971097455181468,694,1480971097452458612,,3.10187864304,15.2106332779,173.432342529,0.00116800004616,1.0,0.0,0.0,0.0,1.0,0.0,0.0,0.0,1.0,194.634155273,3.23170733452,11.0365858078,1.0,0.0,0.0,0.0,1.0,0.0,0.0,0.0,1.0,-12.7275760254,-13.5942770264,19.9580650391,1.0,0.0,0.0,0.0,1.0,0.0,0.0,0.0,1.0
1480971097476400770,695,1480971097473528541,,2.61509609222,15.3245344162,173.609420776,0.00113099999726,1.0,0.0,0.0,0.0,1.0,0.0,0.0,0.0,1.0,33.7804870605,53.7195129395,-53.4756126404,1.0,0.0,0.0,0.0,1.0,0.0,0.0,0.0,1.0,-2.69587106934,-19.2254393311,14.9110879395,1.0,0.0,0.0,0.0,1.0,0.0,0.0,0.0,1.0
1480971097496980492,696,1480971097494597584,,1.94807755947,15.045132637,173.722381592,0.00161699997261,1.0,0.0,0.0,0.0,1.0,0.0,0.0,0.0,1.0,-24.817073822,-14.0243902206,-10.8536586761,1.0,0.0,0.0,0.0,1.0,0.0,0.0,0.0,1.0,-6.03338818359,-1.38863696289,4.69742336497,1.0,0.0,0.0,0.0,1.0,0.0,0.0,0.0,1.0
1480971097519483020,697,1480971097515530794,,1.31534636021,16.4463062286,174.051330566,0.00159500003792,1.0,0.0,0.0,0.0,1.0,0.0,0.0,0.0,1.0,-145.548797607,62.2560997009,54.3292694092,1.0,0.0,0.0,0.0,1.0,0.0,0.0,0.0,1.0,2.43729729004,13.4362597168,3.44765039062,1.0,0.0,0.0,0.0,1.0,0.0,0.0,0.0,1.0
1480971097539065245,698,1480971097536800357,,0.307354062796,16.824716568,173.768997192,0.0012080000015,1.0,0.0,0.0,0.0,1.0,0.0,0.0,0.0,1.0,-178.475616455,59.5731735229,13.7195129395,1.0,0.0,0.0,0.0,1.0,0.0,0.0,0.0,1.0,3.03584770508,0.076614453125,-0.407014282227,1.0,0.0,0.0,0.0,1.0,0.0,0.0,0.0,1.0
1480971097560662150,699,1480971097558012472,,-0.39777675271,18.6552848816,173.621246338,0.00116999994498,1.0,0.0,0.0,0.0,1.0,0.0,0.0,0.0,1.0,152.743911743,-216.036590576,88.2926864624,1.0,0.0,0.0,0.0,1.0,0.0,0.0,0.0,1.0,-20.465635791,61.799133252,24.0138426514,1.0,0.0,0.0,0.0,1.0,0.0,0.0,0.0,1.0
1480971097581445986,700,1480971097579429638,,-0.216987624764,17.588388443,174.280456543,0.00108399998862,1.0,0.0,0.0,0.0,1.0,0.0,0.0,0.0,1.0,101.036590576,17.9268302917,-30.2439022064,1.0,0.0,0.0,0.0,1.0,0.0,0.0,0.0,1.0,-7.00543405762,0.119710083008,21.1551658691,1.0,0.0,0.0,0.0,1.0,0.0,0.0,0.0,1.0
1480971097602950392,701,1480971097600310974,,0.256912559271,16.3560619354,174.286895752,0.00108800001908,1.0,0.0,0.0,0.0,1.0,0.0,0.0,0.0,1.0,367.439025879,-203.902435303,-156.341461182,1.0,0.0,0.0,0.0,1.0,0.0,0.0,0.0,1.0,63.2787498779,-81.3406072021,24.2676280273,1.0,0.0,0.0,0.0,1.0,0.0,0.0,0.0,1.0
1480971097624092820,702,1480971097620939185,,-0.329520970583,17.1596946716,174.854522705,0.00110700004734,1.0,0.0,0.0,0.0,1.0,0.0,0.0,0.0,1.0,-197.256103516,40.3048782349,65.7317047119,1.0,0.0,0.0,0.0,1.0,0.0,0.0,0.0,1.0,54.1089575195,-3.12203896484,86.914308667,1.0,0.0,0.0,0.0,1.0,0.0,0.0,0.0,1.0
1480971097643953533,703,1480971097641702968,,0.305895924568,16.8994293213,175.210693359,0.00116200000048,1.0,0.0,0.0,0.0,1.0,0.0,0.0,0.0,1.0,-86.7073135376,55.365852356,24.817073822,1.0,0.0,0.0,0.0,1.0,0.0,0.0,0.0,1.0,9.39963513325,-8.33182119282,19.2302289034,1.0,0.0,0.0,0.0,1.0,0.0,0.0,0.0,1.0
1480971097664721171,704,1480971097662619303,,0.224065840244,21.4320049286,175.451293945,0.00116900005378,1.0,0.0,0.0,0.0,1.0,0.0,0.0,0.0,1.0,-119.756103516,108.841461182,10.548781395,1.0,0.0,0.0,0.0,1.0,0.0,0.0,0.0,1.0,3.05500131836,33.5858608887,-22.931663501,1.0,0.0,0.0,0.0,1.0,0.0,0.0,0.0,1.0
1480971097685495788,705,1480971097683441680,,0.962656080723,18.1902275085,176.096176147,0.00110500003211,1.0,0.0,0.0,0.0,1.0,0.0,0.0,0.0,1.0,66.1585388184,-57.8048820496,-83.4146347046,1.0,0.0,0.0,0.0,1.0,0.0,0.0,0.0,1.0,-1.8148048584,9.66299848491,13.6421610596,1.0,0.0,0.0,0.0,1.0,0.0,0.0,0.0,1.0
1480971097707051704,706,1480971097704584317,,2.20394468307,15.9590330124,177.222213745,0.00126900000032,1.0,0.0,0.0,0.0,1.0,0.0,0.0,0.0,1.0,-3.7804877758,125.121955872,42.1951255798,1.0,0.0,0.0,0.0,1.0,0.0,0.0,0.0,1.0,19.5941463867,-35.8316220459,65.1031362191,1.0,0.0,0.0,0.0,1.0,0.0,0.0,0.0,1.0
1480971097728720589,707,1480971097725865130,,1.5174292326,19.1221179962,176.976821899,0.00112899998203,1.0,0.0,0.0,0.0,1.0,0.0,0.0,0.0,1.0,-261.280487061,120.914642334,79.8170776367,1.0,0.0,0.0,0.0,1.0,0.0,0.0,0.0,1.0,21.5669685547,12.2678893066,28.4143853027,1.0,0.0,0.0,0.0,1.0,0.0,0.0,0.0,1.0
1480971097748493959,708,1480971097745943290,,2.98932385445,20.2274742126,176.57510376,0.00110999995377,1.0,0.0,0.0,0.0,1.0,0.0,0.0,0.0,1.0,5.48780488968,57.3170776367,50.6707344055,1.0,0.0,0.0,0.0,1.0,0.0,0.0,0.0,1.0,-6.67982263184,17.3914808594,6.84262834473,1.0,0.0,0.0,0.0,1.0,0.0,0.0,0.0,1.0
1480971097768545609,709,1480971097766582803,,3.66778302193,20.173625946,177.243225098,0.00109000003431,1.0,0.0,0.0,0.0,1.0,0.0,0.0,0.0,1.0,-37.0731697083,19.8780498505,-13.5975618362,1.0,0.0,0.0,0.0,1.0,0.0,0.0,0.0,1.0,0.967257470703,7.65186850586,14.3747867676,1.0,0.0,0.0,0.0,1.0,0.0,0.0,0.0,1.0
1480971097791728603,710,1480971097789801631,,4.15363073349,21.1212291718,177.341827393,0.00308099994436,1.0,0.0,0.0,0.0,1.0,0.0,0.0,0.0,1.0,-161.707321167,39.0243911743,46.9512214661,1.0,0.0,0.0,0.0,1.0,0.0,0.0,0.0,1.0,13.7618711426,16.4864726318,10.0891657959,1.0,0.0,0.0,0.0,1.0,0.0,0.0,0.0,1.0
1480971097812948739,711,1480971097810911142,,5.07873916626,19.6216259003,177.671447754,0.0011930000037,1.0,0.0,0.0,0.0,1.0,0.0,0.0,0.0,1.0,113.292678833,-19.6951236725,-5.18292713165,1.0,0.0,0.0,0.0,1.0,0.0,0.0,0.0,1.0,-8.8633345459,3.20344182129,2.68150585937,1.0,0.0,0.0,0.0,1.0,0.0,0.0,0.0,1.0
1480971097834428718,712,1480971097832182320,,6.03856945038,18.8051624298,178.047546387,0.00104799994733,1.0,0.0,0.0,0.0,1.0,0.0,0.0,0.0,1.0,136.219512939,16.2195110321,-36.8902435303,1.0,0.0,0.0,0.0,1.0,0.0,0.0,0.0,1.0,-18.8375774931,-23.6451355957,-4.76924999929,1.0,0.0,0.0,0.0,1.0,0.0,0.0,0.0,1.0
1480971097855710833,713,1480971097853758705,,5.97471904755,18.3492736816,178.099899292,0.00126299995463,1.0,0.0,0.0,0.0,1.0,0.0,0.0,0.0,1.0,-113.231712341,-32.134147644,-39.1463432312,1.0,0.0,0.0,0.0,1.0,0.0,0.0,0.0,1.0,-4.43884987793,-16.8599680908,29.166164624,1.0,0.0,0.0,0.0,1.0,0.0,0.0,0.0,1.0
1480971097877084823,714,1480971097875094465,,6.08639860153,18.9547519684,177.791671753,0.00117199996021,1.0,0.0,0.0,0.0,1.0,0.0,0.0,0.0,1.0,-79.207321167,2.01219511032,13.658536911,1.0,0.0,0.0,0.0,1.0,0.0,0.0,0.0,1.0,8.44674287251,3.89297189941,-9.70130512695,1.0,0.0,0.0,0.0,1.0,0.0,0.0,0.0,1.0
1480971097897952565,715,1480971097896006269,,6.00030612946,19.9350662231,177.403717041,0.00106000003871,1.0,0.0,0.0,0.0,1.0,0.0,0.0,0.0,1.0,183.292694092,-34.3902435303,2.25609779358,1.0,0.0,0.0,0.0,1.0,0.0,0.0,0.0,1.0,6.85220515137,-14.7818010498,18.1959326172,1.0,0.0,0.0,0.0,1.0,0.0,0.0,0.0,1.0
1480971097918957753,716,1480971097917011198,,5.54367542267,18.998260498,177.679702759,0.00101999996696,1.0,0.0,0.0,0.0,1.0,0.0,0.0,0.0,1.0,-87.1951217651,12.8658542633,-48.2926864624,1.0,0.0,0.0,0.0,1.0,0.0,0.0,0.0,1.0,23.769634082,-20.3411373047,58.7584971436,1.0,0.0,0.0,0.0,1.0,0.0,0.0,0.0,1.0
1480971097939526017,717,1480971097937559930,,5.66065502167,18.9183349609,177.721633911,0.00106899999082,1.0,0.0,0.0,0.0,1.0,0.0,0.0,0.0,1.0,-121.768295288,90.3048858643,71.5853652954,1.0,0.0,0.0,0.0,1.0,0.0,0.0,0.0,1.0,-6.4356140625,4.72615378489,2.56658417969,1.0,0.0,0.0,0.0,1.0,0.0,0.0,0.0,1.0
1480971097960841465,718,1480971097958712878,,5.89064836502,18.722650528,177.929626465,0.00124000001233,1.0,0.0,0.0,0.0,1.0,0.0,0.0,0.0,1.0,-16.8902435303,123.17073822,18.841463089,1.0,0.0,0.0,0.0,1.0,0.0,0.0,0.0,1.0,-45.3940634766,-23.1806604736,58.4424625244,1.0,0.0,0.0,0.0,1.0,0.0,0.0,0.0,1.0
1480971097981779831,719,1480971097979833119,,4.29042291641,18.997133255,177.197494507,0.00103599997237,1.0,0.0,0.0,0.0,1.0,0.0,0.0,0.0,1.0,-161.89024353,49.5731735229,20.2439022064,1.0,0.0,0.0,0.0,1.0,0.0,0.0,0.0,1.0,18.9812319308,-9.90720646973,19.0051727783,1.0,0.0,0.0,0.0,1.0,0.0,0.0,0.0,1.0
1480971098002773874,720,1480971098000691017,,4.54976701736,18.0739269257,177.389678955,0.00105399999302,1.0,0.0,0.0,0.0,1.0,0.0,0.0,0.0,1.0,-90.8536605835,29.0853672028,41.3414649963,1.0,0.0,0.0,0.0,1.0,0.0,0.0,0.0,1.0,-5.94719692383,7.90565388184,0.483628735352,1.0,0.0,0.0,0.0,1.0,0.0,0.0,0.0,1.0
1480971098024111614,721,1480971098022061465,,4.61701440811,19.4152259827,177.400665283,0.00136500003282,1.0,0.0,0.0,0.0,1.0,0.0,0.0,0.0,1.0,64.4512252808,-46.0365867615,4.08536577225,1.0,0.0,0.0,0.0,1.0,0.0,0.0,0.0,1.0,-8.26478413086,-7.98705673828,-22.5916868652,1.0,0.0,0.0,0.0,1.0,0.0,0.0,0.0,1.0
1480971098045551333,722,1480971098043538111,,4.18019390106,18.9081268311,177.208389282,0.0011419999646,1.0,0.0,0.0,0.0,1.0,0.0,0.0,0.0,1.0,-82.2560958862,-47.5609779358,-37.2560958862,1.0,0.0,0.0,0.0,1.0,0.0,0.0,0.0,1.0,4.44363828125,8.14507404785,0.301669427446,1.0,0.0,0.0,0.0,1.0,0.0,0.0,0.0,1.0
1480971098066554334,723,1480971098064456477,,3.98685145378,19.5654335022,177.14414978,0.00139099999797,1.0,0.0,0.0,0.0,1.0,0.0,0.0,0.0,1.0,4.51219558716,-43.3536567688,40.8536605835,1.0,0.0,0.0,0.0,1.0,0.0,0.0,0.0,1.0,1.99197578125,8.26478413086,-0.421379492187,1.0,0.0,0.0,0.0,1.0,0.0,0.0,0.0,1.0
1480971098087911814,724,1480971098085446197,,4.20043230057,19.1946754456,177.680267334,0.00109799997881,1.0,0.0,0.0,0.0,1.0,0.0,0.0,0.0,1.0,-26.3414649963,211.158538818,8.35365867615,1.0,0.0,0.0,0.0,1.0,0.0,0.0,0.0,1.0,-27.327417749,-3.00232888184,67.2435478271,1.0,0.0,0.0,0.0,1.0,0.0,0.0,0.0,1.0
1480971098108405858,725,1480971098106243314,,3.96506667137,19.9370346069,177.062301636,0.0010300000431,1.0,0.0,0.0,0.0,1.0,0.0,0.0,0.0,1.0,246.402450562,-67.5609741211,-70.5487823486,1.0,0.0,0.0,0.0,1.0,0.0,0.0,0.0,1.0,9.50019277202,-31.6513459473,-9.5193463853,1.0,0.0,0.0,0.0,1.0,0.0,0.0,0.0,1.0
1480971098131770623,726,1480971098129865212,,2.92603182793,19.5534610748,177.451263428,0.00109000003431,1.0,0.0,0.0,0.0,1.0,0.0,0.0,0.0,1.0,-55.6707344055,-0.731707334518,6.7682929039,1.0,0.0,0.0,0.0,1.0,0.0,0.0,0.0,1.0,-4.64953933176,-2.19787712402,-0.526724328702,1.0,0.0,0.0,0.0,1.0,0.0,0.0,0.0,1.0
1480971098153098467,727,1480971098149136241,,3.08687496185,19.8928070068,177.287399292,0.00122099998407,1.0,0.0,0.0,0.0,1.0,0.0,0.0,0.0,1.0,469.207336426,-20.7317085266,-71.4634170532,1.0,0.0,0.0,0.0,1.0,0.0,0.0,0.0,1.0,2.14520483363,-30.6409928467,-2.80121594238,1.0,0.0,0.0,0.0,1.0,0.0,0.0,0.0,1.0
1480971098171892257,728,1480971098169910753,,3.18528008461,21.6061954498,178.437759399,0.00119900004938,1.0,0.0,0.0,0.0,1.0,0.0,0.0,0.0,1.0,212.621963501,-18.2926826477,-16.8902435303,1.0,0.0,0.0,0.0,1.0,0.0,0.0,0.0,1.0,-9.48103915874,30.166940918,22.917298291,1.0,0.0,0.0,0.0,1.0,0.0,0.0,0.0,1.0
1480971098192399479,729,1480971098190377402,,3.59081578255,21.6565475464,179.356872559,0.00124999997206,1.0,0.0,0.0,0.0,1.0,0.0,0.0,0.0,1.0,83.9634170532,-47.7439041138,24.2682933807,1.0,0.0,0.0,0.0,1.0,0.0,0.0,0.0,1.0,-0.641646044922,2.80121594238,-3.46680400391,1.0,0.0,0.0,0.0,1.0,0.0,0.0,0.0,1.0
1480971098213566282,730,1480971098211310456,,5.06573724747,20.6963214874,-179.411132812,0.00115400005598,1.0,0.0,0.0,0.0,1.0,0.0,0.0,0.0,1.0,102.378051758,89.8170776367,-35.6097564697,1.0,0.0,0.0,0.0,1.0,0.0,0.0,0.0,1.0,-16.7115264188,-19.62766521,6.14352145996,1.0,0.0,0.0,0.0,1.0,0.0,0.0,0.0,1.0
1480971098233948869,731,1480971098231884605,,6.18813943863,19.5925941467,-178.565368652,0.00115499994718,1.0,0.0,0.0,0.0,1.0,0.0,0.0,0.0,1.0,-4.2682929039,70.2439041138,18.2926826477,1.0,0.0,0.0,0.0,1.0,0.0,0.0,0.0,1.0,6.64151540527,-5.57848986816,9.06444748535,1.0,0.0,0.0,0.0,1.0,0.0,0.0,0.0,1.0
1480971098255606659,732,1480971098253610572,,7.78758430481,19.5635623932,-177.411727905,0.00109100004192,1.0,0.0,0.0,0.0,1.0,0.0,0.0,0.0,1.0,-78.1707305908,102.439025879,15.6097564697,1.0,0.0,0.0,0.0,1.0,0.0,0.0,0.0,1.0,4.22337143625,4.75009638601,4.27125605398,1.0,0.0,0.0,0.0,1.0,0.0,0.0,0.0,1.0
1480971098275944507,733,1480971098273997430,,9.9028711319,19.1776981354,-176.533935547,0.00138699996751,1.0,0.0,0.0,0.0,1.0,0.0,0.0,0.0,1.0,43.1097564697,4.45121955872,1.46341466904,1.0,0.0,0.0,0.0,1.0,0.0,0.0,0.0,1.0,-2.14999323695,15.5192151611,26.1494705322,1.0,0.0,0.0,0.0,1.0,0.0,0.0,0.0,1.0
1480971098296812509,734,1480971098294863192,,11.9170236588,17.8818035126,-175.618942261,0.00109399994835,1.0,0.0,0.0,0.0,1.0,0.0,0.0,0.0,1.0,-27.3780498505,281.158569336,-15.975610733,1.0,0.0,0.0,0.0,1.0,0.0,0.0,0.0,1.0,24.9475812988,-26.7097137207,96.4288660645,1.0,0.0,0.0,0.0,1.0,0.0,0.0,0.0,1.0
1480971098318161394,735,1480971098316186193,,13.7123794556,21.2624645233,-175.077163696,0.00111299997661,1.0,0.0,0.0,0.0,1.0,0.0,0.0,0.0,1.0,33.5975608826,-135.426834106,101.524391174,1.0,0.0,0.0,0.0,1.0,0.0,0.0,0.0,1.0,-33.3943247559,38.3646897404,-25.0194073486,1.0,0.0,0.0,0.0,1.0,0.0,0.0,0.0,1.0
1480971098338831012,736,1480971098336857633,,15.7849683762,20.5403137207,-174.75541687,0.00106000003871,1.0,0.0,0.0,0.0,1.0,0.0,0.0,0.0,1.0,35.7317085266,129.146347046,-61.8292655945,1.0,0.0,0.0,0.0,1.0,0.0,0.0,0.0,1.0,7.16345136719,-9.47624958638,12.6413847656,1.0,0.0,0.0,0.0,1.0,0.0,0.0,0.0,1.0
1480971098359864065,737,1480971098357873863,,17.8628082275,21.1700592041,-174.045425415,0.00100699998438,1.0,0.0,0.0,0.0,1.0,0.0,0.0,0.0,1.0,20.4878044128,61.0365905762,1.46341466904,1.0,0.0,0.0,0.0,1.0,0.0,0.0,0.0,1.0,7.43160195312,-15.2941602051,26.4032559082,1.0,0.0,0.0,0.0,1.0,0.0,0.0,0.0,1.0
1480971098381235711,738,1480971098378981812,,19.6564121246,21.9060840607,-173.567062378,0.00106799998321,1.0,0.0,0.0,0.0,1.0,0.0,0.0,0.0,1.0,-67.865852356,72.5609817505,-13.841463089,1.0,0.0,0.0,0.0,1.0,0.0,0.0,0.0,1.0,-8.96389101563,19.6372420166,7.2831614502,1.0,0.0,0.0,0.0,1.0,0.0,0.0,0.0,1.0
1480971098402163765,739,1480971098400209448,,21.5976715088,21.3179283142,-174.157791138,0.0010150000453,1.0,0.0,0.0,0.0,1.0,0.0,0.0,0.0,1.0,5.24390268326,98.1707305908,15.1829271317,1.0,0.0,0.0,0.0,1.0,0.0,0.0,0.0,1.0,-14.3939403809,4.07971962891,9.8545340332,1.0,0.0,0.0,0.0,1.0,0.0,0.0,0.0,1.0
1480971098423478953,740,1480971098421387814,,22.3386058807,21.4261074066,-174.26651001,0.00108700001147,1.0,0.0,0.0,0.0,1.0,0.0,0.0,0.0,1.0,-83.4146347046,113.597564697,-5.18292713165,1.0,0.0,0.0,0.0,1.0,0.0,0.0,0.0,1.0,13.6852566895,1.34554133301,9.33259748677,1.0,0.0,0.0,0.0,1.0,0.0,0.0,0.0,1.0
1480971098444851015,741,1480971098442855970,,23.3288059235,21.9788246155,-174.855270386,0.00101400003769,1.0,0.0,0.0,0.0,1.0,0.0,0.0,0.0,1.0,-99.1463470459,22.4390239716,40.9146385193,1.0,0.0,0.0,0.0,1.0,0.0,0.0,0.0,1.0,13.1441671143,20.1352359619,46.2847064941,1.0,0.0,0.0,0.0,1.0,0.0,0.0,0.0,1.0
1480971098467654948,742,1480971098464043137,,25.4072761536,21.2731952667,-174.88319397,0.00131500000134,1.0,0.0,0.0,0.0,1.0,0.0,0.0,0.0,1.0,91.707321167,43.9024391174,-75.0,1.0,0.0,0.0,0.0,1.0,0.0,0.0,0.0,1.0,-40.5386225098,-21.2413571289,-36.8994359863,1.0,0.0,0.0,0.0,1.0,0.0,0.0,0.0,1.0
1480971098489378728,743,1480971098484683484,,25.3907585144,21.6203670502,-175.103652954,0.00102700002026,1.0,0.0,0.0,0.0,1.0,0.0,0.0,0.0,1.0,-120.60975647,3.17073178291,-25.6097564697,1.0,0.0,0.0,0.0,1.0,0.0,0.0,0.0,1.0,1.85790048828,13.0723410645,16.2566304415,1.0,0.0,0.0,0.0,1.0,0.0,0.0,0.0,1.0
1480971098509625795,744,1480971098505966015,,26.5080871582,19.9320220947,-175.49546814,0.00112499995157,1.0,0.0,0.0,0.0,1.0,0.0,0.0,0.0,1.0,-101.158538818,102.012199402,-30.1829280853,1.0,0.0,0.0,0.0,1.0,0.0,0.0,0.0,1.0,6.19140549316,-20.1112939453,12.3109849365,1.0,0.0,0.0,0.0,1.0,0.0,0.0,0.0,1.0
1480971098529517810,745,1480971098527131933,,27.8457145691,20.7896347046,-176.029129028,0.00107400002889,1.0,0.0,0.0,0.0,1.0,0.0,0.0,0.0,1.0,257.804901123,-119.939025879,-38.5365829468,1.0,0.0,0.0,0.0,1.0,0.0,0.0,0.0,1.0,8.84896933594,-38.1970932861,34.7159240723,1.0,0.0,0.0,0.0,1.0,0.0,0.0,0.0,1.0
1480971098551754245,746,1480971098547884102,,27.6760292053,22.4980735779,-175.435699463,0.00124799995683,1.0,0.0,0.0,0.0,1.0,0.0,0.0,0.0,1.0,-77.3170776367,78.9634170532,-43.1707305908,1.0,0.0,0.0,0.0,1.0,0.0,0.0,0.0,1.0,1.20188930646,9.16021555176,43.0812646729,1.0,0.0,0.0,0.0,1.0,0.0,0.0,0.0,1.0
1480971098570560171,747,1480971098568437886,,28.7127094269,20.9758052826,-176.497451782,0.00128500000574,1.0,0.0,0.0,0.0,1.0,0.0,0.0,0.0,1.0,-44.1463432312,-25.7926845551,-7.07317113876,1.0,0.0,0.0,0.0,1.0,0.0,0.0,0.0,1.0,8.80587370605,-0.890643017578,6.77080229492,1.0,0.0,0.0,0.0,1.0,0.0,0.0,0.0,1.0
1480971098591285256,748,1480971098589120889,,29.6758117676,21.0640926361,-176.436630249,0.00135999999475,1.0,0.0,0.0,0.0,1.0,0.0,0.0,0.0,1.0,-29.2682933807,24.5731716156,3.53658556938,1.0,0.0,0.0,0.0,1.0,0.0,0.0,0.0,1.0,1.01514150391,10.060435376,8.34139799946,1.0,0.0,0.0,0.0,1.0,0.0,0.0,0.0,1.0
1480971098618106259,749,1480971098614304136,,31.3773326874,20.9486942291,-175.752441406,0.00609799986705,1.0,0.0,0.0,0.0,1.0,0.0,0.0,0.0,1.0,-102.621948242,98.5365829468,41.3414649963,1.0,0.0,0.0,0.0,1.0,0.0,0.0,0.0,1.0,-1.01992990723,19.3786682373,24.9523697021,1.0,0.0,0.0,0.0,1.0,0.0,0.0,0.0,1.0
1480971098636570571,750,1480971098634849743,,32.471534729,21.1409511566,-175.572677612,0.00109200004954,1.0,0.0,0.0,0.0,1.0,0.0,0.0,0.0,1.0,-35.1219520569,43.1707305908,33.2926826477,1.0,0.0,0.0,0.0,1.0,0.0,0.0,0.0,1.0,10.9798088135,5.39653054199,-0.560243188477,1.0,0.0,0.0,0.0,1.0,0.0,0.0,0.0,1.0
1480971098658202372,751,1480971098656385816,,33.165397644,20.8724575043,-176.944946289,0.00137499999255,1.0,0.0,0.0,0.0,1.0,0.0,0.0,0.0,1.0,102.500007629,-12.7439022064,-23.7804889679,1.0,0.0,0.0,0.0,1.0,0.0,0.0,0.0,1.0,-12.2535240967,11.2383825928,-0.0287304199219,1.0,0.0,0.0,0.0,1.0,0.0,0.0,0.0,1.0
1480971098678648084,752,1480971098676757934,,33.9360351562,19.6435756683,-177.666442871,0.00133899995126,1.0,0.0,0.0,0.0,1.0,0.0,0.0,0.0,1.0,-25.0,33.6585388184,-108.963417053,1.0,0.0,0.0,0.0,1.0,0.0,0.0,0.0,1.0,-22.1032697266,-34.4765062443,-2.1691467041,1.0,0.0,0.0,0.0,1.0,0.0,0.0,0.0,1.0
1480971098700607644,753,1480971098698167392,,35.1010856628,21.1435527802,-178.667037964,0.00107400002889,1.0,0.0,0.0,0.0,1.0,0.0,0.0,0.0,1.0,197.378051758,-38.2926864624,-79.634147644,1.0,0.0,0.0,0.0,1.0,0.0,0.0,0.0,1.0,16.8168712919,-1.19231249982,14.6142069336,1.0,0.0,0.0,0.0,1.0,0.0,0.0,0.0,1.0
1480971098721357522,754,1480971098719154040,,35.7330245972,19.1052246094,-179.669784546,0.00112300005276,1.0,0.0,0.0,0.0,1.0,0.0,0.0,0.0,1.0,160.914642334,-2.92682933807,-98.5975646973,1.0,0.0,0.0,0.0,1.0,0.0,0.0,0.0,1.0,-13.46977854,-32.0104761963,-18.0235500977,1.0,0.0,0.0,0.0,1.0,0.0,0.0,0.0,1.0
1480971098755633603,755,1480971098751296274,,36.0991363525,20.0501480103,-179.703674316,0.00787600036711,1.0,0.0,0.0,0.0,1.0,0.0,0.0,0.0,1.0,2.07317066193,2.13414645195,-75.1829299927,1.0,0.0,0.0,0.0,1.0,0.0,0.0,0.0,1.0,-12.8041904785,3.3710359375,-0.76614453125,1.0,0.0,0.0,0.0,1.0,0.0,0.0,0.0,1.0
1480971098768910902,756,1480971098764549146,,36.5825424194,16.6848754883,178.472244263,0.00262899999507,1.0,0.0,0.0,0.0,1.0,0.0,0.0,0.0,1.0,-3.90243911743,67.1951217651,-27.0121955872,1.0,0.0,0.0,0.0,1.0,0.0,0.0,0.0,1.0,-5.31991608887,-26.1111633057,34.2849701115,1.0,0.0,0.0,0.0,1.0,0.0,0.0,0.0,1.0
1480971098791086086,757,1480971098786575008,,35.2949714661,15.5753440857,178.397689819,0.00274399993941,1.0,0.0,0.0,0.0,1.0,0.0,0.0,0.0,1.0,-182.317077637,141.463424683,-2.68292689323,1.0,0.0,0.0,0.0,1.0,0.0,0.0,0.0,1.0,14.7387054199,-2.58573779297,12.3301385498,1.0,0.0,0.0,0.0,1.0,0.0,0.0,0.0,1.0
1480971098809423003,758,1480971098807086813,,36.021812439,17.1900997162,176.631317139,0.00119500001892,1.0,0.0,0.0,0.0,1.0,0.0,0.0,0.0,1.0,12.8658542633,-3.04878044128,1.15853655338,1.0,0.0,0.0,0.0,1.0,0.0,0.0,0.0,1.0,-2.59531459961,6.11479104004,6.01423457031,1.0,0.0,0.0,0.0,1.0,0.0,0.0,0.0,1.0
1480971098830759441,759,1480971098828845541,,35.7056541443,24.1603527069,175.529052734,0.00116900005378,1.0,0.0,0.0,0.0,1.0,0.0,0.0,0.0,1.0,-162.682937622,71.8292694092,-14.8170728683,1.0,0.0,0.0,0.0,1.0,0.0,0.0,0.0,1.0,0.277727392578,15.3755630615,-40.3853936035,1.0,0.0,0.0,0.0,1.0,0.0,0.0,0.0,1.0
1480971098854392329,760,1480971098851004007,,37.5557098389,19.7905845642,174.263000488,0.00541599979624,1.0,0.0,0.0,0.0,1.0,0.0,0.0,0.0,1.0,32.0731697083,-47.7439041138,-77.2561035156,1.0,0.0,0.0,0.0,1.0,0.0,0.0,0.0,1.0,5.17147558594,-10.1083194092,9.04529387207,1.0,0.0,0.0,0.0,1.0,0.0,0.0,0.0,1.0
1480971098880392137,761,1480971098872165394,,35.9240341187,22.0591602325,173.553039551,0.00164000003133,1.0,0.0,0.0,0.0,1.0,0.0,0.0,0.0,1.0,-98.841468811,56.4634132385,-22.1951236725,1.0,0.0,0.0,0.0,1.0,0.0,0.0,0.0,1.0,0.995987890625,21.2269919189,14.2215578613,1.0,0.0,0.0,0.0,1.0,0.0,0.0,0.0,1.0
1480971098898000306,762,1480971098894893285,,35.9200820923,21.9914264679,171.643295288,0.00922800041735,1.0,0.0,0.0,0.0,1.0,0.0,0.0,0.0,1.0,-41.0365867615,41.0365867615,31.7073192596,1.0,0.0,0.0,0.0,1.0,0.0,0.0,0.0,1.0,-25.009830542,-31.153352002,-22.9220866943,1.0,0.0,0.0,0.0,1.0,0.0,0.0,0.0,1.0
1480971098925333546,763,1480971098915425871,,35.7164878845,20.9386329651,171.379577637,0.00174400000833,1.0,0.0,0.0,0.0,1.0,0.0,0.0,0.0,1.0,-96.8902511597,42.1951255798,-10.2439022064,1.0,0.0,0.0,0.0,1.0,0.0,0.0,0.0,1.0,-2.84431157227,0.857124194336,-6.72770666504,1.0,0.0,0.0,0.0,1.0,0.0,0.0,0.0,1.0
1480971098941049534,764,1480971098937272828,,35.5272254944,20.3085308075,169.918533325,0.00401500007138,1.0,0.0,0.0,0.0,1.0,0.0,0.0,0.0,1.0,164.817077637,-38.1097564697,-92.134147644,1.0,0.0,0.0,0.0,1.0,0.0,0.0,0.0,1.0,-30.9043550293,-11.0851536865,-76.4133355094,1.0,0.0,0.0,0.0,1.0,0.0,0.0,0.0,1.0
1480971098961895297,765,1480971098958897807,,35.1286506653,19.2419700623,170.355117798,0.00185600004625,1.0,0.0,0.0,0.0,1.0,0.0,0.0,0.0,1.0,-49.0243911743,-73.0487823486,-34.4512214661,1.0,0.0,0.0,0.0,1.0,0.0,0.0,0.0,1.0,-3.84987626953,3.89776030273,2.96402165527,1.0,0.0,0.0,0.0,1.0,0.0,0.0,0.0,1.0
1480971098981673406,766,1480971098979031957,,36.0374031067,20.460351944,168.864227295,0.00110800005496,1.0,0.0,0.0,0.0,1.0,0.0,0.0,0.0,1.0,473.841491699,2.74390244484,-69.5121994019,1.0,0.0,0.0,0.0,1.0,0.0,0.0,0.0,1.0,3.15076938477,26.3314298584,48.3293547119,1.0,0.0,0.0,0.0,1.0,0.0,0.0,0.0,1.0
1480971099004322808,767,1480971099001814275,,34.2533721924,20.3425827026,168.2084198,0.00661499984562,1.0,0.0,0.0,0.0,1.0,0.0,0.0,0.0,1.0,205.365859985,-138.292694092,-72.7439041138,1.0,0.0,0.0,0.0,1.0,0.0,0.0,0.0,1.0,13.7666595459,-2.02549460449,25.7999170898,1.0,0.0,0.0,0.0,1.0,0.0,0.0,0.0,1.0
1480971099024797635,768,1480971099022576653,,34.001537323,19.9984264374,168.11730957,0.00112100003753,1.0,0.0,0.0,0.0,1.0,0.0,0.0,0.0,1.0,-76.2804946899,-47.2560958862,-4.39024400711,1.0,0.0,0.0,0.0,1.0,0.0,0.0,0.0,1.0,4.45321508789,23.7935760986,3.25611425781,1.0,0.0,0.0,0.0,1.0,0.0,0.0,0.0,1.0
1480971099051554887,769,1480971099047967295,,34.0938873291,19.5047473907,166.930084229,0.00112399994396,1.0,0.0,0.0,0.0,1.0,0.0,0.0,0.0,1.0,-75.365852356,-29.0853672028,-8.96341514587,1.0,0.0,0.0,0.0,1.0,0.0,0.0,0.0,1.0,-5.50187541504,13.7139871094,2.38941340297,1.0,0.0,0.0,0.0,1.0,0.0,0.0,0.0,1.0
1480971099071116800,770,1480971099064497812,,34.072303772,18.7050800323,166.269241333,0.00149399996735,1.0,0.0,0.0,0.0,1.0,0.0,0.0,0.0,1.0,-94.4512176514,45.365852356,18.7804889679,1.0,0.0,0.0,0.0,1.0,0.0,0.0,0.0,1.0,-6.66066901855,5.99986936035,-12.5982891357,1.0,0.0,0.0,0.0,1.0,0.0,0.0,0.0,1.0
1480971099089007885,771,1480971099084911180,,33.4124641418,17.2243251801,165.427032471,0.00108199997339,1.0,0.0,0.0,0.0,1.0,0.0,0.0,0.0,1.0,-44.0853652954,77.6219558716,-15.6097564697,1.0,0.0,0.0,0.0,1.0,0.0,0.0,0.0,1.0,2.83952316895,-21.2988179687,24.0856687012,1.0,0.0,0.0,0.0,1.0,0.0,0.0,0.0,1.0
1480971099113214677,772,1480971099110934685,,33.3685264587,17.3063240051,165.288024902,0.00171500002034,1.0,0.0,0.0,0.0,1.0,0.0,0.0,0.0,1.0,17.1951217651,43.7804870605,-28.5975608826,1.0,0.0,0.0,0.0,1.0,0.0,0.0,0.0,1.0,-5.12837995605,0.15322890625,4.07014282227,1.0,0.0,0.0,0.0,1.0,0.0,0.0,0.0,1.0
1480971099131972061,773,1480971099126777444,,33.9949645996,17.1089611053,165.004974365,0.00153000000864,1.0,0.0,0.0,0.0,1.0,0.0,0.0,0.0,1.0,-10.6097564697,101.951217651,-42.9878044128,1.0,0.0,0.0,0.0,1.0,0.0,0.0,0.0,1.0,2.55221896973,-17.7170922852,54.8751020508,1.0,0.0,0.0,0.0,1.0,0.0,0.0,0.0,1.0
1480971099149924292,774,1480971099147354249,,33.1387481689,17.6440353394,165.435317993,0.00107600004412,1.0,0.0,0.0,0.0,1.0,0.0,0.0,0.0,1.0,-39.0243911743,18.1097564697,-50.6707344055,1.0,0.0,0.0,0.0,1.0,0.0,0.0,0.0,1.0,1.08696755371,-10.1083194092,27.7104900146,1.0,0.0,0.0,0.0,1.0,0.0,0.0,0.0,1.0
1480971099171565729,775,1480971099168360635,,33.4069290161,17.0328388214,164.590484619,0.0011930000037,1.0,0.0,0.0,0.0,1.0,0.0,0.0,0.0,1.0,59.024394989,82.3780517578,-47.0731697083,1.0,0.0,0.0,0.0,1.0,0.0,0.0,0.0,1.0,-14.2359230713,-30.7367609131,9.53371159526,1.0,0.0,0.0,0.0,1.0,0.0,0.0,0.0,1.0
1480971099193417738,776,1480971099190451081,,33.230632782,18.2980861664,164.323562622,0.00192199996673,1.0,0.0,0.0,0.0,1.0,0.0,0.0,0.0,1.0,4.20731735229,-43.9634170532,-66.5243911743,1.0,0.0,0.0,0.0,1.0,0.0,0.0,0.0,1.0,-6.57926616211,6.90487758789,5.55454785156,1.0,0.0,0.0,0.0,1.0,0.0,0.0,0.0,1.0
1480971099214508655,777,1480971099211817519,,33.1600418091,17.6260223389,163.172714233,0.00149499997497,1.0,0.0,0.0,0.0,1.0,0.0,0.0,0.0,1.0,47.8658561707,-44.6341438293,-13.1707324982,1.0,0.0,0.0,0.0,1.0,0.0,0.0,0.0,1.0,-4.00310517578,7.52737001953,6.20577070312,1.0,0.0,0.0,0.0,1.0,0.0,0.0,0.0,1.0
1480971099235061710,778,1480971099232973020,,33.0816497803,16.7813034058,162.668319702,0.00140499998815,1.0,0.0,0.0,0.0,1.0,0.0,0.0,0.0,1.0,12.9268293381,-12.8048782349,-37.0121955872,1.0,0.0,0.0,0.0,1.0,0.0,0.0,0.0,1.0,3.57693728027,-2.64319863281,10.778695874,1.0,0.0,0.0,0.0,1.0,0.0,0.0,0.0,1.0
1480971099256579918,779,1480971099253581856,,33.3570365906,15.9356298447,162.389129639,0.00116700003855,1.0,0.0,0.0,0.0,1.0,0.0,0.0,0.0,1.0,-120.182937622,142.926834106,-10.8536586761,1.0,0.0,0.0,0.0,1.0,0.0,0.0,0.0,1.0,16.3284553223,-21.9260988037,38.1731536076,1.0,0.0,0.0,0.0,1.0,0.0,0.0,0.0,1.0
1480971099277553962,780,1480971099275149959,,33.2317886353,16.6329784393,161.795379639,0.00189900002442,1.0,0.0,0.0,0.0,1.0,0.0,0.0,0.0,1.0,-82.1951293945,141.829269409,-8.59756088257,1.0,0.0,0.0,0.0,1.0,0.0,0.0,0.0,1.0,-5.31991608887,-20.0586215088,49.1242296631,1.0,0.0,0.0,0.0,1.0,0.0,0.0,0.0,1.0
1480971099299296127,781,1480971099296683949,,33.3597297668,16.8921203613,160.771728516,0.0014530000044,1.0,0.0,0.0,0.0,1.0,0.0,0.0,0.0,1.0,100.792686462,-14.8780498505,-40.1829299927,1.0,0.0,0.0,0.0,1.0,0.0,0.0,0.0,1.0,-15.1983921387,-12.6509615723,-8.85854614258,1.0,0.0,0.0,0.0,1.0,0.0,0.0,0.0,1.0
1480971099320913397,782,1480971099318486010,,33.0857200623,17.1849708557,160.583282471,0.00146800000221,1.0,0.0,0.0,0.0,1.0,0.0,0.0,0.0,1.0,58.9634132385,46.1585388184,-77.1951217651,1.0,0.0,0.0,0.0,1.0,0.0,0.0,0.0,1.0,-8.3030907729,-17.760186746,26.6187340576,1.0,0.0,0.0,0.0,1.0,0.0,0.0,0.0,1.0
1480971099342152231,783,1480971099339170679,,32.7511901855,18.2224197388,159.606170654,0.00104200001806,1.0,0.0,0.0,0.0,1.0,0.0,0.0,0.0,1.0,25.975610733,-83.4146347046,-17.2560977936,1.0,0.0,0.0,0.0,1.0,0.0,0.0,0.0,1.0,-10.4099888184,20.1639663818,12.1338140137,1.0,0.0,0.0,0.0,1.0,0.0,0.0,0.0,1.0
1480971099362517266,784,1480971099360070660,,33.1093940735,17.1537227631,159.269989014,0.00113200000487,1.0,0.0,0.0,0.0,1.0,0.0,0.0,0.0,1.0,4.93902444839,1.03658533096,-23.5365848541,1.0,0.0,0.0,0.0,1.0,0.0,0.0,0.0,1.0,-8.18816967773,-0.790086547852,2.61446821289,1.0,0.0,0.0,0.0,1.0,0.0,0.0,0.0,1.0
1480971099384458910,785,1480971099381334754,,32.9151573181,16.8725070953,158.346160889,0.00131600000896,1.0,0.0,0.0,0.0,1.0,0.0,0.0,0.0,1.0,114.756095886,-34.7560997009,-15.3658533096,1.0,0.0,0.0,0.0,1.0,0.0,0.0,0.0,1.0,-1.38863696289,2.91613762207,12.976572998,1.0,0.0,0.0,0.0,1.0,0.0,0.0,0.0,1.0
1480971099404102229,786,1480971099401394946,,32.8841171265,15.3196630478,157.780334473,0.00104000000283,1.0,0.0,0.0,0.0,1.0,0.0,0.0,0.0,1.0,-75.5487823486,170.243911743,-18.7195110321,1.0,0.0,0.0,0.0,1.0,0.0,0.0,0.0,1.0,20.0059490723,-14.0779057617,48.1042997559,1.0,0.0,0.0,0.0,1.0,0.0,0.0,0.0,1.0
1480971099424399087,787,1480971099422143105,,32.6686515808,13.6325931549,158.006942749,0.00101699994411,1.0,0.0,0.0,0.0,1.0,0.0,0.0,0.0,1.0,-102.865859985,84.6951217651,-16.8292694092,1.0,0.0,0.0,0.0,1.0,0.0,0.0,0.0,1.0,14.8248966797,-14.8823575195,29.3241819336,1.0,0.0,0.0,0.0,1.0,0.0,0.0,0.0,1.0
1480971099445613181,788,1480971099443172512,,32.6086349487,14.3797426224,157.544509888,0.00101699994411,1.0,0.0,0.0,0.0,1.0,0.0,0.0,0.0,1.0,-17.134147644,66.707321167,-42.5609779358,1.0,0.0,0.0,0.0,1.0,0.0,0.0,0.0,1.0,3.18428820801,-26.9634990967,22.1894609863,1.0,0.0,0.0,0.0,1.0,0.0,0.0,0.0,1.0
1480971099466689828,789,1480971099464337649,,32.69947052,14.6278524399,157.043518066,0.00149299995974,1.0,0.0,0.0,0.0,1.0,0.0,0.0,0.0,1.0,215.975616455,-29.6341457367,-85.0,1.0,0.0,0.0,0.0,1.0,0.0,0.0,0.0,1.0,-21.2078383057,-28.9698400879,3.1124621582,1.0,0.0,0.0,0.0,1.0,0.0,0.0,0.0,1.0
1480971099488787305,790,1480971099485108099,,32.9286804199,14.2211256027,157.286605835,0.001215999946,1.0,0.0,0.0,0.0,1.0,0.0,0.0,0.0,1.0,199.756103516,-3.90243911743,-103.292686462,1.0,0.0,0.0,0.0,1.0,0.0,0.0,0.0,1.0,-27.700913208,-23.2093908936,-19.4026102539,1.0,0.0,0.0,0.0,1.0,0.0,0.0,0.0,1.0
1480971099511609154,791,1480971099508655675,,31.2470169067,15.272649765,157.666519165,0.0012009999482,1.0,0.0,0.0,0.0,1.0,0.0,0.0,0.0,1.0,-63.5975646973,-15.8536596298,-58.9024391174,1.0,0.0,0.0,0.0,1.0,0.0,0.0,0.0,1.0,-5.77960280762,8.28872556294,12.2104284668,1.0,0.0,0.0,0.0,1.0,0.0,0.0,0.0,1.0
1480971099530565809,792,1480971099528485191,,31.5325241089,14.6824512482,156.374038696,0.00104000000283,1.0,0.0,0.0,0.0,1.0,0.0,0.0,0.0,1.0,7.56097555161,-8.90243911743,-46.7682952881,1.0,0.0,0.0,0.0,1.0,0.0,0.0,0.0,1.0,-16.3045144747,-15.8544033936,-34.4238314697,1.0,0.0,0.0,0.0,1.0,0.0,0.0,0.0,1.0
1480971099551876101,793,1480971099550155013,,30.6200942993,13.4558897018,155.492355347,0.00294500007294,1.0,0.0,0.0,0.0,1.0,0.0,0.0,0.0,1.0,348.719512939,-293.597564697,-124.146347046,1.0,0.0,0.0,0.0,1.0,0.0,0.0,0.0,1.0,19.3355737765,-28.9554748779,58.7872275635,1.0,0.0,0.0,0.0,1.0,0.0,0.0,0.0,1.0
1480971099574336910,794,1480971099570899161,,30.2483005524,13.6022930145,155.967025757,0.00124100001995,1.0,0.0,0.0,0.0,1.0,0.0,0.0,0.0,1.0,63.5975646973,-25.4268302917,-55.9146347046,1.0,0.0,0.0,0.0,1.0,0.0,0.0,0.0,1.0,1.75255561523,5.54497104492,25.234885498,1.0,0.0,0.0,0.0,1.0,0.0,0.0,0.0,1.0
1480971099594951319,795,1480971099591954402,,30.4032154083,13.7221546173,156.166915894,0.00112599995919,1.0,0.0,0.0,0.0,1.0,0.0,0.0,0.0,1.0,-171.829269409,20.1219520569,-32.8048782349,1.0,0.0,0.0,0.0,1.0,0.0,0.0,0.0,1.0,2.77727392578,-2.02070620117,-3.79720383301,1.0,0.0,0.0,0.0,1.0,0.0,0.0,0.0,1.0
1480971099615591040,796,1480971099612941466,,31.4040050507,12.6756744385,155.42578125,0.00114099995699,1.0,0.0,0.0,0.0,1.0,0.0,0.0,0.0,1.0,-137.378051758,279.024383545,18.0487823486,1.0,0.0,0.0,0.0,1.0,0.0,0.0,0.0,1.0,34.696770459,-13.3117612305,76.9783717773,1.0,0.0,0.0,0.0,1.0,0.0,0.0,0.0,1.0
1480971099636312480,797,1480971099633509364,,31.4300193787,14.1976490021,155.728988647,0.000980000011623,1.0,0.0,0.0,0.0,1.0,0.0,0.0,0.0,1.0,-55.7926826477,101.097557068,-5.73170757294,1.0,0.0,0.0,0.0,1.0,0.0,0.0,0.0,1.0,-8.61433815776,21.6579482178,2.13562802699,1.0,0.0,0.0,0.0,1.0,0.0,0.0,0.0,1.0
1480971099657236679,798,1480971099654637313,,31.9606285095,14.1265497208,154.742248535,0.00106799998321,1.0,0.0,0.0,0.0,1.0,0.0,0.0,0.0,1.0,177.317077637,-60.6707382202,-75.7317047119,1.0,0.0,0.0,0.0,1.0,0.0,0.0,0.0,1.0,6.61757338867,-33.0304061035,30.0903264648,1.0,0.0,0.0,0.0,1.0,0.0,0.0,0.0,1.0
1480971099679509416,799,1480971099676827446,,31.7438697815,14.6644487381,154.378967285,0.00127100001555,1.0,0.0,0.0,0.0,1.0,0.0,0.0,0.0,1.0,26.5853652954,57.3780479431,-29.6341457367,1.0,0.0,0.0,0.0,1.0,0.0,0.0,0.0,1.0,8.81066210937,-0.938527050781,7.38850632324,1.0,0.0,0.0,0.0,1.0,0.0,0.0,0.0,1.0
1480971099700192419,800,1480971099697177793,,32.0701065063,14.710849762,154.252563477,0.00135999999475,1.0,0.0,0.0,0.0,1.0,0.0,0.0,0.0,1.0,-14.9390249252,57.0121955872,-23.8414649963,1.0,0.0,0.0,0.0,1.0,0.0,0.0,0.0,1.0,-9.5432884019,-11.1904985596,5.54975944824,1.0,0.0,0.0,0.0,1.0,0.0,0.0,0.0,1.0
1480971099720515943,801,1480971099717922827,,31.712638855,15.2027664185,153.639770508,0.000974000024144,1.0,0.0,0.0,0.0,1.0,0.0,0.0,0.0,1.0,-86.7682952881,7.68292665482,0.975609779358,1.0,0.0,0.0,0.0,1.0,0.0,0.0,0.0,1.0,4.84107575684,8.75320126953,12.2008516602,1.0,0.0,0.0,0.0,1.0,0.0,0.0,0.0,1.0
1480971099741954412,802,1480971099739365983,,31.93866539,14.1830806732,152.99571228,0.00111700000707,1.0,0.0,0.0,0.0,1.0,0.0,0.0,0.0,1.0,-25.3658542633,-0.670731723309,-5.91463422775,1.0,0.0,0.0,0.0,1.0,0.0,0.0,0.0,1.0,9.92157167969,-10.9558667969,15.7730005371,1.0,0.0,0.0,0.0,1.0,0.0,0.0,0.0,1.0
1480971099764244857,803,1480971099760722213,,31.6208744049,14.4652099609,152.908615112,0.00128700002097,1.0,0.0,0.0,0.0,1.0,0.0,0.0,0.0,1.0,-62.2560997009,45.0609779358,-4.81707286835,1.0,0.0,0.0,0.0,1.0,0.0,0.0,0.0,1.0,-0.124498486328,8.43716606587,2.85388837891,1.0,0.0,0.0,0.0,1.0,0.0,0.0,0.0,1.0
1480971099784231039,804,1480971099781067560,,31.7451705933,14.8279504776,152.302368164,0.00101400003769,1.0,0.0,0.0,0.0,1.0,0.0,0.0,0.0,1.0,-112.804885864,92.6219482422,0.304878056049,1.0,0.0,0.0,0.0,1.0,0.0,0.0,0.0,1.0,7.70454094238,1.73819040527,20.0490447021,1.0,0.0,0.0,0.0,1.0,0.0,0.0,0.0,1.0
1480971099805399404,805,1480971099802735507,,31.8976745605,15.3982963562,152.108612061,0.00106299994513,1.0,0.0,0.0,0.0,1.0,0.0,0.0,0.0,1.0,16.4024391174,22.4390239716,-31.0975627899,1.0,0.0,0.0,0.0,1.0,0.0,0.0,0.0,1.0,-16.4960494385,1.25456166992,3.76847341309,1.0,0.0,0.0,0.0,1.0,0.0,0.0,0.0,1.0
1480971099826377301,806,1480971099823701165,,31.5628871918,14.6539506912,151.805969238,0.00112000002991,1.0,0.0,0.0,0.0,1.0,0.0,0.0,0.0,1.0,-58.9024391174,65.2439041138,-33.5975608826,1.0,0.0,0.0,0.0,1.0,0.0,0.0,0.0,1.0,4.69742336497,-25.4647288574,32.7622555176,1.0,0.0,0.0,0.0,1.0,0.0,0.0,0.0,1.0
1480971099851438935,807,1480971099847636448,,31.2718143463,15.5991430283,151.408859253,0.00169599999208,1.0,0.0,0.0,0.0,1.0,0.0,0.0,0.0,1.0,-99.9390335083,90.0,8.59756088257,1.0,0.0,0.0,0.0,1.0,0.0,0.0,0.0,1.0,0.320823022461,-17.8894748047,24.1287643311,1.0,0.0,0.0,0.0,1.0,0.0,0.0,0.0,1.0
1480971099870603036,808,1480971099868172784,,31.9304962158,14.6017799377,150.516540527,0.0024530000519,1.0,0.0,0.0,0.0,1.0,0.0,0.0,0.0,1.0,-127.256095886,4.14634132385,-3.10975623131,1.0,0.0,0.0,0.0,1.0,0.0,0.0,0.0,1.0,-0.383072265625,-1.30723410645,0.0191536132812,1.0,0.0,0.0,0.0,1.0,0.0,0.0,0.0,1.0
1480971099892459160,809,1480971099889867710,,32.0313453674,16.8852329254,150.282852173,0.00124400004279,1.0,0.0,0.0,0.0,1.0,0.0,0.0,0.0,1.0,-185.548782349,-9.45121955872,108.536582947,1.0,0.0,0.0,0.0,1.0,0.0,0.0,0.0,1.0,0.316034619141,33.0304061035,-23.4583878662,1.0,0.0,0.0,0.0,1.0,0.0,0.0,0.0,1.0
1480971099914147992,810,1480971099911326283,,32.6765022278,14.4721012115,149.927749634,0.00134600000456,1.0,0.0,0.0,0.0,1.0,0.0,0.0,0.0,1.0,-52.5609779358,88.0487823486,-38.9634132385,1.0,0.0,0.0,0.0,1.0,0.0,0.0,0.0,1.0,5.88973608398,-2.88740720215,5.59764348145,1.0,0.0,0.0,0.0,1.0,0.0,0.0,0.0,1.0
1480971099935156150,811,1480971099931935328,,34.3757209778,13.7709951401,149.360366821,0.00143699999899,1.0,0.0,0.0,0.0,1.0,0.0,0.0,0.0,1.0,314.146331787,-56.5853691101,-30.3658542633,1.0,0.0,0.0,0.0,1.0,0.0,0.0,0.0,1.0,-6.0573302002,-14.7482822266,15.8496149902,1.0,0.0,0.0,0.0,1.0,0.0,0.0,0.0,1.0
1480971099955306758,812,1480971099952824944,,34.0173797607,15.7519645691,149.549102783,0.00123199995141,1.0,0.0,0.0,0.0,1.0,0.0,0.0,0.0,1.0,-61.524394989,-14.9390249252,-33.5365867615,1.0,0.0,0.0,0.0,1.0,0.0,0.0,0.0,1.0,5.85142885742,27.7918928711,22.3857855225,1.0,0.0,0.0,0.0,1.0,0.0,0.0,0.0,1.0
1480971099977003664,813,1480971099974444870,,34.915473938,14.5701208115,148.513519287,0.00138100003824,1.0,0.0,0.0,0.0,1.0,0.0,0.0,0.0,1.0,-115.975616455,64.3902435303,-26.4634151459,1.0,0.0,0.0,0.0,1.0,0.0,0.0,0.0,1.0,6.78516750488,-17.0227738037,34.246662885,1.0,0.0,0.0,0.0,1.0,0.0,0.0,0.0,1.0
1480971099998409372,814,1480971099995791204,,35.4753837585,14.4920959473,147.500091553,0.00109499995597,1.0,0.0,0.0,0.0,1.0,0.0,0.0,0.0,1.0,78.7195129395,-59.4512176514,-55.2439041138,1.0,0.0,0.0,0.0,1.0,0.0,0.0,0.0,1.0,-2.79642753906,9.53849999858,-3.78283862305,1.0,0.0,0.0,0.0,1.0,0.0,0.0,0.0,1.0
1480971100019534404,815,1480971100016886445,,35.5737228394,14.3158321381,147.144515991,0.00100899999961,1.0,0.0,0.0,0.0,1.0,0.0,0.0,0.0,1.0,29.5731697083,38.9024391174,-42.4390258789,1.0,0.0,0.0,0.0,1.0,0.0,0.0,0.0,1.0,-18.5359092529,14.9829139893,17.5494981689,1.0,0.0,0.0,0.0,1.0,0.0,0.0,0.0,1.0
1480971100040304334,816,1480971100037642572,,35.8849258423,13.4894237518,145.987365723,0.00102199998219,1.0,0.0,0.0,0.0,1.0,0.0,0.0,0.0,1.0,184.451217651,-74.8170776367,-20.4878044128,1.0,0.0,0.0,0.0,1.0,0.0,0.0,0.0,1.0,-8.00142194824,0.0574608398438,14.4992852539,1.0,0.0,0.0,0.0,1.0,0.0,0.0,0.0,1.0
1480971100061187388,817,1480971100058341772,,35.8255081177,12.7839832306,144.927597046,0.0010229999898,1.0,0.0,0.0,0.0,1.0,0.0,0.0,0.0,1.0,-4.45121955872,66.707321167,-33.2317085266,1.0,0.0,0.0,0.0,1.0,0.0,0.0,0.0,1.0,-8.3030907729,-15.5383687744,6.84741674805,1.0,0.0,0.0,0.0,1.0,0.0,0.0,0.0,1.0
1480971100082713825,818,1480971100079646491,,35.2469825745,13.3186063766,144.691467285,0.000987999956124,1.0,0.0,0.0,0.0,1.0,0.0,0.0,0.0,1.0,-97.0121994019,29.2682933807,-31.5853652954,1.0,0.0,0.0,0.0,1.0,0.0,0.0,0.0,1.0,-3.14598098145,10.3908352051,4.10366164551,1.0,0.0,0.0,0.0,1.0,0.0,0.0,0.0,1.0
1480971100103341723,819,1480971100100285223,,35.0138587952,12.9785909653,142.988113403,0.000974000024144,1.0,0.0,0.0,0.0,1.0,0.0,0.0,0.0,1.0,286.585357666,-13.5365858078,-40.9756088257,1.0,0.0,0.0,0.0,1.0,0.0,0.0,0.0,1.0,-7.36456430664,89.8687535156,57.6523759766,1.0,0.0,0.0,0.0,1.0,0.0,0.0,0.0,1.0
1480971100124250767,820,1480971100121643380,,34.5887908936,13.1057910919,143.468276978,0.00101699994411,1.0,0.0,0.0,0.0,1.0,0.0,0.0,0.0,1.0,-29.6951236725,-11.4024391174,-39.5731735229,1.0,0.0,0.0,0.0,1.0,0.0,0.0,0.0,1.0,2.74854350586,0.0383072265625,-0.746990917969,1.0,0.0,0.0,0.0,1.0,0.0,0.0,0.0,1.0
1480971100145839026,821,1480971100143124765,,35.0221633911,12.843501091,142.868835449,0.00105700001586,1.0,0.0,0.0,0.0,1.0,0.0,0.0,0.0,1.0,5.60975599289,0.670731723309,-2.92682933807,1.0,0.0,0.0,0.0,1.0,0.0,0.0,0.0,1.0,-15.0451632324,6.35421120605,-11.8560866211,1.0,0.0,0.0,0.0,1.0,0.0,0.0,0.0,1.0
1480971100166736559,822,1480971100163983600,,34.3487739563,12.8909349442,141.947525024,0.00111499999184,1.0,0.0,0.0,0.0,1.0,0.0,0.0,0.0,1.0,21.4024391174,-79.0853652954,14.6951217651,1.0,0.0,0.0,0.0,1.0,0.0,0.0,0.0,1.0,3.39018955078,25.2444623047,-2.30801040039,1.0,0.0,0.0,0.0,1.0,0.0,0.0,0.0,1.0
1480971100188991952,823,1480971100185159101,,34.8251037598,11.8299694061,141.705657959,0.0010300000431,1.0,0.0,0.0,0.0,1.0,0.0,0.0,0.0,1.0,-13.841463089,85.4878082275,-16.158536911,1.0,0.0,0.0,0.0,1.0,0.0,0.0,0.0,1.0,-20.1831199951,1.47482822266,-1.52750065918,1.0,0.0,0.0,0.0,1.0,0.0,0.0,0.0,1.0
1480971100209912350,824,1480971100206593299,,35.0303382874,11.8374948502,141.024429321,0.00104999996256,1.0,0.0,0.0,0.0,1.0,0.0,0.0,0.0,1.0,306.585388184,-107.073173523,-77.9268264771,1.0,0.0,0.0,0.0,1.0,0.0,0.0,0.0,1.0,1.1875240965,-6.24407792969,34.9553442383,1.0,0.0,0.0,0.0,1.0,0.0,0.0,0.0,1.0
1480971100230275197,825,1480971100227173854,,34.9856643677,12.3665523529,140.821838379,0.00107799994294,1.0,0.0,0.0,0.0,1.0,0.0,0.0,0.0,1.0,127.012199402,-55.0,-48.9634170532,1.0,0.0,0.0,0.0,1.0,0.0,0.0,0.0,1.0,-14.9062995361,4.46279189453,-0.526724328702,1.0,0.0,0.0,0.0,1.0,0.0,0.0,0.0,1.0
1480971100254547667,826,1480971100251798457,,34.7718544006,12.0094900131,140.378662109,0.00433100014925,1.0,0.0,0.0,0.0,1.0,0.0,0.0,0.0,1.0,-27.0121955872,-3.90243911743,9.26829242706,1.0,0.0,0.0,0.0,1.0,0.0,0.0,0.0,1.0,4.3382934082,15.5527339844,10.8026378906,1.0,0.0,0.0,0.0,1.0,0.0,0.0,0.0,1.0
1480971100275684157,827,1480971100273076145,,35.2269897461,11.8304576874,139.571182251,0.00172599998768,1.0,0.0,0.0,0.0,1.0,0.0,0.0,0.0,1.0,130.182922363,-21.2195129395,-39.4512214661,1.0,0.0,0.0,0.0,1.0,0.0,0.0,0.0,1.0,-17.9900324435,1.71903679199,-5.4683565918,1.0,0.0,0.0,0.0,1.0,0.0,0.0,0.0,1.0
1480971100296734242,828,1480971100294259979,,34.3915328979,11.8867063522,139.255218506,0.00122500001453,1.0,0.0,0.0,0.0,1.0,0.0,0.0,0.0,1.0,-120.365859985,-1.34146344662,15.1219511032,1.0,0.0,0.0,0.0,1.0,0.0,0.0,0.0,1.0,-1.64242233887,19.5271087402,-6.78037910156,1.0,0.0,0.0,0.0,1.0,0.0,0.0,0.0,1.0
1480971100317352036,829,1480971100314752931,,34.5360870361,10.7165880203,138.315368652,0.00155000004452,1.0,0.0,0.0,0.0,1.0,0.0,0.0,0.0,1.0,89.7560958862,6.7682929039,-6.95121955872,1.0,0.0,0.0,0.0,1.0,0.0,0.0,0.0,1.0,-0.277727392578,-3.52905324707,17.9277820313,1.0,0.0,0.0,0.0,1.0,0.0,0.0,0.0,1.0
1480971100337825404,830,1480971100335537391,,34.3643989563,11.2871294022,138.017684937,0.00109300005715,1.0,0.0,0.0,0.0,1.0,0.0,0.0,0.0,1.0,82.3780517578,-13.658536911,-27.7439041138,1.0,0.0,0.0,0.0,1.0,0.0,0.0,0.0,1.0,-2.07337849156,9.50976957866,21.7872351074,1.0,0.0,0.0,0.0,1.0,0.0,0.0,0.0,1.0
1480971100359102207,831,1480971100356402320,,34.1150817871,11.6862039566,137.482559204,0.00150100002065,1.0,0.0,0.0,0.0,1.0,0.0,0.0,0.0,1.0,-8.29268264771,-107.134147644,-37.6219520569,1.0,0.0,0.0,0.0,1.0,0.0,0.0,0.0,1.0,-10.4913916748,15.7394817139,-9.28471345356,1.0,0.0,0.0,0.0,1.0,0.0,0.0,0.0,1.0
1480971100379051357,832,1480971100376727563,,34.1711540222,10.873916626,136.799362183,0.00108399998862,1.0,0.0,0.0,0.0,1.0,0.0,0.0,0.0,1.0,145.60975647,-101.707321167,-30.1829280853,1.0,0.0,0.0,0.0,1.0,0.0,0.0,0.0,1.0,2.72460148926,4.40533105469,10.3812583984,1.0,0.0,0.0,0.0,1.0,0.0,0.0,0.0,1.0
1480971100400750242,833,1480971100398215823,,34.3661499023,11.1180639267,136.841751099,0.00132100004703,1.0,0.0,0.0,0.0,1.0,0.0,0.0,0.0,1.0,-89.4512252808,-2.62195134163,-23.9024391174,1.0,0.0,0.0,0.0,1.0,0.0,0.0,0.0,1.0,18.3587383301,-17.3579620361,25.7328794434,1.0,0.0,0.0,0.0,1.0,0.0,0.0,0.0,1.0
1480971100421146318,834,1480971100418797576,,34.1082305908,10.1038227081,136.600006104,0.000990999978967,1.0,0.0,0.0,0.0,1.0,0.0,0.0,0.0,1.0,-133.719528198,16.5853652954,-11.0365858078,1.0,0.0,0.0,0.0,1.0,0.0,0.0,0.0,1.0,5.90410129395,2.39899020961,16.4816842285,1.0,0.0,0.0,0.0,1.0,0.0,0.0,0.0,1.0
1480971100442640881,835,1480971100439966671,,34.7118263245,9.25099372864,135.652664185,0.000973000016529,1.0,0.0,0.0,0.0,1.0,0.0,0.0,0.0,1.0,256.585357666,-114.146339417,-58.1097564697,1.0,0.0,0.0,0.0,1.0,0.0,0.0,0.0,1.0,-1.0534486574,-23.7552688721,29.7551382324,1.0,0.0,0.0,0.0,1.0,0.0,0.0,0.0,1.0
1480971100463153155,836,1480971100460592174,,34.8017272949,9.80129432678,135.676101685,0.000979000004008,1.0,0.0,0.0,0.0,1.0,0.0,0.0,0.0,1.0,183.048782349,-46.8292694092,-74.3902511597,1.0,0.0,0.0,0.0,1.0,0.0,0.0,0.0,1.0,-21.6196409912,-20.3507141113,23.4919066895,1.0,0.0,0.0,0.0,1.0,0.0,0.0,0.0,1.0
1480971100484693342,837,1480971100481854289,,34.8029174805,9.1102437973,135.214385986,0.00097499997355,1.0,0.0,0.0,0.0,1.0,0.0,0.0,0.0,1.0,175.06098938,-70.8536605835,-16.0975608826,1.0,0.0,0.0,0.0,1.0,0.0,0.0,0.0,1.0,-2.20745393066,9.11233151855,-5.61200869141,1.0,0.0,0.0,0.0,1.0,0.0,0.0,0.0,1.0
1480971100506223581,838,1480971100502388698,,35.0292243958,9.41593837738,135.184417725,0.000967999978457,1.0,0.0,0.0,0.0,1.0,0.0,0.0,0.0,1.0,48.7804870605,27.682926178,-55.6707344055,1.0,0.0,0.0,0.0,1.0,0.0,0.0,0.0,1.0,-3.92170231934,-6.7660138916,5.69819995117,1.0,0.0,0.0,0.0,1.0,0.0,0.0,0.0,1.0
1480971100526966114,839,1480971100523162273,,34.5845031738,10.2386074066,134.823059082,0.00103100005072,1.0,0.0,0.0,0.0,1.0,0.0,0.0,0.0,1.0,-125.853660583,-42.1951255798,5.91463422775,1.0,0.0,0.0,0.0,1.0,0.0,0.0,0.0,1.0,0.842758984375,24.9427928955,14.3029607178,1.0,0.0,0.0,0.0,1.0,0.0,0.0,0.0,1.0
1480971100547241670,840,1480971100544214024,,34.9197692871,8.5604724884,133.53894043,0.00118899997324,1.0,0.0,0.0,0.0,1.0,0.0,0.0,0.0,1.0,-90.0609741211,19.2682914734,3.71951246262,1.0,0.0,0.0,0.0,1.0,0.0,0.0,0.0,1.0,-4.18027580637,-3.7253777832,-6.54574733887,1.0,0.0,0.0,0.0,1.0,0.0,0.0,0.0,1.0
1480971100567030405,841,1480971100564686038,,34.6526412964,8.47571372986,132.85067749,0.000995000009425,1.0,0.0,0.0,0.0,1.0,0.0,0.0,0.0,1.0,5.18292713165,131.158538818,12.7439022064,1.0,0.0,0.0,0.0,1.0,0.0,0.0,0.0,1.0,0.363918652344,0.531512805087,43.1099950928,1.0,0.0,0.0,0.0,1.0,0.0,0.0,0.0,1.0
1480971100589837879,842,1480971100585748154,,34.715763092,8.0735244751,132.34803772,0.000999000039883,1.0,0.0,0.0,0.0,1.0,0.0,0.0,0.0,1.0,18.2926826477,24.2073173523,-75.0,1.0,0.0,0.0,0.0,1.0,0.0,0.0,0.0,1.0,-14.6142069336,-22.170307373,-12.9286889648,1.0,0.0,0.0,0.0,1.0,0.0,0.0,0.0,1.0
1480971100611459212,843,1480971100609351823,,34.2583045959,8.16982078552,131.647796631,0.00263500004075,1.0,0.0,0.0,0.0,1.0,0.0,0.0,0.0,1.0,97.6829299927,22.1341457367,-48.6585388184,1.0,0.0,0.0,0.0,1.0,0.0,0.0,0.0,1.0,-8.09240161133,-20.8008240234,12.9957266113,1.0,0.0,0.0,0.0,1.0,0.0,0.0,0.0,1.0
1480971100631714091,844,1480971100629632588,,33.8746109009,9.05832767487,131.545593262,0.00128900003619,1.0,0.0,0.0,0.0,1.0,0.0,0.0,0.0,1.0,-30.1829280853,-47.4390258789,-23.5975627899,1.0,0.0,0.0,0.0,1.0,0.0,0.0,0.0,1.0,0.138863696289,10.314220752,5.68383474121,1.0,0.0,0.0,0.0,1.0,0.0,0.0,0.0,1.0
1480971100652191053,845,1480971100650180226,,33.5079612732,8.65763568878,131.111312866,0.00163199997041,1.0,0.0,0.0,0.0,1.0,0.0,0.0,0.0,1.0,-92.9268341064,66.2804946899,-8.41463470459,1.0,0.0,0.0,0.0,1.0,0.0,0.0,0.0,1.0,13.8193319824,8.14028564453,13.8815812256,1.0,0.0,0.0,0.0,1.0,0.0,0.0,0.0,1.0
