%time,field.header.seq,field.header.stamp,field.header.frame_id,field.orientation.x,field.orientation.y,field.orientation.z,field.orientation.w,field.orientation_covariance0,field.orientation_covariance1,field.orientation_covariance2,field.orientation_covariance3,field.orientation_covariance4,field.orientation_covariance5,field.orientation_covariance6,field.orientation_covariance7,field.orientation_covariance8,field.angular_velocity.x,field.angular_velocity.y,field.angular_velocity.z,field.angular_velocity_covariance0,field.angular_velocity_covariance1,field.angular_velocity_covariance2,field.angular_velocity_covariance3,field.angular_velocity_covariance4,field.angular_velocity_covariance5,field.angular_velocity_covariance6,field.angular_velocity_covariance7,field.angular_velocity_covariance8,field.linear_acceleration.x,field.linear_acceleration.y,field.linear_acceleration.z,field.linear_acceleration_covariance0,field.linear_acceleration_covariance1,field.linear_acceleration_covariance2,field.linear_acceleration_covariance3,field.linear_acceleration_covariance4,field.linear_acceleration_covariance5,field.linear_acceleration_covariance6,field.linear_acceleration_covariance7,field.linear_acceleration_covariance8
1463471078043318956,336,1463471077873017413,,-18.7909107208,-20.6271438599,51.1954994202,0.0140370000154,1.0,0.0,0.0,0.0,1.0,0.0,0.0,0.0,1.0,-0.853658556938,17.5609760284,7.13414621353,1.0,0.0,0.0,0.0,1.0,0.0,0.0,0.0,1.0,-2.7102362793,0.0191536132812,-7.57046564941,1.0,0.0,0.0,0.0,1.0,0.0,0.0,0.0,1.0
1463471078043357133,337,1463471077879292401,,-18.7792167664,-20.5599346161,50.8790779114,0.00594200007617,1.0,0.0,0.0,0.0,1.0,0.0,0.0,0.0,1.0,1.03658533096,20.8536586761,6.15853643417,1.0,0.0,0.0,0.0,1.0,0.0,0.0,0.0,1.0,-2.84431157227,0.263362164351,-7.62313808594,1.0,0.0,0.0,0.0,1.0,0.0,0.0,0.0,1.0
1463471078043397133,338,1463471077888989569,,-18.6703624725,-20.4161605835,50.2870025635,0.0100720003247,1.0,0.0,0.0,0.0,1.0,0.0,0.0,0.0,1.0,6.21951246262,26.5853652954,3.29268312454,1.0,0.0,0.0,0.0,1.0,0.0,0.0,0.0,1.0,-3.01190568848,-0.0526724365234,-7.54652363281,1.0,0.0,0.0,0.0,1.0,0.0,0.0,0.0,1.0
1463471078043439685,339,1463471077898854134,,-18.53033638,-20.2036190033,49.6705360413,0.00993900001049,1.0,0.0,0.0,0.0,1.0,0.0,0.0,0.0,1.0,7.80487823486,33.3536605835,2.5,1.0,0.0,0.0,0.0,1.0,0.0,0.0,0.0,1.0,-2.8060043457,-0.162805712891,-7.43639035645,1.0,0.0,0.0,0.0,1.0,0.0,0.0,0.0,1.0
1463471078043761455,340,1463471077908878177,,-18.3882827759,-19.9559669495,49.0480957031,0.0100130001083,1.0,0.0,0.0,0.0,1.0,0.0,0.0,0.0,1.0,7.86585378647,38.7195129395,4.02439022064,1.0,0.0,0.0,0.0,1.0,0.0,0.0,0.0,1.0,-3.26569106445,-0.263362164351,-7.76679018555,1.0,0.0,0.0,0.0,1.0,0.0,0.0,0.0,1.0
1463471078043881143,341,1463471077918821855,,-18.2617759705,-19.6288852692,48.4292182922,0.00998799968511,1.0,0.0,0.0,0.0,1.0,0.0,0.0,0.0,1.0,7.25609779358,44.9390258789,5.79268312454,1.0,0.0,0.0,0.0,1.0,0.0,0.0,0.0,1.0,-2.97838686523,-0.15322890625,-7.68059892578,1.0,0.0,0.0,0.0,1.0,0.0,0.0,0.0,1.0
1463471078043924736,342,1463471077929492616,,-18.1455554962,-19.2255859375,47.8253707886,0.0101039996371,1.0,0.0,0.0,0.0,1.0,0.0,0.0,0.0,1.0,6.64634132385,50.9146347046,9.81707286835,1.0,0.0,0.0,0.0,1.0,0.0,0.0,0.0,1.0,-2.94486804199,-0.248996972656,-7.79552060547,1.0,0.0,0.0,0.0,1.0,0.0,0.0,0.0,1.0
1463471078043960622,343,1463471077938977805,,-18.0637016296,-18.7923183441,47.2561340332,0.00989300012589,1.0,0.0,0.0,0.0,1.0,0.0,0.0,0.0,1.0,5.06097555161,55.182926178,12.8658542633,1.0,0.0,0.0,0.0,1.0,0.0,0.0,0.0,1.0,-3.10767375488,-0.191536132812,-7.85298144531,1.0,0.0,0.0,0.0,1.0,0.0,0.0,0.0,1.0
1463471078043995726,344,1463471077949642160,,-17.9979057312,-18.2942886353,46.6862106323,0.0100859999657,1.0,0.0,0.0,0.0,1.0,0.0,0.0,0.0,1.0,4.32926845551,60.1829299927,15.0609760284,1.0,0.0,0.0,0.0,1.0,0.0,0.0,0.0,1.0,-3.25132585449,-0.15322890625,-8.41801245259,1.0,0.0,0.0,0.0,1.0,0.0,0.0,0.0,1.0
1463471078044032028,345,1463471077958875527,,-17.939573288,-17.7528133392,46.1309318542,0.00994700007141,1.0,0.0,0.0,0.0,1.0,0.0,0.0,0.0,1.0,4.08536577225,64.0853729248,16.7073173523,1.0,0.0,0.0,0.0,1.0,0.0,0.0,0.0,1.0,-3.13161577148,-0.186747729492,-8.68616362305,1.0,0.0,0.0,0.0,1.0,0.0,0.0,0.0,1.0
1463471078044101976,346,1463471077968822070,,-17.9031925201,-17.1638011932,45.597530365,0.00996199995279,1.0,0.0,0.0,0.0,1.0,0.0,0.0,0.0,1.0,3.35365867615,67.6219558716,19.6341457367,1.0,0.0,0.0,0.0,1.0,0.0,0.0,0.0,1.0,-3.19386501465,-0.134075302102,-9.29907866352,1.0,0.0,0.0,0.0,1.0,0.0,0.0,0.0,1.0
1463471078044177548,347,1463471077981106942,,-17.8751068115,-16.526517868,45.0809631348,0.0100159998983,1.0,0.0,0.0,0.0,1.0,0.0,0.0,0.0,1.0,2.31707310677,69.5731735229,22.2560977936,1.0,0.0,0.0,0.0,1.0,0.0,0.0,0.0,1.0,-2.79642753906,-0.339976635742,-9.47624958638,1.0,0.0,0.0,0.0,1.0,0.0,0.0,0.0,1.0
1463471078044285829,348,1463471077993457647,,-17.8715686798,-15.8278217316,44.5837097168,0.0102970004082,1.0,0.0,0.0,0.0,1.0,0.0,0.0,0.0,1.0,0.975609779358,70.4878082275,25.5487804413,1.0,0.0,0.0,0.0,1.0,0.0,0.0,0.0,1.0,-2.43250888672,-0.378283862305,-10.165780249,1.0,0.0,0.0,0.0,1.0,0.0,0.0,0.0,1.0
1463471078044388694,349,1463471078000020811,,-17.8842391968,-15.1477708817,44.1249923706,0.00994300004095,1.0,0.0,0.0,0.0,1.0,0.0,0.0,0.0,1.0,-0.304878056049,70.1219482422,27.4390258789,1.0,0.0,0.0,0.0,1.0,0.0,0.0,0.0,1.0,-2.25533796387,-0.517147558594,-10.2471831055,1.0,0.0,0.0,0.0,1.0,0.0,0.0,0.0,1.0
1463471078044648433,350,1463471078008882617,,-17.9259433746,-14.4802284241,43.7241249084,0.00981499999762,1.0,0.0,0.0,0.0,1.0,0.0,0.0,0.0,1.0,-2.43902444839,67.6829299927,31.9512214661,1.0,0.0,0.0,0.0,1.0,0.0,0.0,0.0,1.0,-2.07337849156,-0.718260498047,-10.5584293213,1.0,0.0,0.0,0.0,1.0,0.0,0.0,0.0,1.0
1463471078044828537,351,1463471078018974316,,-18.0172405243,-13.8134822845,43.3666343689,0.00993399973959,1.0,0.0,0.0,0.0,1.0,0.0,0.0,0.0,1.0,-5.85365867615,65.1219558716,35.7926826477,1.0,0.0,0.0,0.0,1.0,0.0,0.0,0.0,1.0,-1.92493813477,-0.727837304687,-10.8265799072,1.0,0.0,0.0,0.0,1.0,0.0,0.0,0.0,1.0
1463471078044940463,352,1463471078028809037,,-18.1508293152,-13.177529335,43.053691864,0.00999199971557,1.0,0.0,0.0,0.0,1.0,0.0,0.0,0.0,1.0,-7.56097555161,61.3414611816,38.8414649963,1.0,0.0,0.0,0.0,1.0,0.0,0.0,0.0,1.0,-2.02070620117,-0.502782348633,-11.0899420898,1.0,0.0,0.0,0.0,1.0,0.0,0.0,0.0,1.0
1463471078045069005,353,1463471078038836205,,-18.3031082153,-12.5713634491,42.7796440125,0.0100260004401,1.0,0.0,0.0,0.0,1.0,0.0,0.0,0.0,1.0,-8.47560977936,57.3170776367,41.5243911743,1.0,0.0,0.0,0.0,1.0,0.0,0.0,0.0,1.0,-1.92014973145,-0.526724328702,-11.0564232666,1.0,0.0,0.0,0.0,1.0,0.0,0.0,0.0,1.0
1463471078050382901,354,1463471078048820716,,-18.4750022888,-12.0096826553,42.54347229,0.00996800046414,1.0,0.0,0.0,0.0,1.0,0.0,0.0,0.0,1.0,-10.1219511032,53.4756126404,44.0243911743,1.0,0.0,0.0,0.0,1.0,0.0,0.0,0.0,1.0,-2.07337849156,-0.646434448242,-11.2479593994,1.0,0.0,0.0,0.0,1.0,0.0,0.0,0.0,1.0
1463471078064397926,355,1463471078058749343,,-18.6807899475,-11.4803571701,42.3521003723,0.0100260004401,1.0,0.0,0.0,0.0,1.0,0.0,0.0,0.0,1.0,-11.6463422775,49.5731735229,47.2560958862,1.0,0.0,0.0,0.0,1.0,0.0,0.0,0.0,1.0,-2.14041643031,-0.474051928711,-11.2192289795,1.0,0.0,0.0,0.0,1.0,0.0,0.0,0.0,1.0
1463471078071209110,356,1463471078069117291,,-18.9105949402,-10.9774456024,42.19972229,0.00999400019646,1.0,0.0,0.0,0.0,1.0,0.0,0.0,0.0,1.0,-12.9878053665,45.9756088257,49.9390258789,1.0,0.0,0.0,0.0,1.0,0.0,0.0,0.0,1.0,-2.05422502441,-0.378283862305,-11.4155535156,1.0,0.0,0.0,0.0,1.0,0.0,0.0,0.0,1.0
1463471078080941279,357,1463471078078639877,,-19.1503391266,-10.51770401,42.0786399841,0.00998099986464,1.0,0.0,0.0,0.0,1.0,0.0,0.0,0.0,1.0,-12.4390249252,41.7073173523,51.5243911743,1.0,0.0,0.0,0.0,1.0,0.0,0.0,0.0,1.0,-2.14520483363,-0.138863696289,-11.5783592285,1.0,0.0,0.0,0.0,1.0,0.0,0.0,0.0,1.0
1463471078090739072,358,1463471078088685326,,-19.372220993,-10.1182899475,41.9683380127,0.0099950004369,1.0,0.0,0.0,0.0,1.0,0.0,0.0,0.0,1.0,-9.75609779358,37.682926178,51.1585388184,1.0,0.0,0.0,0.0,1.0,0.0,0.0,0.0,1.0,-2.56658417969,0.0191536132812,-11.7986257812,1.0,0.0,0.0,0.0,1.0,0.0,0.0,0.0,1.0
1463471078100172387,359,1463471078098681348,,-19.5626602173,-9.78488922119,41.8624343872,0.0100210001692,1.0,0.0,0.0,0.0,1.0,0.0,0.0,0.0,1.0,-5.85365867615,35.3658561707,50.7317085266,1.0,0.0,0.0,0.0,1.0,0.0,0.0,0.0,1.0,-3.57693728027,0.129286889648,-12.2152168701,1.0,0.0,0.0,0.0,1.0,0.0,0.0,0.0,1.0
1463471078110413773,360,1463471078108751537,,-19.6120853424,-9.47585010529,41.6947937012,0.00998600013554,1.0,0.0,0.0,0.0,1.0,0.0,0.0,0.0,1.0,4.63414621353,36.0975646973,44.9390258789,1.0,0.0,0.0,0.0,1.0,0.0,0.0,0.0,1.0,-3.55778366699,-0.450109912109,-11.6980693115,1.0,0.0,0.0,0.0,1.0,0.0,0.0,0.0,1.0
1463471078121352398,361,1463471078118948913,,-19.6678791046,-9.16714668274,41.5150680542,0.0100109996274,1.0,0.0,0.0,0.0,1.0,0.0,0.0,0.0,1.0,5.67073154449,35.5487823486,43.1097564697,1.0,0.0,0.0,0.0,1.0,0.0,0.0,0.0,1.0,-3.75410820312,0.00957680664062,-13.378798877,1.0,0.0,0.0,0.0,1.0,0.0,0.0,0.0,1.0
1463471078130520088,362,1463471078128655405,,-19.6358222961,-8.86593151093,41.3023033142,0.00997599959373,1.0,0.0,0.0,0.0,1.0,0.0,0.0,0.0,1.0,11.4024391174,34.2682952881,39.4512214661,1.0,0.0,0.0,0.0,1.0,0.0,0.0,0.0,1.0,-3.17949980469,-0.612915625,-13.3309148437,1.0,0.0,0.0,0.0,1.0,0.0,0.0,0.0,1.0
1463471078140131841,363,1463471078138676791,,-19.5824871063,-8.54640007019,41.0860977173,0.0100020002574,1.0,0.0,0.0,0.0,1.0,0.0,0.0,0.0,1.0,13.2926826477,30.1829280853,37.5609779358,1.0,0.0,0.0,0.0,1.0,0.0,0.0,0.0,1.0,-1.56580788574,-0.574608398438,-13.0675526611,1.0,0.0,0.0,0.0,1.0,0.0,0.0,0.0,1.0
1463471078150250362,364,1463471078148692136,,-19.55701828,-8.24514389038,40.9172096252,0.0100020002574,1.0,0.0,0.0,0.0,1.0,0.0,0.0,0.0,1.0,12.8048782349,22.3780498505,39.3292694092,1.0,0.0,0.0,0.0,1.0,0.0,0.0,0.0,1.0,-0.339976635742,-0.15801730957,-11.8943938477,1.0,0.0,0.0,0.0,1.0,0.0,0.0,0.0,1.0
1463471078160832425,365,1463471078158674200,,-19.5261898041,-7.94227457047,40.8250427246,0.00999899953604,1.0,0.0,0.0,0.0,1.0,0.0,0.0,0.0,1.0,14.0853662491,14.0243902206,44.3292694092,1.0,0.0,0.0,0.0,1.0,0.0,0.0,0.0,1.0,1.06302561017,-0.268150604204,-11.6789156982,1.0,0.0,0.0,0.0,1.0,0.0,0.0,0.0,1.0
1463471078170538292,366,1463471078168615952,,-19.5847110748,-7.76278209686,40.8275184631,0.0100039998069,1.0,0.0,0.0,0.0,1.0,0.0,0.0,0.0,1.0,10.1219511032,-0.792682945728,48.3536567688,1.0,0.0,0.0,0.0,1.0,0.0,0.0,0.0,1.0,0.972045874023,0.45489831543,-9.97903251953,1.0,0.0,0.0,0.0,1.0,0.0,0.0,0.0,1.0
1463471078180966136,367,1463471078179208900,,-19.6871051788,-7.61224842072,40.9202461243,0.0100039998069,1.0,0.0,0.0,0.0,1.0,0.0,0.0,0.0,1.0,7.13414621353,-7.19512224197,55.4878082275,1.0,0.0,0.0,0.0,1.0,0.0,0.0,0.0,1.0,1.01992990723,0.450109912109,-8.99262143555,1.0,0.0,0.0,0.0,1.0,0.0,0.0,0.0,1.0
1463471078190384086,368,1463471078188692423,,-19.8290119171,-7.5931892395,41.1138114929,0.0100299995393,1.0,0.0,0.0,0.0,1.0,0.0,0.0,0.0,1.0,5.85365867615,-17.6219520569,62.0731735229,1.0,0.0,0.0,0.0,1.0,0.0,0.0,0.0,1.0,0.124498486328,0.713472094727,-9.10754311523,1.0,0.0,0.0,0.0,1.0,0.0,0.0,0.0,1.0
1463471078200306255,369,1463471078198647456,,-20.011138916,-7.63491153717,41.3636245728,0.00997900031507,1.0,0.0,0.0,0.0,1.0,0.0,0.0,0.0,1.0,7.25609779358,-21.7682933807,65.9146347046,1.0,0.0,0.0,0.0,1.0,0.0,0.0,0.0,1.0,-0.440533105469,1.41257897949,-8.38928203267,1.0,0.0,0.0,0.0,1.0,0.0,0.0,0.0,1.0
1463471078210710401,370,1463471078208740769,,-20.144203186,-7.75514173508,41.6195449829,0.010050999932,1.0,0.0,0.0,0.0,1.0,0.0,0.0,0.0,1.0,12.2560977936,-22.3170719147,66.1585388184,1.0,0.0,0.0,0.0,1.0,0.0,0.0,0.0,1.0,-1.7908628418,1.58496149902,-9.5193463853,1.0,0.0,0.0,0.0,1.0,0.0,0.0,0.0,1.0
1463471078226149642,371,1463471078219787310,,-20.2039813995,-7.93048810959,41.8837356567,0.0109540000558,1.0,0.0,0.0,0.0,1.0,0.0,0.0,0.0,1.0,21.7682933807,-22.3780498505,64.4512252808,1.0,0.0,0.0,0.0,1.0,0.0,0.0,0.0,1.0,-2.48518132324,1.94888015137,-9.65342167827,1.0,0.0,0.0,0.0,1.0,0.0,0.0,0.0,1.0
1463471078230422810,372,1463471078228893491,,-20.1546859741,-8.05320167542,42.0588417053,0.00900399964303,1.0,0.0,0.0,0.0,1.0,0.0,0.0,0.0,1.0,31.4634151459,-18.5975627899,61.0365905762,1.0,0.0,0.0,0.0,1.0,0.0,0.0,0.0,1.0,-2.65277543945,1.94409174805,-10.2184526855,1.0,0.0,0.0,0.0,1.0,0.0,0.0,0.0,1.0
1463471078241083050,373,1463471078238722586,,-19.9646644592,-8.18200016022,42.2016677856,0.009990000166,1.0,0.0,0.0,0.0,1.0,0.0,0.0,0.0,1.0,42.8048782349,-15.1829271317,57.134147644,1.0,0.0,0.0,0.0,1.0,0.0,0.0,0.0,1.0,-3.0406361084,1.71903679199,-10.8313683105,1.0,0.0,0.0,0.0,1.0,0.0,0.0,0.0,1.0
1463471078251454697,374,1463471078248742723,,-19.6511154175,-8.2862443924,42.2741470337,0.0100050000474,1.0,0.0,0.0,0.0,1.0,0.0,0.0,0.0,1.0,52.317073822,-10.4268293381,51.7682952881,1.0,0.0,0.0,0.0,1.0,0.0,0.0,0.0,1.0,-3.13161577148,1.32638771973,-11.0803652832,1.0,0.0,0.0,0.0,1.0,0.0,0.0,0.0,1.0
1463471078262267592,375,1463471078258645099,,-19.2350234985,-8.36104774475,42.2934150696,0.00998399965465,1.0,0.0,0.0,0.0,1.0,0.0,0.0,0.0,1.0,58.6585388184,-5.54878091812,48.4756126404,1.0,0.0,0.0,0.0,1.0,0.0,0.0,0.0,1.0,-3.20344182129,0.560243188477,-11.03248125,1.0,0.0,0.0,0.0,1.0,0.0,0.0,0.0,1.0
1463471078270918044,376,1463471078268667736,,-18.8000030518,-8.38140392303,42.2907104492,0.0100079998374,1.0,0.0,0.0,0.0,1.0,0.0,0.0,0.0,1.0,60.0609779358,-1.58536589146,47.5609779358,1.0,0.0,0.0,0.0,1.0,0.0,0.0,0.0,1.0,-2.65277543945,0.474051928711,-10.5057568848,1.0,0.0,0.0,0.0,1.0,0.0,0.0,0.0,1.0
1463471078281038076,377,1463471078278683862,,-18.3640861511,-8.34231090546,42.2665863037,0.00999599974602,1.0,0.0,0.0,0.0,1.0,0.0,0.0,0.0,1.0,58.4756126404,3.23170733452,47.134147644,1.0,0.0,0.0,0.0,1.0,0.0,0.0,0.0,1.0,-2.32716386754,0.129286889648,-10.4482960449,1.0,0.0,0.0,0.0,1.0,0.0,0.0,0.0,1.0
1463471078291047640,378,1463471078288787853,,-17.9537849426,-8.26775074005,42.2411193848,0.00999199971557,1.0,0.0,0.0,0.0,1.0,0.0,0.0,0.0,1.0,55.4268302917,4.81707286835,47.5,1.0,0.0,0.0,0.0,1.0,0.0,0.0,0.0,1.0,-1.83395847168,-0.0239420166016,-9.8545340332,1.0,0.0,0.0,0.0,1.0,0.0,0.0,0.0,1.0
1463471078301606526,379,1463471078298611636,,-17.5818805695,-8.15893650055,42.1962814331,0.00999699998647,1.0,0.0,0.0,0.0,1.0,0.0,0.0,0.0,1.0,50.9756088257,6.52439069748,45.9756088257,1.0,0.0,0.0,0.0,1.0,0.0,0.0,0.0,1.0,-1.31202250977,-0.119710083008,-9.14106193848,1.0,0.0,0.0,0.0,1.0,0.0,0.0,0.0,1.0
1463471078311023695,380,1463471078308691095,,-17.2383270264,-8.02583885193,42.1395225525,0.0100220004097,1.0,0.0,0.0,0.0,1.0,0.0,0.0,0.0,1.0,46.7682952881,5.24390268326,44.390247345,1.0,0.0,0.0,0.0,1.0,0.0,0.0,0.0,1.0,-0.622492431641,-0.349553442383,-9.16500395508,1.0,0.0,0.0,0.0,1.0,0.0,0.0,0.0,1.0
1463471078320971905,381,1463471078318664305,,-16.9706058502,-7.88453054428,42.0808296204,0.00998799968511,1.0,0.0,0.0,0.0,1.0,0.0,0.0,0.0,1.0,39.9390258789,2.5,43.1097564697,1.0,0.0,0.0,0.0,1.0,0.0,0.0,0.0,1.0,0.0191536132812,-0.258573779297,-8.3509748061,1.0,0.0,0.0,0.0,1.0,0.0,0.0,0.0,1.0
1463471078331034385,382,1463471078328670692,,-16.7638206482,-7.75579500198,42.0304069519,0.0100060002878,1.0,0.0,0.0,0.0,1.0,0.0,0.0,0.0,1.0,32.865852356,-0.792682945728,43.0487823486,1.0,0.0,0.0,0.0,1.0,0.0,0.0,0.0,1.0,0.31124621582,-0.445321508789,-7.93438430176,1.0,0.0,0.0,0.0,1.0,0.0,0.0,0.0,1.0
1463471078341062907,383,1463471078338691141,,-16.626367569,-7.58766555786,41.9986991882,0.0100060002878,1.0,0.0,0.0,0.0,1.0,0.0,0.0,0.0,1.0,25.182926178,-4.63414621353,43.9024391174,1.0,0.0,0.0,0.0,1.0,0.0,0.0,0.0,1.0,1.30244570312,-0.61770402832,-7.2831614502,1.0,0.0,0.0,0.0,1.0,0.0,0.0,0.0,1.0
1463471078350923721,384,1463471078348640705,,-16.596162796,-7.47487211227,42.0009117126,0.00998600013554,1.0,0.0,0.0,0.0,1.0,0.0,0.0,0.0,1.0,18.5975627899,-8.78048801422,45.6097564697,1.0,0.0,0.0,0.0,1.0,0.0,0.0,0.0,1.0,0.991199487305,-0.100556469727,-7.1203557373,1.0,0.0,0.0,0.0,1.0,0.0,0.0,0.0,1.0
1463471078360470995,385,1463471078358712092,,-16.6225166321,-7.44089508057,42.0154342651,0.0100060002878,1.0,0.0,0.0,0.0,1.0,0.0,0.0,0.0,1.0,13.7804880142,-14.2682924271,45.1219520569,1.0,0.0,0.0,0.0,1.0,0.0,0.0,0.0,1.0,0.656011254883,0.0,-6.96233842773,1.0,0.0,0.0,0.0,1.0,0.0,0.0,0.0,1.0
1463471078372021962,386,1463471078368785458,,-16.7016162872,-7.44992208481,42.0288925171,0.00999699998647,1.0,0.0,0.0,0.0,1.0,0.0,0.0,0.0,1.0,11.1585359573,-17.317073822,43.7195129395,1.0,0.0,0.0,0.0,1.0,0.0,0.0,0.0,1.0,0.502782348633,0.335188232422,-6.66545742187,1.0,0.0,0.0,0.0,1.0,0.0,0.0,0.0,1.0
1463471078380308508,387,1463471078378704292,,-16.8158168793,-7.50585031509,42.0271377563,0.00999800022691,1.0,0.0,0.0,0.0,1.0,0.0,0.0,0.0,1.0,10.1829271317,-21.0975627899,40.6097564697,1.0,0.0,0.0,0.0,1.0,0.0,0.0,0.0,1.0,0.440533105469,0.632069238281,-6.20577070312,1.0,0.0,0.0,0.0,1.0,0.0,0.0,0.0,1.0
1463471078390708123,388,1463471078388953387,,-16.9015159607,-7.60883140564,41.9912414551,0.00999400019646,1.0,0.0,0.0,0.0,1.0,0.0,0.0,0.0,1.0,10.4878053665,-22.3780498505,36.9512214661,1.0,0.0,0.0,0.0,1.0,0.0,0.0,0.0,1.0,0.167594116211,0.407014282227,-6.1770402832,1.0,0.0,0.0,0.0,1.0,0.0,0.0,0.0,1.0
1463471078400344406,389,1463471078398700295,,-16.9888801575,-7.75645303726,41.9358215332,0.0100130001083,1.0,0.0,0.0,0.0,1.0,0.0,0.0,0.0,1.0,11.4024391174,-24.1463432312,34.2073173523,1.0,0.0,0.0,0.0,1.0,0.0,0.0,0.0,1.0,-0.0622492431641,0.565031591797,-6.14830986328,1.0,0.0,0.0,0.0,1.0,0.0,0.0,0.0,1.0
1463471078411959488,390,1463471078408811421,,-17.0667381287,-7.92044830322,41.8490104675,0.0099849998951,1.0,0.0,0.0,0.0,1.0,0.0,0.0,0.0,1.0,13.1707324982,-24.2073173523,30.7317066193,1.0,0.0,0.0,0.0,1.0,0.0,0.0,0.0,1.0,-0.143652099609,0.699106884766,-5.97592734375,1.0,0.0,0.0,0.0,1.0,0.0,0.0,0.0,1.0
1463471078422647019,391,1463471078418789006,,-17.1423912048,-8.07902240753,41.7407302856,0.0100100003183,1.0,0.0,0.0,0.0,1.0,0.0,0.0,0.0,1.0,14.5731706619,-24.0853652954,28.3536586761,1.0,0.0,0.0,0.0,1.0,0.0,0.0,0.0,1.0,-0.0383072265625,0.861912597656,-5.91846650391,1.0,0.0,0.0,0.0,1.0,0.0,0.0,0.0,1.0
1463471078431225596,392,1463471078428704091,,-17.1497974396,-8.2497549057,41.5966529846,0.00998799968511,1.0,0.0,0.0,0.0,1.0,0.0,0.0,0.0,1.0,17.134147644,-23.2926845551,25.4268302917,1.0,0.0,0.0,0.0,1.0,0.0,0.0,0.0,1.0,-0.177170922852,0.502782348633,-6.40209523926,1.0,0.0,0.0,0.0,1.0,0.0,0.0,0.0,1.0
1463471078440717088,393,1463471078438745582,,-17.1197471619,-8.43520259857,41.4274024963,0.00999800022691,1.0,0.0,0.0,0.0,1.0,0.0,0.0,0.0,1.0,18.9634151459,-23.9024391174,22.9268302917,1.0,0.0,0.0,0.0,1.0,0.0,0.0,0.0,1.0,-0.205901342773,0.325611425781,-6.42124885254,1.0,0.0,0.0,0.0,1.0,0.0,0.0,0.0,1.0
1463471078451660504,394,1463471078448699468,,-17.0915737152,-8.62710475922,41.2300300598,0.0100010000169,1.0,0.0,0.0,0.0,1.0,0.0,0.0,0.0,1.0,19.817073822,-22.2560977936,20.3658542633,1.0,0.0,0.0,0.0,1.0,0.0,0.0,0.0,1.0,-0.426167895508,0.531512805087,-6.82347473145,1.0,0.0,0.0,0.0,1.0,0.0,0.0,0.0,1.0
1463471078462693191,395,1463471078459011063,,-17.0058479309,-8.83383560181,40.9918556213,0.0100170001388,1.0,0.0,0.0,0.0,1.0,0.0,0.0,0.0,1.0,21.158536911,-21.7682933807,17.0121955872,1.0,0.0,0.0,0.0,1.0,0.0,0.0,0.0,1.0,-0.584185168546,0.0574608398438,-7.32625708008,1.0,0.0,0.0,0.0,1.0,0.0,0.0,0.0,1.0
1463471078470562343,396,1463471078468705888,,-16.9034290314,-9.03164100647,40.7141571045,0.0099849998951,1.0,0.0,0.0,0.0,1.0,0.0,0.0,0.0,1.0,19.8780498505,-20.3048782349,13.7804880142,1.0,0.0,0.0,0.0,1.0,0.0,0.0,0.0,1.0,-0.579396801758,-0.282515795898,-7.7093293457,1.0,0.0,0.0,0.0,1.0,0.0,0.0,0.0,1.0
1463471078481985758,397,1463471078478727743,,-16.8446769714,-9.22138690948,40.4269256592,0.0100090000778,1.0,0.0,0.0,0.0,1.0,0.0,0.0,0.0,1.0,15.4878053665,-20.3658542633,12.9268293381,1.0,0.0,0.0,0.0,1.0,0.0,0.0,0.0,1.0,-0.46447512207,-0.268150604204,-7.92480749512,1.0,0.0,0.0,0.0,1.0,0.0,0.0,0.0,1.0
1463471078490555220,398,1463471078488719755,,-16.8458461761,-9.40076828003,40.1550292969,0.0100020002574,1.0,0.0,0.0,0.0,1.0,0.0,0.0,0.0,1.0,9.45121955872,-21.7073173523,14.2073173523,1.0,0.0,0.0,0.0,1.0,0.0,0.0,0.0,1.0,-0.244208569336,-0.335188232422,-8.8633345459,1.0,0.0,0.0,0.0,1.0,0.0,0.0,0.0,1.0
1463471078501015773,399,1463471078498695725,,-16.9111652374,-9.59144592285,39.892829895,0.0100060002878,1.0,0.0,0.0,0.0,1.0,0.0,0.0,0.0,1.0,4.02439022064,-22.3170719147,14.9390249252,1.0,0.0,0.0,0.0,1.0,0.0,0.0,0.0,1.0,-0.407014282227,-0.191536132812,-9.14106193848,1.0,0.0,0.0,0.0,1.0,0.0,0.0,0.0,1.0
1463471078510977055,400,1463471078508723258,,-17.0026664734,-9.79916858673,39.6199531555,0.00998600013554,1.0,0.0,0.0,0.0,1.0,0.0,0.0,0.0,1.0,-0.487804889679,-24.3902435303,13.4756097794,1.0,0.0,0.0,0.0,1.0,0.0,0.0,0.0,1.0,-0.335188232422,-0.502782348633,-9.98382092285,1.0,0.0,0.0,0.0,1.0,0.0,0.0,0.0,1.0
1463471078520418808,401,1463471078518778186,,-17.144493103,-10.0410642624,39.357585907,0.0100119998679,1.0,0.0,0.0,0.0,1.0,0.0,0.0,0.0,1.0,-5.73170757294,-28.6585388184,13.4146347046,1.0,0.0,0.0,0.0,1.0,0.0,0.0,0.0,1.0,-0.234631762695,-0.565031591797,-10.3094323486,1.0,0.0,0.0,0.0,1.0,0.0,0.0,0.0,1.0
1463471078531258474,402,1463471078528756187,,-17.3172569275,-10.2857265472,39.0944595337,0.00998700037599,1.0,0.0,0.0,0.0,1.0,0.0,0.0,0.0,1.0,-10.0,-30.6097583771,12.8658542633,1.0,0.0,0.0,0.0,1.0,0.0,0.0,0.0,1.0,0.0622492431641,-0.77093293457,-10.7643306641,1.0,0.0,0.0,0.0,1.0,0.0,0.0,0.0,1.0
1463471078540748716,403,1463471078538645647,,-17.5281639099,-10.6054906845,38.8392906189,0.00999800022691,1.0,0.0,0.0,0.0,1.0,0.0,0.0,0.0,1.0,-13.2317075729,-37.2560958862,11.5243911743,1.0,0.0,0.0,0.0,1.0,0.0,0.0,0.0,1.0,-0.124498486328,-0.675164868164,-11.5065331787,1.0,0.0,0.0,0.0,1.0,0.0,0.0,0.0,1.0
1463471078551052811,404,1463471078548668284,,-17.7579307556,-10.9538965225,38.5819702148,0.00999999977648,1.0,0.0,0.0,0.0,1.0,0.0,0.0,0.0,1.0,-14.7560987473,-40.9756088257,10.0,1.0,0.0,0.0,0.0,1.0,0.0,0.0,0.0,1.0,0.0622492431641,-0.521935925381,-11.6214548584,1.0,0.0,0.0,0.0,1.0,0.0,0.0,0.0,1.0
1463471078560295241,405,1463471078558733577,,-17.9920253754,-11.3689336777,38.3320884705,0.0100170001388,1.0,0.0,0.0,0.0,1.0,0.0,0.0,0.0,1.0,-14.4512205124,-46.5243911743,8.84146404266,1.0,0.0,0.0,0.0,1.0,0.0,0.0,0.0,1.0,-0.205901342773,-0.339976635742,-12.2056400635,1.0,0.0,0.0,0.0,1.0,0.0,0.0,0.0,1.0
1463471078570280898,406,1463471078568621422,,-18.1824932098,-11.8407793045,38.0642166138,0.0099849998951,1.0,0.0,0.0,0.0,1.0,0.0,0.0,0.0,1.0,-13.3536586761,-51.7682952881,5.73170757294,1.0,0.0,0.0,0.0,1.0,0.0,0.0,0.0,1.0,-0.210689746094,-0.957680664062,-12.7610948486,1.0,0.0,0.0,0.0,1.0,0.0,0.0,0.0,1.0
1463471078581362335,407,1463471078578667184,,-18.3874130249,-12.3813199997,37.7843589783,0.0100029995665,1.0,0.0,0.0,0.0,1.0,0.0,0.0,0.0,1.0,-12.5,-55.4878082275,2.74390244484,1.0,0.0,0.0,0.0,1.0,0.0,0.0,0.0,1.0,-0.900219824219,-0.263362164351,-13.1872627441,1.0,0.0,0.0,0.0,1.0,0.0,0.0,0.0,1.0
1463471078590443880,408,1463471078588780810,,-18.544418335,-12.9867191315,37.4697723389,0.0100109996274,1.0,0.0,0.0,0.0,1.0,0.0,0.0,0.0,1.0,-10.0609760284,-58.9024391174,-1.58536589146,1.0,0.0,0.0,0.0,1.0,0.0,0.0,0.0,1.0,-1.4844050293,-0.60812722168,-13.8863696289,1.0,0.0,0.0,0.0,1.0,0.0,0.0,0.0,1.0
1463471078600460996,409,1463471078598874384,,-18.6846637726,-13.6261253357,37.1100120544,0.0100109996274,1.0,0.0,0.0,0.0,1.0,0.0,0.0,0.0,1.0,-8.29268264771,-58.4146347046,-6.28048801422,1.0,0.0,0.0,0.0,1.0,0.0,0.0,0.0,1.0,-2.25533796387,-0.225054956055,-14.0683289551,1.0,0.0,0.0,0.0,1.0,0.0,0.0,0.0,1.0
1463471078610394414,410,1463471078608834365,,-18.7947711945,-14.2602500916,36.6943359375,0.00998899992555,1.0,0.0,0.0,0.0,1.0,0.0,0.0,0.0,1.0,-7.50000047684,-54.5121955872,-10.4878053665,1.0,0.0,0.0,0.0,1.0,0.0,0.0,0.0,1.0,-2.91134921875,-0.368707055664,-14.216769458,1.0,0.0,0.0,0.0,1.0,0.0,0.0,0.0,1.0
1463471078620344915,411,1463471078618754189,,-18.8832149506,-14.8746356964,36.2404785156,0.0099950004369,1.0,0.0,0.0,0.0,1.0,0.0,0.0,0.0,1.0,-7.68292665482,-50.6707344055,-12.5609760284,1.0,0.0,0.0,0.0,1.0,0.0,0.0,0.0,1.0,-3.22738383789,-0.646434448242,-14.0060797119,1.0,0.0,0.0,0.0,1.0,0.0,0.0,0.0,1.0
1463471078631286873,412,1463471078628739118,,-18.9730873108,-15.441368103,35.754524231,0.00999599974602,1.0,0.0,0.0,0.0,1.0,0.0,0.0,0.0,1.0,-10.548781395,-44.6951217651,-13.1097564697,1.0,0.0,0.0,0.0,1.0,0.0,0.0,0.0,1.0,-3.39976635742,-1.03908344744,-13.5847002197,1.0,0.0,0.0,0.0,1.0,0.0,0.0,0.0,1.0
1463471078640320553,413,1463471078638757379,,-19.0939254761,-15.9750614166,35.253364563,0.0100010000169,1.0,0.0,0.0,0.0,1.0,0.0,0.0,0.0,1.0,-14.0243902206,-38.1707305908,-12.2560977936,1.0,0.0,0.0,0.0,1.0,0.0,0.0,0.0,1.0,-4.49631071777,-1.04866025408,-14.111424585,1.0,0.0,0.0,0.0,1.0,0.0,0.0,0.0,1.0
1463471078651071366,414,1463471078648763558,,-19.2325286865,-16.4315814972,34.7130508423,0.00999199971557,1.0,0.0,0.0,0.0,1.0,0.0,0.0,0.0,1.0,-16.6463413239,-29.0853672028,-13.1097564697,1.0,0.0,0.0,0.0,1.0,0.0,0.0,0.0,1.0,-4.91769020996,-0.890643017578,-14.4849200439,1.0,0.0,0.0,0.0,1.0,0.0,0.0,0.0,1.0
1463471078660295202,415,1463471078658730622,,-19.3681201935,-16.7910499573,34.123008728,0.0100090000778,1.0,0.0,0.0,0.0,1.0,0.0,0.0,0.0,1.0,-16.9512195587,-20.0609760284,-15.0609760284,1.0,0.0,0.0,0.0,1.0,0.0,0.0,0.0,1.0,-4.66390454172,-0.493205541992,-15.0212212158,1.0,0.0,0.0,0.0,1.0,0.0,0.0,0.0,1.0
1463471078671030702,416,1463471078668777477,,-19.4773101807,-17.0617370605,33.4934425354,0.00999899953604,1.0,0.0,0.0,0.0,1.0,0.0,0.0,0.0,1.0,-16.0975608826,-13.9024391174,-16.7073173523,1.0,0.0,0.0,0.0,1.0,0.0,0.0,0.0,1.0,-3.75889660645,-0.469263525391,-15.2797949951,1.0,0.0,0.0,0.0,1.0,0.0,0.0,0.0,1.0
1463471078681270109,417,1463471078678741520,,-19.5684089661,-17.271030426,32.8442459106,0.00999800022691,1.0,0.0,0.0,0.0,1.0,0.0,0.0,0.0,1.0,-16.5243911743,-10.7926826477,-17.0121955872,1.0,0.0,0.0,0.0,1.0,0.0,0.0,0.0,1.0,-2.84431157227,-0.814028564453,-15.4090818848,1.0,0.0,0.0,0.0,1.0,0.0,0.0,0.0,1.0
1463471078690345612,418,1463471078688678897,,-19.6494846344,-17.4411487579,32.1951980591,0.00999899953604,1.0,0.0,0.0,0.0,1.0,0.0,0.0,0.0,1.0,-16.2195110321,-10.4268293381,-16.5853652954,1.0,0.0,0.0,0.0,1.0,0.0,0.0,0.0,1.0,-1.838746875,-0.866701000977,-14.9781255859,1.0,0.0,0.0,0.0,1.0,0.0,0.0,0.0,1.0
1463471078701129445,419,1463471078698755440,,-19.7409553528,-17.5932273865,31.5760650635,0.0100109996274,1.0,0.0,0.0,0.0,1.0,0.0,0.0,0.0,1.0,-16.8902435303,-13.2317075729,-14.2682924271,1.0,0.0,0.0,0.0,1.0,0.0,0.0,0.0,1.0,-0.804451757813,-0.885854614258,-14.3029607178,1.0,0.0,0.0,0.0,1.0,0.0,0.0,0.0,1.0
1463471078710470886,420,1463471078708882607,,-19.8262844086,-17.7187461853,31.0037937164,0.00999100040644,1.0,0.0,0.0,0.0,1.0,0.0,0.0,0.0,1.0,-17.4390239716,-15.975610733,-9.75609779358,1.0,0.0,0.0,0.0,1.0,0.0,0.0,0.0,1.0,0.215478149414,-1.35032973633,-12.3205617432,1.0,0.0,0.0,0.0,1.0,0.0,0.0,0.0,1.0
1463471078721399354,421,1463471078719328420,,-19.9975757599,-17.8924217224,30.5395832062,0.00999299995601,1.0,0.0,0.0,0.0,1.0,0.0,0.0,0.0,1.0,-21.4024391174,-22.4390239716,-1.58536589146,1.0,0.0,0.0,0.0,1.0,0.0,0.0,0.0,1.0,-0.181959326172,-0.928950244141,-11.9087590576,1.0,0.0,0.0,0.0,1.0,0.0,0.0,0.0,1.0
1463471078731309751,422,1463471078729443713,,-20.2196846008,-18.0906524658,30.1568450928,0.0100039998069,1.0,0.0,0.0,0.0,1.0,0.0,0.0,0.0,1.0,-22.9268302917,-24.7560977936,5.48780488968,1.0,0.0,0.0,0.0,1.0,0.0,0.0,0.0,1.0,-0.737414111328,-0.565031591797,-10.7547538574,1.0,0.0,0.0,0.0,1.0,0.0,0.0,0.0,1.0
1463471078741460565,423,1463471078739518069,,-20.442943573,-18.2939853668,29.8088970184,0.0100010000169,1.0,0.0,0.0,0.0,1.0,0.0,0.0,0.0,1.0,-20.975610733,-22.3170719147,9.51219558716,1.0,0.0,0.0,0.0,1.0,0.0,0.0,0.0,1.0,-1.5083470459,-0.3064578125,-10.1370498291,1.0,0.0,0.0,0.0,1.0,0.0,0.0,0.0,1.0
1463471078750684766,424,1463471078748802530,,-20.6490058899,-18.5029335022,29.4740962982,0.0100170001388,1.0,0.0,0.0,0.0,1.0,0.0,0.0,0.0,1.0,-17.0121955872,-19.6951236725,11.2195119858,1.0,0.0,0.0,0.0,1.0,0.0,0.0,0.0,1.0,-2.20745393066,0.067037651051,-10.0125513428,1.0,0.0,0.0,0.0,1.0,0.0,0.0,0.0,1.0
1463471078760414069,425,1463471078758624229,,-20.8174629211,-18.6712169647,29.1273002625,0.00997800007463,1.0,0.0,0.0,0.0,1.0,0.0,0.0,0.0,1.0,-8.65853691101,-13.3536586761,10.4268293381,1.0,0.0,0.0,0.0,1.0,0.0,0.0,0.0,1.0,-2.64319863281,1.11090957031,-9.96945571289,1.0,0.0,0.0,0.0,1.0,0.0,0.0,0.0,1.0
1463471078770416498,426,1463471078768619783,,-20.8530578613,-18.8113212585,28.7157936096,0.00999899953604,1.0,0.0,0.0,0.0,1.0,0.0,0.0,0.0,1.0,3.41463422775,-5.67073154449,6.58536624908,1.0,0.0,0.0,0.0,1.0,0.0,0.0,0.0,1.0,-3.39976635742,1.33596452637,-10.4243540283,1.0,0.0,0.0,0.0,1.0,0.0,0.0,0.0,1.0
1463471078780547468,427,1463471078778714294,,-20.7019100189,-18.8949871063,28.2012004852,0.0100050000474,1.0,0.0,0.0,0.0,1.0,0.0,0.0,0.0,1.0,17.9878044128,3.65853667259,0.0609756112099,1.0,0.0,0.0,0.0,1.0,0.0,0.0,0.0,1.0,-3.7493197998,1.23540805664,-10.9510783936,1.0,0.0,0.0,0.0,1.0,0.0,0.0,0.0,1.0
1463471078790692708,428,1463471078788641619,,-20.3903388977,-18.9096946716,27.5708065033,0.0100050000474,1.0,0.0,0.0,0.0,1.0,0.0,0.0,0.0,1.0,28.1097564697,14.0243902206,-6.89024400711,1.0,0.0,0.0,0.0,1.0,0.0,0.0,0.0,1.0,-3.88339509277,0.727837304687,-11.1234609131,1.0,0.0,0.0,0.0,1.0,0.0,0.0,0.0,1.0
1463471078800690189,429,1463471078798779255,,-19.9654254913,-18.8662910461,26.8546962738,0.0100630000234,1.0,0.0,0.0,0.0,1.0,0.0,0.0,0.0,1.0,34.817073822,22.5,-11.341463089,1.0,0.0,0.0,0.0,1.0,0.0,0.0,0.0,1.0,-4.19942941965,0.248996972656,-11.5304751953,1.0,0.0,0.0,0.0,1.0,0.0,0.0,0.0,1.0
1463471078810741784,430,1463471078808775798,,-19.4798069,-18.7328624725,26.0702095032,0.00994400028139,1.0,0.0,0.0,0.0,1.0,0.0,0.0,0.0,1.0,35.9146347046,33.1097564697,-14.2682924271,1.0,0.0,0.0,0.0,1.0,0.0,0.0,0.0,1.0,-4.13718046875,-0.593762048251,-11.3963999023,1.0,0.0,0.0,0.0,1.0,0.0,0.0,0.0,1.0
1463471078820213953,431,1463471078818851508,,-18.9850635529,-18.5117454529,25.224811554,0.0101009998471,1.0,0.0,0.0,0.0,1.0,0.0,0.0,0.0,1.0,33.3536605835,41.4024391174,-15.975610733,1.0,0.0,0.0,0.0,1.0,0.0,0.0,0.0,1.0,-4.10366164551,-1.04866025408,-11.899182251,1.0,0.0,0.0,0.0,1.0,0.0,0.0,0.0,1.0
1463471078829935705,432,1463471078828725291,,-18.5422687531,-18.220161438,24.365278244,0.00989300012589,1.0,0.0,0.0,0.0,1.0,0.0,0.0,0.0,1.0,26.4634151459,48.3536567688,-16.5243911743,1.0,0.0,0.0,0.0,1.0,0.0,0.0,0.0,1.0,-3.76368500977,-1.59453830566,-11.5879360352,1.0,0.0,0.0,0.0,1.0,0.0,0.0,0.0,1.0
1463471078840302039,433,1463471078838671052,,-18.1805400848,-17.8461017609,23.4831829071,0.009990000166,1.0,0.0,0.0,0.0,1.0,0.0,0.0,0.0,1.0,17.5000019073,54.6951217651,-16.2195110321,1.0,0.0,0.0,0.0,1.0,0.0,0.0,0.0,1.0,-3.38540114746,-1.73340200195,-11.5544172119,1.0,0.0,0.0,0.0,1.0,0.0,0.0,0.0,1.0
1463471078851419048,434,1463471078848844158,,-17.9261035919,-17.4151935577,22.6046638489,0.0100090000778,1.0,0.0,0.0,0.0,1.0,0.0,0.0,0.0,1.0,8.65853691101,58.2317085266,-15.548781395,1.0,0.0,0.0,0.0,1.0,0.0,0.0,0.0,1.0,-3.00232888184,-1.45088620605,-11.6214548584,1.0,0.0,0.0,0.0,1.0,0.0,0.0,0.0,1.0
1463471078860360593,435,1463471078858774242,,-17.7413959503,-16.9465274811,21.7127418518,0.0100060002878,1.0,0.0,0.0,0.0,1.0,0.0,0.0,0.0,1.0,1.46341466904,61.524394989,-16.2804889679,1.0,0.0,0.0,0.0,1.0,0.0,0.0,0.0,1.0,-2.70544787598,-1.54186586914,-11.3149970459,1.0,0.0,0.0,0.0,1.0,0.0,0.0,0.0,1.0
1463471078870379168,436,1463471078868794067,,-17.6143245697,-16.4581546783,20.8215332031,0.00999100040644,1.0,0.0,0.0,0.0,1.0,0.0,0.0,0.0,1.0,-3.71951246262,62.6219520569,-16.5243911743,1.0,0.0,0.0,0.0,1.0,0.0,0.0,0.0,1.0,-2.3654710941,-1.52271225586,-10.9989624268,1.0,0.0,0.0,0.0,1.0,0.0,0.0,0.0,1.0
1463471078880334044,437,1463471078878743787,,-17.4850311279,-15.9518489838,19.9195270538,0.00998799968511,1.0,0.0,0.0,0.0,1.0,0.0,0.0,0.0,1.0,-5.79268312454,64.0853729248,-16.8902435303,1.0,0.0,0.0,0.0,1.0,0.0,0.0,0.0,1.0,-1.7908628418,-1.8148048584,-9.20331118164,1.0,0.0,0.0,0.0,1.0,0.0,0.0,0.0,1.0
1463471078891081263,438,1463471078888997621,,-17.4495220184,-15.4097757339,19.0292873383,0.0101399999112,1.0,0.0,0.0,0.0,1.0,0.0,0.0,0.0,1.0,-9.45121955872,63.7195167542,-16.341463089,1.0,0.0,0.0,0.0,1.0,0.0,0.0,0.0,1.0,-1.33596452637,-0.957680664062,-9.33259748677,1.0,0.0,0.0,0.0,1.0,0.0,0.0,0.0,1.0
1463471078901335045,439,1463471078898784321,,-17.4682674408,-14.9005069733,18.1915931702,0.00987599976361,1.0,0.0,0.0,0.0,1.0,0.0,0.0,0.0,1.0,-10.9146347046,61.890247345,-15.0609760284,1.0,0.0,0.0,0.0,1.0,0.0,0.0,0.0,1.0,-1.34554133301,-0.488417138672,-9.04529387207,1.0,0.0,0.0,0.0,1.0,0.0,0.0,0.0,1.0
1463471078910409819,440,1463471078908836228,,-17.5116386414,-14.3956012726,17.3759670258,0.00999800022691,1.0,0.0,0.0,0.0,1.0,0.0,0.0,0.0,1.0,-10.6097564697,59.8780517578,-13.1097564697,1.0,0.0,0.0,0.0,1.0,0.0,0.0,0.0,1.0,-1.1540052002,-0.244208569336,-8.44674287251,1.0,0.0,0.0,0.0,1.0,0.0,0.0,0.0,1.0
1463471078921071673,441,1463471078918817459,,-17.5751647949,-13.8935480118,16.5903778076,0.0100199999288,1.0,0.0,0.0,0.0,1.0,0.0,0.0,0.0,1.0,-9.81707286835,58.1707344055,-11.0975618362,1.0,0.0,0.0,0.0,1.0,0.0,0.0,0.0,1.0,-0.972045874023,-0.00957680664062,-8.26478413086,1.0,0.0,0.0,0.0,1.0,0.0,0.0,0.0,1.0
1463471078930532696,442,1463471078928910929,,-17.6554508209,-13.4142427444,15.8430013657,0.010053999722,1.0,0.0,0.0,0.0,1.0,0.0,0.0,0.0,1.0,-8.10975551605,57.1951217651,-7.98780536652,1.0,0.0,0.0,0.0,1.0,0.0,0.0,0.0,1.0,-1.23061965332,0.258573779297,-7.98705673828,1.0,0.0,0.0,0.0,1.0,0.0,0.0,0.0,1.0
1463471078941028613,443,1463471078938787628,,-17.7232227325,-12.9311828613,15.1280288696,0.00992800015956,1.0,0.0,0.0,0.0,1.0,0.0,0.0,0.0,1.0,-4.51219558716,57.4390220642,-6.09756088257,1.0,0.0,0.0,0.0,1.0,0.0,0.0,0.0,1.0,-1.06781401349,0.445321508789,-7.47948598633,1.0,0.0,0.0,0.0,1.0,0.0,0.0,0.0,1.0
1463471078951764530,444,1463471078949249327,,-17.7400951385,-12.458407402,14.4300966263,0.00999800022691,1.0,0.0,0.0,0.0,1.0,0.0,0.0,0.0,1.0,-0.731707334518,55.5487785339,-4.08536577225,1.0,0.0,0.0,0.0,1.0,0.0,0.0,0.0,1.0,-0.952892260742,0.110133276367,-7.11556733398,1.0,0.0,0.0,0.0,1.0,0.0,0.0,0.0,1.0
1463471078960394409,445,1463471078958792798,,-17.7962303162,-11.9878807068,13.7857551575,0.0100050000474,1.0,0.0,0.0,0.0,1.0,0.0,0.0,0.0,1.0,1.2804877758,54.634147644,-0.0609756112099,1.0,0.0,0.0,0.0,1.0,0.0,0.0,0.0,1.0,-0.957680664062,0.651222851562,-6.77559069824,1.0,0.0,0.0,0.0,1.0,0.0,0.0,0.0,1.0
1463471078970401369,446,1463471078968800330,,-17.8762340546,-11.5038290024,13.1891555786,0.0100260004401,1.0,0.0,0.0,0.0,1.0,0.0,0.0,0.0,1.0,4.81707286835,55.0609779358,3.96341490746,1.0,0.0,0.0,0.0,1.0,0.0,0.0,0.0,1.0,-0.995987890625,1.2497732666,-6.94318481445,1.0,0.0,0.0,0.0,1.0,0.0,0.0,0.0,1.0
1463471078981501399,447,1463471078979173331,,-17.885761261,-11.0676403046,12.616481781,0.00997000001371,1.0,0.0,0.0,0.0,1.0,0.0,0.0,0.0,1.0,11.5243911743,52.9878044128,5.54878091812,1.0,0.0,0.0,0.0,1.0,0.0,0.0,0.0,1.0,-1.32159931641,1.10612116699,-7.00543405762,1.0,0.0,0.0,0.0,1.0,0.0,0.0,0.0,1.0
1463471078990981433,448,1463471078988840239,,-17.756477356,-10.6269378662,12.0146522522,0.0100039998069,1.0,0.0,0.0,0.0,1.0,0.0,0.0,0.0,1.0,18.3536586761,54.2682914734,4.39024400711,1.0,0.0,0.0,0.0,1.0,0.0,0.0,0.0,1.0,-1.26892687988,0.181959326172,-6.88572397461,1.0,0.0,0.0,0.0,1.0,0.0,0.0,0.0,1.0
1463471079001325371,449,1463471078998803449,,-17.591878891,-10.1672267914,11.4178667068,0.0100029995665,1.0,0.0,0.0,0.0,1.0,0.0,0.0,0.0,1.0,24.4512195587,53.6585388184,3.96341490746,1.0,0.0,0.0,0.0,1.0,0.0,0.0,0.0,1.0,-0.92416184082,0.445321508789,-6.89051237793,1.0,0.0,0.0,0.0,1.0,0.0,0.0,0.0,1.0
1463471079010946186,450,1463471079009118220,,-17.3415718079,-9.69002532959,10.8257446289,0.0099950004369,1.0,0.0,0.0,0.0,1.0,0.0,0.0,0.0,1.0,30.1829280853,51.2804870605,3.90243911743,1.0,0.0,0.0,0.0,1.0,0.0,0.0,0.0,1.0,-0.359130249023,0.0,-6.68461103516,1.0,0.0,0.0,0.0,1.0,0.0,0.0,0.0,1.0
1463471079021228040,451,1463471079018820597,,-17.0585250854,-9.28586196899,10.2486820221,0.00998899992555,1.0,0.0,0.0,0.0,1.0,0.0,0.0,0.0,1.0,31.7682914734,48.1097602844,4.45121955872,1.0,0.0,0.0,0.0,1.0,0.0,0.0,0.0,1.0,-0.881066210937,-0.359130249023,-6.94318481445,1.0,0.0,0.0,0.0,1.0,0.0,0.0,0.0,1.0
1463471079030524741,452,1463471079028918859,,-16.7935028076,-8.91081905365,9.7085018158,0.0099950004369,1.0,0.0,0.0,0.0,1.0,0.0,0.0,0.0,1.0,30.4268321991,44.9390258789,7.01219511032,1.0,0.0,0.0,0.0,1.0,0.0,0.0,0.0,1.0,-0.995987890625,-0.488417138672,-7.32146867676,1.0,0.0,0.0,0.0,1.0,0.0,0.0,0.0,1.0
1463471079041025085,453,1463471079039188110,,-16.5541419983,-8.54892158508,9.20334339142,0.0100130001083,1.0,0.0,0.0,0.0,1.0,0.0,0.0,0.0,1.0,28.6585388184,43.9024391174,10.0609760284,1.0,0.0,0.0,0.0,1.0,0.0,0.0,0.0,1.0,-1.13963999023,-0.531512805087,-7.27837304687,1.0,0.0,0.0,0.0,1.0,0.0,0.0,0.0,1.0
1463471079051466575,454,1463471079049259236,,-16.3407478333,-8.26133918762,8.7283039093,0.0101549997926,1.0,0.0,0.0,0.0,1.0,0.0,0.0,0.0,1.0,24.6951236725,41.0365867615,12.9878053665,1.0,0.0,0.0,0.0,1.0,0.0,0.0,0.0,1.0,-1.78607443848,-0.837970581055,-6.81868632812,1.0,0.0,0.0,0.0,1.0,0.0,0.0,0.0,1.0
1463471079061419577,455,1463471079058869530,,-16.2068595886,-7.91599082947,8.30420875549,0.00992000009865,1.0,0.0,0.0,0.0,1.0,0.0,0.0,0.0,1.0,21.5853652954,39.2682914734,15.7926826477,1.0,0.0,0.0,0.0,1.0,0.0,0.0,0.0,1.0,-0.986411083984,-0.363918652344,-7.83861623535,1.0,0.0,0.0,0.0,1.0,0.0,0.0,0.0,1.0
1463471079071501120,456,1463471079068925291,,-16.0967350006,-7.5828666687,7.91963815689,0.00991700030863,1.0,0.0,0.0,0.0,1.0,0.0,0.0,0.0,1.0,17.1951217651,37.134147644,19.4512195587,1.0,0.0,0.0,0.0,1.0,0.0,0.0,0.0,1.0,-0.986411083984,-0.818816967773,-8.02536396484,1.0,0.0,0.0,0.0,1.0,0.0,0.0,0.0,1.0
1463471079080939174,457,1463471079078676470,,-16.0361919403,-7.30054092407,7.55518722534,0.0100010000169,1.0,0.0,0.0,0.0,1.0,0.0,0.0,0.0,1.0,14.8780498505,34.5731735229,20.6097564697,1.0,0.0,0.0,0.0,1.0,0.0,0.0,0.0,1.0,-1.51313544922,-0.536301208408,-8.48983967144,1.0,0.0,0.0,0.0,1.0,0.0,0.0,0.0,1.0
1463471079090909467,458,1463471079088637649,,-15.9903736115,-7.04278421402,7.205722332,0.0100020002574,1.0,0.0,0.0,0.0,1.0,0.0,0.0,0.0,1.0,11.7073173523,32.5609779358,21.7073173523,1.0,0.0,0.0,0.0,1.0,0.0,0.0,0.0,1.0,-1.60890351563,-0.895431420898,-8.56166572124,1.0,0.0,0.0,0.0,1.0,0.0,0.0,0.0,1.0
1463471079101282728,459,1463471079098735650,,-15.9976673126,-6.7860865593,6.8785200119,0.00999999977648,1.0,0.0,0.0,0.0,1.0,0.0,0.0,0.0,1.0,6.82926845551,32.2560958862,23.7804889679,1.0,0.0,0.0,0.0,1.0,0.0,0.0,0.0,1.0,-1.69509477539,-0.933738647461,-8.8872765625,1.0,0.0,0.0,0.0,1.0,0.0,0.0,0.0,1.0
1463471079110889897,460,1463471079108623756,,-16.0571956635,-6.54676055908,6.57741498947,0.00999999977648,1.0,0.0,0.0,0.0,1.0,0.0,0.0,0.0,1.0,2.86585378647,29.9390258789,25.6097564697,1.0,0.0,0.0,0.0,1.0,0.0,0.0,0.0,1.0,-1.73819040527,-0.828393774414,-9.29907866352,1.0,0.0,0.0,0.0,1.0,0.0,0.0,0.0,1.0
1463471079121092794,461,1463471079118702173,,-16.1601352692,-6.32212972641,6.28613233566,0.0100010000169,1.0,0.0,0.0,0.0,1.0,0.0,0.0,0.0,1.0,-0.792682945728,28.7195110321,26.158536911,1.0,0.0,0.0,0.0,1.0,0.0,0.0,0.0,1.0,-1.81959326172,-0.756567724609,-9.5432884019,1.0,0.0,0.0,0.0,1.0,0.0,0.0,0.0,1.0
1463471079130393974,462,1463471079128762987,,-16.2834033966,-6.11784219742,6.01102590561,0.0100029995665,1.0,0.0,0.0,0.0,1.0,0.0,0.0,0.0,1.0,-3.23170733452,26.158536911,27.1341457367,1.0,0.0,0.0,0.0,1.0,0.0,0.0,0.0,1.0,-1.83395847168,-0.900219824219,-10.0364933594,1.0,0.0,0.0,0.0,1.0,0.0,0.0,0.0,1.0
1463471079140452600,463,1463471079138726457,,-16.4447212219,-5.94326353073,5.74017238617,0.00999899953604,1.0,0.0,0.0,0.0,1.0,0.0,0.0,0.0,1.0,-5.60975599289,24.4512195587,26.8902454376,1.0,0.0,0.0,0.0,1.0,0.0,0.0,0.0,1.0,-2.07337849156,-0.651222851562,-10.2759135254,1.0,0.0,0.0,0.0,1.0,0.0,0.0,0.0,1.0
1463471079151055340,464,1463471079148903104,,-16.6146221161,-5.79395484924,5.47885656357,0.00999800022691,1.0,0.0,0.0,0.0,1.0,0.0,0.0,0.0,1.0,-7.13414621353,21.6463432312,27.1341457367,1.0,0.0,0.0,0.0,1.0,0.0,0.0,0.0,1.0,-2.14520483363,-0.837970581055,-10.9798088135,1.0,0.0,0.0,0.0,1.0,0.0,0.0,0.0,1.0
1463471079160242665,465,1463471079158665481,,-16.7951087952,-5.67076158524,5.23012304306,0.0100090000778,1.0,0.0,0.0,0.0,1.0,0.0,0.0,0.0,1.0,-6.64634132385,20.3048782349,27.9268302917,1.0,0.0,0.0,0.0,1.0,0.0,0.0,0.0,1.0,-2.4277204834,-0.541089611728,-10.9798088135,1.0,0.0,0.0,0.0,1.0,0.0,0.0,0.0,1.0
1463471079171368373,466,1463471079168698951,,-17.020116806,-5.5613284111,5.01112365723,0.0100020002574,1.0,0.0,0.0,0.0,1.0,0.0,0.0,0.0,1.0,-12.6219520569,18.1097564697,30.5487804413,1.0,0.0,0.0,0.0,1.0,0.0,0.0,0.0,1.0,-2.46602770996,-0.928950244141,-11.3485158691,1.0,0.0,0.0,0.0,1.0,0.0,0.0,0.0,1.0
1463471079182711528,467,1463471079178726536,,-17.2815685272,-5.45966959,4.80592250824,0.00999899953604,1.0,0.0,0.0,0.0,1.0,0.0,0.0,0.0,1.0,-13.4756097794,16.2195110321,31.158536911,1.0,0.0,0.0,0.0,1.0,0.0,0.0,0.0,1.0,-2.29364519043,-0.296881024126,-11.511321582,1.0,0.0,0.0,0.0,1.0,0.0,0.0,0.0,1.0
1463471079190854637,468,1463471079188705839,,-17.5277957916,-5.39484548569,4.60016727448,0.0100189996883,1.0,0.0,0.0,0.0,1.0,0.0,0.0,0.0,1.0,-11.8902444839,13.2317075729,30.2439022064,1.0,0.0,0.0,0.0,1.0,0.0,0.0,0.0,1.0,-2.46602770996,-0.263362164351,-11.9374894775,1.0,0.0,0.0,0.0,1.0,0.0,0.0,0.0,1.0
1463471079200721180,469,1463471079198674986,,-17.7300300598,-5.37850761414,4.39071464539,0.00997699983418,1.0,0.0,0.0,0.0,1.0,0.0,0.0,0.0,1.0,-7.43902492523,10.6707315445,28.9634151459,1.0,0.0,0.0,0.0,1.0,0.0,0.0,0.0,1.0,-2.93529123535,-0.205901342773,-12.1481792236,1.0,0.0,0.0,0.0,1.0,0.0,0.0,0.0,1.0
1463471079210883556,470,1463471079208679446,,-17.8777160645,-5.40930986404,4.15390062332,0.009990000166,1.0,0.0,0.0,0.0,1.0,0.0,0.0,0.0,1.0,-3.53658556938,9.51219558716,25.9146347046,1.0,0.0,0.0,0.0,1.0,0.0,0.0,0.0,1.0,-3.80678063965,-0.565031591797,-13.0914946777,1.0,0.0,0.0,0.0,1.0,0.0,0.0,0.0,1.0
1463471079221081714,471,1463471079218657239,,-18.0324497223,-5.41226911545,3.93643403053,0.010006999597,1.0,0.0,0.0,0.0,1.0,0.0,0.0,0.0,1.0,-5.67073154449,5.73170757294,26.9512195587,1.0,0.0,0.0,0.0,1.0,0.0,0.0,0.0,1.0,-2.63362182617,-0.948103857422,-14.9972791992,1.0,0.0,0.0,0.0,1.0,0.0,0.0,0.0,1.0
1463471079230364664,472,1463471079228732115,,-18.2016105652,-5.40233135223,3.70412945747,0.00999999977648,1.0,0.0,0.0,0.0,1.0,0.0,0.0,0.0,1.0,-8.10975551605,15.2439022064,28.5975608826,1.0,0.0,0.0,0.0,1.0,0.0,0.0,0.0,1.0,-4.63996281738,-1.29286889648,-13.9821376953,1.0,0.0,0.0,0.0,1.0,0.0,0.0,0.0,1.0
1463471079240861415,473,1463471079238690273,,-18.409740448,-5.36997556686,3.49697971344,0.0100060002878,1.0,0.0,0.0,0.0,1.0,0.0,0.0,0.0,1.0,-10.9756097794,12.6829271317,30.3658542633,1.0,0.0,0.0,0.0,1.0,0.0,0.0,0.0,1.0,-3.46680400391,-0.895431420898,-13.8672160156,1.0,0.0,0.0,0.0,1.0,0.0,0.0,0.0,1.0
1463471079251042593,474,1463471079248841920,,-18.6602420807,-5.24598073959,3.32044291496,0.00999100040644,1.0,0.0,0.0,0.0,1.0,0.0,0.0,0.0,1.0,-13.2926826477,14.2682924271,33.9634132385,1.0,0.0,0.0,0.0,1.0,0.0,0.0,0.0,1.0,-1.73819040527,-0.277727392578,-13.4937205566,1.0,0.0,0.0,0.0,1.0,0.0,0.0,0.0,1.0
1463471079261052052,475,1463471079258788515,,-18.9402313232,-5.13674545288,3.2158164978,0.0100250001997,1.0,0.0,0.0,0.0,1.0,0.0,0.0,0.0,1.0,-13.2317075729,5.36585378647,38.3536567688,1.0,0.0,0.0,0.0,1.0,0.0,0.0,0.0,1.0,-0.387860668945,0.373495458984,-13.2973960205,1.0,0.0,0.0,0.0,1.0,0.0,0.0,0.0,1.0
1463471079270898075,476,1463471079268704277,,-19.2061576843,-5.05194854736,3.18488335609,0.00998200010508,1.0,0.0,0.0,0.0,1.0,0.0,0.0,0.0,1.0,-11.7073173523,-4.08536577225,42.8658561707,1.0,0.0,0.0,0.0,1.0,0.0,0.0,0.0,1.0,0.76135612793,0.292092584273,-12.0141039307,1.0,0.0,0.0,0.0,1.0,0.0,0.0,0.0,1.0
1463471079280441442,477,1463471079278779934,,-19.4099349976,-5.04983234406,3.22198271751,0.00999800022691,1.0,0.0,0.0,0.0,1.0,0.0,0.0,0.0,1.0,-7.56097555161,-15.3048791885,46.3414649963,1.0,0.0,0.0,0.0,1.0,0.0,0.0,0.0,1.0,0.967257470703,-0.248996972656,-11.1474029297,1.0,0.0,0.0,0.0,1.0,0.0,0.0,0.0,1.0
1463471079290831317,478,1463471079288688978,,-19.5399475098,-5.1345911026,3.31481480598,0.0100010000169,1.0,0.0,0.0,0.0,1.0,0.0,0.0,0.0,1.0,-3.71951246262,-24.6341457367,49.2682914734,1.0,0.0,0.0,0.0,1.0,0.0,0.0,0.0,1.0,0.718260498047,-0.943315454102,-9.71567033691,1.0,0.0,0.0,0.0,1.0,0.0,0.0,0.0,1.0
1463471079300867444,479,1463471079298739531,,-19.7507266998,-5.30855989456,3.51213359833,0.0100050000474,1.0,0.0,0.0,0.0,1.0,0.0,0.0,0.0,1.0,-5.30487823486,-36.9512214661,55.365852356,1.0,0.0,0.0,0.0,1.0,0.0,0.0,0.0,1.0,0.718260498047,0.105344873047,-9.10754311523,1.0,0.0,0.0,0.0,1.0,0.0,0.0,0.0,1.0
1463471079311293777,480,1463471079308835501,,-19.9690437317,-5.52272415161,3.79162836075,0.00999999977648,1.0,0.0,0.0,0.0,1.0,0.0,0.0,0.0,1.0,-4.51219558716,-40.9756088257,62.5,1.0,0.0,0.0,0.0,1.0,0.0,0.0,0.0,1.0,0.225054956055,0.248996972656,-8.53293530132,1.0,0.0,0.0,0.0,1.0,0.0,0.0,0.0,1.0
1463471079320859748,481,1463471079318697617,,-20.2173500061,-5.83696889877,4.12697839737,0.00999699998647,1.0,0.0,0.0,0.0,1.0,0.0,0.0,0.0,1.0,-2.56097555161,-44.4512176514,66.6463470459,1.0,0.0,0.0,0.0,1.0,0.0,0.0,0.0,1.0,-1.14442839355,0.991199487305,-8.97346782227,1.0,0.0,0.0,0.0,1.0,0.0,0.0,0.0,1.0
1463471079330296970,482,1463471079328679994,,-20.4117431641,-6.18589019775,4.49992036819,0.00999800022691,1.0,0.0,0.0,0.0,1.0,0.0,0.0,0.0,1.0,2.92682933807,-44.817073822,70.4878082275,1.0,0.0,0.0,0.0,1.0,0.0,0.0,0.0,1.0,-1.92014973145,0.900219824219,-8.85854614258,1.0,0.0,0.0,0.0,1.0,0.0,0.0,0.0,1.0
1463471079341067574,483,1463471079338659245,,-20.555475235,-6.51883029938,4.86334085464,0.0100010000169,1.0,0.0,0.0,0.0,1.0,0.0,0.0,0.0,1.0,8.96341514587,-39.817073822,71.2195129395,1.0,0.0,0.0,0.0,1.0,0.0,0.0,0.0,1.0,-2.69587106934,1.08217922346,-9.30386706685,1.0,0.0,0.0,0.0,1.0,0.0,0.0,0.0,1.0
1463471079350920367,484,1463471079348641569,,-20.6038990021,-6.84626340866,5.18878316879,0.00998700037599,1.0,0.0,0.0,0.0,1.0,0.0,0.0,0.0,1.0,18.475610733,-36.0365867615,68.6585388184,1.0,0.0,0.0,0.0,1.0,0.0,0.0,0.0,1.0,-3.64397492676,1.28329208984,-10.7308118408,1.0,0.0,0.0,0.0,1.0,0.0,0.0,0.0,1.0
1463471079361014931,485,1463471079358706081,,-20.5267086029,-7.10342597961,5.42541694641,0.0100269997492,1.0,0.0,0.0,0.0,1.0,0.0,0.0,0.0,1.0,28.7804889679,-26.5853652954,62.9268302917,1.0,0.0,0.0,0.0,1.0,0.0,0.0,0.0,1.0,-3.53384165039,0.991199487305,-10.4722380615,1.0,0.0,0.0,0.0,1.0,0.0,0.0,0.0,1.0
1463471079371053505,486,1463471079368643353,,-20.3435077667,-7.310090065,5.58035564423,0.00997999962419,1.0,0.0,0.0,0.0,1.0,0.0,0.0,0.0,1.0,37.9268302917,-19.0243911743,57.3780479431,1.0,0.0,0.0,0.0,1.0,0.0,0.0,0.0,1.0,-3.72058937988,0.871489404297,-10.8026378906,1.0,0.0,0.0,0.0,1.0,0.0,0.0,0.0,1.0
1463471079380295518,487,1463471079378696094,,-20.0795688629,-7.46529436111,5.67819786072,0.010006999597,1.0,0.0,0.0,0.0,1.0,0.0,0.0,0.0,1.0,44.8780479431,-12.8658542633,53.7195129395,1.0,0.0,0.0,0.0,1.0,0.0,0.0,0.0,1.0,-3.38061274414,0.723048901367,-10.1705686523,1.0,0.0,0.0,0.0,1.0,0.0,0.0,0.0,1.0
1463471079390894247,488,1463471079388662585,,-19.7361469269,-7.53011035919,5.72215938568,0.00999999977648,1.0,0.0,0.0,0.0,1.0,0.0,0.0,0.0,1.0,49.5731735229,-6.28048801422,50.8536605835,1.0,0.0,0.0,0.0,1.0,0.0,0.0,0.0,1.0,-2.55700737305,0.220266552734,-9.94072529297,1.0,0.0,0.0,0.0,1.0,0.0,0.0,0.0,1.0
1463471079400923342,489,1463471079398702722,,-19.3631572723,-7.55209827423,5.75517129898,0.0100020002574,1.0,0.0,0.0,0.0,1.0,0.0,0.0,0.0,1.0,49.6951217651,-1.76829278469,51.7073173523,1.0,0.0,0.0,0.0,1.0,0.0,0.0,0.0,1.0,-2.46123930664,-0.354341845703,-9.46188437642,1.0,0.0,0.0,0.0,1.0,0.0,0.0,0.0,1.0
1463471079410828167,490,1463471079408677077,,-19.0247421265,-7.51843547821,5.79573249817,0.00999199971557,1.0,0.0,0.0,0.0,1.0,0.0,0.0,0.0,1.0,45.3048782349,2.07317066193,53.9634170532,1.0,0.0,0.0,0.0,1.0,0.0,0.0,0.0,1.0,-2.14999323695,-0.569819995117,-9.09796630859,1.0,0.0,0.0,0.0,1.0,0.0,0.0,0.0,1.0
1463471079420319034,491,1463471079418736485,,-18.7112789154,-7.44793748856,5.84319019318,0.0100039998069,1.0,0.0,0.0,0.0,1.0,0.0,0.0,0.0,1.0,39.0243911743,4.14634132385,55.8536605835,1.0,0.0,0.0,0.0,1.0,0.0,0.0,0.0,1.0,-1.9105729248,-1.2976572998,-9.02135185547,1.0,0.0,0.0,0.0,1.0,0.0,0.0,0.0,1.0
1463471079430310316,492,1463471079428693497,,-18.4684848785,-7.3344912529,5.90642929077,0.0100020002574,1.0,0.0,0.0,0.0,1.0,0.0,0.0,0.0,1.0,31.2804889679,4.45121955872,57.6219482422,1.0,0.0,0.0,0.0,1.0,0.0,0.0,0.0,1.0,-1.2737152832,-1.40779057617,-8.72447084961,1.0,0.0,0.0,0.0,1.0,0.0,0.0,0.0,1.0
1463471079441007327,493,1463471079438681029,,-18.3339996338,-7.17328214645,6.00520515442,0.00999800022691,1.0,0.0,0.0,0.0,1.0,0.0,0.0,0.0,1.0,23.2317085266,4.45121955872,60.9146347046,1.0,0.0,0.0,0.0,1.0,0.0,0.0,0.0,1.0,-0.646434448242,-0.948103857422,-8.26957253418,1.0,0.0,0.0,0.0,1.0,0.0,0.0,0.0,1.0
1463471079450929964,494,1463471079448664499,,-18.2943267822,-6.98943519592,6.14328956604,0.00999299995601,1.0,0.0,0.0,0.0,1.0,0.0,0.0,0.0,1.0,17.134147644,2.13414645195,63.7804908752,1.0,0.0,0.0,0.0,1.0,0.0,0.0,0.0,1.0,-0.119710083008,-0.488417138672,-8.38928203267,1.0,0.0,0.0,0.0,1.0,0.0,0.0,0.0,1.0
1463471079460951038,495,1463471079458677553,,-18.2960567474,-6.8756070137,6.29823541641,0.0099950004369,1.0,0.0,0.0,0.0,1.0,0.0,0.0,0.0,1.0,14.6951217651,-4.75609779358,62.9878044128,1.0,0.0,0.0,0.0,1.0,0.0,0.0,0.0,1.0,-0.143652099609,-0.253785375977,-8.70052883301,1.0,0.0,0.0,0.0,1.0,0.0,0.0,0.0,1.0
1463471079470255134,496,1463471079468676023,,-18.3055419922,-6.82433414459,6.4518456459,0.0100050000474,1.0,0.0,0.0,0.0,1.0,0.0,0.0,0.0,1.0,17.1951217651,-8.41463470459,61.1585350037,1.0,0.0,0.0,0.0,1.0,0.0,0.0,0.0,1.0,-0.512359155273,0.296881024126,-9.08838950195,1.0,0.0,0.0,0.0,1.0,0.0,0.0,0.0,1.0
1463471079480331781,497,1463471079478697410,,-18.2726745605,-6.82750082016,6.56332302094,0.0100039998069,1.0,0.0,0.0,0.0,1.0,0.0,0.0,0.0,1.0,20.5487823486,-10.4878053665,56.0975608826,1.0,0.0,0.0,0.0,1.0,0.0,0.0,0.0,1.0,-0.790086547852,0.225054956055,-8.91600698242,1.0,0.0,0.0,0.0,1.0,0.0,0.0,0.0,1.0
1463471079491054208,498,1463471079488639526,,-18.1710662842,-6.87567234039,6.62435245514,0.0100029995665,1.0,0.0,0.0,0.0,1.0,0.0,0.0,0.0,1.0,24.0853652954,-12.1951217651,50.6097564697,1.0,0.0,0.0,0.0,1.0,0.0,0.0,0.0,1.0,-0.905008227539,-0.234631762695,-8.45153127583,1.0,0.0,0.0,0.0,1.0,0.0,0.0,0.0,1.0
1463471079500885960,499,1463471079498725391,,-18.0446720123,-6.9578499794,6.6672296524,0.0100029995665,1.0,0.0,0.0,0.0,1.0,0.0,0.0,0.0,1.0,23.7195129395,-13.1097564697,48.7804870605,1.0,0.0,0.0,0.0,1.0,0.0,0.0,0.0,1.0,-1.03429511719,-0.603338854892,-7.34062229004,1.0,0.0,0.0,0.0,1.0,0.0,0.0,0.0,1.0
1463471079510254536,500,1463471079508674851,,-17.9705753326,-6.99553775787,6.70746183395,0.009990000166,1.0,0.0,0.0,0.0,1.0,0.0,0.0,0.0,1.0,22.0731716156,-14.8780498505,47.5,1.0,0.0,0.0,0.0,1.0,0.0,0.0,0.0,1.0,-0.201112939453,-0.0814028564453,-7.0485296875,1.0,0.0,0.0,0.0,1.0,0.0,0.0,0.0,1.0
1463471079520408110,501,1463471079518802592,,-17.8593120575,-7.03161144257,6.73929738998,0.0100039998069,1.0,0.0,0.0,0.0,1.0,0.0,0.0,0.0,1.0,21.5853652954,-17.9878044128,46.1585388184,1.0,0.0,0.0,0.0,1.0,0.0,0.0,0.0,1.0,0.244208569336,-0.593762048251,-6.4834980957,1.0,0.0,0.0,0.0,1.0,0.0,0.0,0.0,1.0
1463471079530428298,502,1463471079528706791,,-17.7976703644,-7.10117483139,6.76102972031,0.00999999977648,1.0,0.0,0.0,0.0,1.0,0.0,0.0,0.0,1.0,19.6951236725,-20.7317085266,43.8414649963,1.0,0.0,0.0,0.0,1.0,0.0,0.0,0.0,1.0,0.210689746094,-0.201112939453,-6.22492431641,1.0,0.0,0.0,0.0,1.0,0.0,0.0,0.0,1.0
1463471079540837341,503,1463471079538671459,,-17.7544994354,-7.22269630432,6.76374578476,0.0100250001997,1.0,0.0,0.0,0.0,1.0,0.0,0.0,0.0,1.0,20.5487823486,-23.5365848541,40.6097564697,1.0,0.0,0.0,0.0,1.0,0.0,0.0,0.0,1.0,0.0239420166016,0.148440512063,-6.6941878418,1.0,0.0,0.0,0.0,1.0,0.0,0.0,0.0,1.0
1463471079551176643,504,1463471079548724513,,-17.7060394287,-7.38398313522,6.73857402802,0.00997199956328,1.0,0.0,0.0,0.0,1.0,0.0,0.0,0.0,1.0,20.0,-26.5243911743,36.8902435303,1.0,0.0,0.0,0.0,1.0,0.0,0.0,0.0,1.0,0.00478840332031,0.0526724365234,-6.89051237793,1.0,0.0,0.0,0.0,1.0,0.0,0.0,0.0,1.0
1463471079560345740,505,1463471079558735118,,-17.6593894958,-7.57813882828,6.67301988602,0.00999599974602,1.0,0.0,0.0,0.0,1.0,0.0,0.0,0.0,1.0,18.7804889679,-27.7439041138,32.4390220642,1.0,0.0,0.0,0.0,1.0,0.0,0.0,0.0,1.0,-0.105344873047,-0.0191536132812,-7.20175859375,1.0,0.0,0.0,0.0,1.0,0.0,0.0,0.0,1.0
1463471079570338481,506,1463471079568650411,,-17.5973854065,-7.79374027252,6.56966781616,0.0100109996274,1.0,0.0,0.0,0.0,1.0,0.0,0.0,0.0,1.0,16.7682933807,-30.0609760284,28.2926845551,1.0,0.0,0.0,0.0,1.0,0.0,0.0,0.0,1.0,0.067037651051,-0.46447512207,-7.63271489258,1.0,0.0,0.0,0.0,1.0,0.0,0.0,0.0,1.0
1463471079580257837,507,1463471079578612579,,-17.5923881531,-8.01957416534,6.43443584442,0.0099849998951,1.0,0.0,0.0,0.0,1.0,0.0,0.0,0.0,1.0,12.8048782349,-31.7073192596,24.2073173523,1.0,0.0,0.0,0.0,1.0,0.0,0.0,0.0,1.0,0.258573779297,-0.15322890625,-7.59440766602,1.0,0.0,0.0,0.0,1.0,0.0,0.0,0.0,1.0
1463471079590335630,508,1463471079588632560,,-17.5859375,-8.28474712372,6.26468086243,0.0100060002878,1.0,0.0,0.0,0.0,1.0,0.0,0.0,0.0,1.0,8.96341514587,-33.5365867615,20.6707324982,1.0,0.0,0.0,0.0,1.0,0.0,0.0,0.0,1.0,0.110133276367,-0.656011254883,-7.61834968262,1.0,0.0,0.0,0.0,1.0,0.0,0.0,0.0,1.0
1463471079600449568,509,1463471079598794155,,-17.6645317078,-8.63612747192,6.07100200653,0.0100079998374,1.0,0.0,0.0,0.0,1.0,0.0,0.0,0.0,1.0,3.90243911743,-35.1219520569,17.1951217651,1.0,0.0,0.0,0.0,1.0,0.0,0.0,0.0,1.0,-0.847547387695,-0.114921679688,-8.37970522602,1.0,0.0,0.0,0.0,1.0,0.0,0.0,0.0,1.0
1463471079610355174,510,1463471079608761948,,-17.7056179047,-8.94965076447,5.82375955582,0.00998899992555,1.0,0.0,0.0,0.0,1.0,0.0,0.0,0.0,1.0,0.914634168148,-32.9878044128,13.2926826477,1.0,0.0,0.0,0.0,1.0,0.0,0.0,0.0,1.0,-0.416591088867,-1.03429511719,-8.39407043599,1.0,0.0,0.0,0.0,1.0,0.0,0.0,0.0,1.0
1463471079620327498,511,1463471079618717814,,-17.824634552,-9.27363109589,5.54285001755,0.0100109996274,1.0,0.0,0.0,0.0,1.0,0.0,0.0,0.0,1.0,-7.92682981491,-33.2926826477,9.93902492523,1.0,0.0,0.0,0.0,1.0,0.0,0.0,0.0,1.0,-0.402225878906,-1.10612116699,-8.46110808247,1.0,0.0,0.0,0.0,1.0,0.0,0.0,0.0,1.0
1463471079630306333,512,1463471079628702482,,-18.0121555328,-9.62065792084,5.23376560211,0.0100029995665,1.0,0.0,0.0,0.0,1.0,0.0,0.0,0.0,1.0,-15.975610733,-32.8048782349,7.31707334518,1.0,0.0,0.0,0.0,1.0,0.0,0.0,0.0,1.0,-0.76614453125,-1.2497732666,-8.85375773926,1.0,0.0,0.0,0.0,1.0,0.0,0.0,0.0,1.0
1463471079640258084,513,1463471079638685848,,-18.270450592,-9.94938373566,4.88894557953,0.00998899992555,1.0,0.0,0.0,0.0,1.0,0.0,0.0,0.0,1.0,-25.0609760284,-31.0365867615,4.39024400711,1.0,0.0,0.0,0.0,1.0,0.0,0.0,0.0,1.0,-0.641646044922,-1.47961662598,-9.13627353516,1.0,0.0,0.0,0.0,1.0,0.0,0.0,0.0,1.0
1463471079650450356,514,1463471079648662026,,-18.6027507782,-10.2779960632,4.51364994049,0.0100020002574,1.0,0.0,0.0,0.0,1.0,0.0,0.0,0.0,1.0,-33.1097564697,-31.158536911,1.2195122242,1.0,0.0,0.0,0.0,1.0,0.0,0.0,0.0,1.0,-0.493205541992,-1.5083470459,-9.61511445171,1.0,0.0,0.0,0.0,1.0,0.0,0.0,0.0,1.0
1463471079660259920,515,1463471079658673934,,-18.9933929443,-10.6184196472,4.09618377686,0.00999400019646,1.0,0.0,0.0,0.0,1.0,0.0,0.0,0.0,1.0,-39.2073173523,-30.1219520569,-3.04878044128,1.0,0.0,0.0,0.0,1.0,0.0,0.0,0.0,1.0,-0.651222851562,-1.2976572998,-9.5193463853,1.0,0.0,0.0,0.0,1.0,0.0,0.0,0.0,1.0
1463471079670308807,516,1463471079668711623,,-19.4696407318,-11.0107908249,3.65191316605,0.0100079998374,1.0,0.0,0.0,0.0,1.0,0.0,0.0,0.0,1.0,-45.1219520569,-33.7195129395,-7.80487823486,1.0,0.0,0.0,0.0,1.0,0.0,0.0,0.0,1.0,-0.857124194336,-0.699106884766,-11.152191333,1.0,0.0,0.0,0.0,1.0,0.0,0.0,0.0,1.0
1463471079681179984,517,1463471079678808686,,-19.9966392517,-11.3512926102,3.15121269226,0.0100389998406,1.0,0.0,0.0,0.0,1.0,0.0,0.0,0.0,1.0,-50.3048820496,-27.682926178,-11.7682924271,1.0,0.0,0.0,0.0,1.0,0.0,0.0,0.0,1.0,-0.670376464844,-0.363918652344,-10.9079827637,1.0,0.0,0.0,0.0,1.0,0.0,0.0,0.0,1.0
1463471079691467099,518,1463471079688861948,,-20.5274391174,-11.7352714539,2.62163519859,0.0100379996002,1.0,0.0,0.0,0.0,1.0,0.0,0.0,0.0,1.0,-51.8902435303,-28.0487804413,-15.0609760284,1.0,0.0,0.0,0.0,1.0,0.0,0.0,0.0,1.0,-1.23540805664,-0.363918652344,-11.2288057861,1.0,0.0,0.0,0.0,1.0,0.0,0.0,0.0,1.0
1463471079700438123,519,1463471079698742814,,-21.0425548553,-12.0949802399,2.05885767937,0.00997800007463,1.0,0.0,0.0,0.0,1.0,0.0,0.0,0.0,1.0,-52.5609779358,-26.0365848541,-18.1097564697,1.0,0.0,0.0,0.0,1.0,0.0,0.0,0.0,1.0,-0.972045874023,-0.46447512207,-11.8560866211,1.0,0.0,0.0,0.0,1.0,0.0,0.0,0.0,1.0
1463471079710432687,520,1463471079708693368,,-21.5250148773,-12.4723510742,1.47226142883,0.00994999986142,1.0,0.0,0.0,0.0,1.0,0.0,0.0,0.0,1.0,-51.4634170532,-24.8780498505,-20.2439022064,1.0,0.0,0.0,0.0,1.0,0.0,0.0,0.0,1.0,-1.4604630127,-0.684741674805,-12.4737906494,1.0,0.0,0.0,0.0,1.0,0.0,0.0,0.0,1.0
1463471079720396834,521,1463471079718730484,,-22.032579422,-12.913611412,0.853381872177,0.00999899953604,1.0,0.0,0.0,0.0,1.0,0.0,0.0,0.0,1.0,-54.5731735229,-24.2682933807,-23.2926845551,1.0,0.0,0.0,0.0,1.0,0.0,0.0,0.0,1.0,-2.63362182617,-0.603338854892,-12.1002951904,1.0,0.0,0.0,0.0,1.0,0.0,0.0,0.0,1.0
1463471079730498481,522,1463471079728690152,,-22.4918823242,-13.2699480057,0.221699044108,0.0100109996274,1.0,0.0,0.0,0.0,1.0,0.0,0.0,0.0,1.0,-50.9146347046,-18.1707305908,-22.0121955872,1.0,0.0,0.0,0.0,1.0,0.0,0.0,0.0,1.0,-2.28406838379,-0.641646044922,-13.3357032471,1.0,0.0,0.0,0.0,1.0,0.0,0.0,0.0,1.0
1463471079741228200,523,1463471079738778361,,-22.9362392426,-13.6045007706,-0.420573145151,0.0100619997829,1.0,0.0,0.0,0.0,1.0,0.0,0.0,0.0,1.0,-49.4512176514,-17.317073822,-22.5609760284,1.0,0.0,0.0,0.0,1.0,0.0,0.0,0.0,1.0,-1.81001645508,-0.430956298828,-13.1681091309,1.0,0.0,0.0,0.0,1.0,0.0,0.0,0.0,1.0
1463471079750474693,524,1463471079748874800,,-23.3223781586,-13.8871355057,-1.0790117979,0.0100260004401,1.0,0.0,0.0,0.0,1.0,0.0,0.0,0.0,1.0,-45.4268302917,-13.1707324982,-22.5609760284,1.0,0.0,0.0,0.0,1.0,0.0,0.0,0.0,1.0,-1.45567460937,-0.541089611728,-13.0867062744,1.0,0.0,0.0,0.0,1.0,0.0,0.0,0.0,1.0
1463471079760315038,525,1463471079758731968,,-23.6692047119,-14.1781015396,-1.72200584412,0.00990500021726,1.0,0.0,0.0,0.0,1.0,0.0,0.0,0.0,1.0,-40.3658561707,-13.9024391174,-22.5609760284,1.0,0.0,0.0,0.0,1.0,0.0,0.0,0.0,1.0,-1.61369191895,-0.0191536132812,-13.2543003906,1.0,0.0,0.0,0.0,1.0,0.0,0.0,0.0,1.0
1463471079770303508,526,1463471079768701740,,-23.9346790314,-14.4651346207,-2.3801047802,0.0099950004369,1.0,0.0,0.0,0.0,1.0,0.0,0.0,0.0,1.0,-33.4146347046,-12.9878053665,-22.8658542633,1.0,0.0,0.0,0.0,1.0,0.0,0.0,0.0,1.0,-1.54186586914,-0.196324536133,-12.856862915,1.0,0.0,0.0,0.0,1.0,0.0,0.0,0.0,1.0
1463471079780346666,527,1463471079778709585,,-24.1504631042,-14.7601461411,-3.01906037331,0.009990000166,1.0,0.0,0.0,0.0,1.0,0.0,0.0,0.0,1.0,-28.2317066193,-13.048781395,-20.8536586761,1.0,0.0,0.0,0.0,1.0,0.0,0.0,0.0,1.0,-1.91536132812,-0.148440512063,-12.871228125,1.0,0.0,0.0,0.0,1.0,0.0,0.0,0.0,1.0
1463471079791044874,528,1463471079788712899,,-24.3476257324,-15.0251321793,-3.61579036713,0.0100130001083,1.0,0.0,0.0,0.0,1.0,0.0,0.0,0.0,1.0,-24.1463432312,-11.8292684555,-15.975610733,1.0,0.0,0.0,0.0,1.0,0.0,0.0,0.0,1.0,-1.97761057129,0.239420166016,-12.8616513184,1.0,0.0,0.0,0.0,1.0,0.0,0.0,0.0,1.0
1463471079800268346,529,1463471079798713140,,-24.5438632965,-15.3173475266,-4.16772127151,0.00999599974602,1.0,0.0,0.0,0.0,1.0,0.0,0.0,0.0,1.0,-23.5975627899,-9.87804889679,-10.2439022064,1.0,0.0,0.0,0.0,1.0,0.0,0.0,0.0,1.0,-3.82114584961,0.0335188255255,-13.5655466064,1.0,0.0,0.0,0.0,1.0,0.0,0.0,0.0,1.0
1463471079810281711,530,1463471079808706454,,-24.7047996521,-15.5276985168,-4.69161510468,0.00999899953604,1.0,0.0,0.0,0.0,1.0,0.0,0.0,0.0,1.0,-20.8536586761,-6.89024400711,-5.36585378647,1.0,0.0,0.0,0.0,1.0,0.0,0.0,0.0,1.0,-2.98317526855,-0.205901342773,-13.7762363525,1.0,0.0,0.0,0.0,1.0,0.0,0.0,0.0,1.0
1463471079821356534,531,1463471079818707997,,-24.838432312,-15.6812028885,-5.21036624908,0.0100020002574,1.0,0.0,0.0,0.0,1.0,0.0,0.0,0.0,1.0,-17.317073822,-2.74390244484,-3.04878044128,1.0,0.0,0.0,0.0,1.0,0.0,0.0,0.0,1.0,-2.85388837891,0.076614453125,-14.111424585,1.0,0.0,0.0,0.0,1.0,0.0,0.0,0.0,1.0
1463471079830293027,532,1463471079828680478,,-24.9190387726,-15.8229732513,-5.72094392776,0.00999199971557,1.0,0.0,0.0,0.0,1.0,0.0,0.0,0.0,1.0,-13.2317075729,-4.32926845551,-2.5,1.0,0.0,0.0,0.0,1.0,0.0,0.0,0.0,1.0,-2.20745393066,-0.215478149414,-14.0443869385,1.0,0.0,0.0,0.0,1.0,0.0,0.0,0.0,1.0
1463471079840927173,533,1463471079838705041,,-24.9493560791,-15.9371166229,-6.23217916489,0.0100050000474,1.0,0.0,0.0,0.0,1.0,0.0,0.0,0.0,1.0,-9.32926845551,-7.01219511032,-3.35365867615,1.0,0.0,0.0,0.0,1.0,0.0,0.0,0.0,1.0,-0.732625708008,-0.402225878906,-13.230358374,1.0,0.0,0.0,0.0,1.0,0.0,0.0,0.0,1.0
1463471079850258144,534,1463471079848688147,,-24.9598464966,-16.0665454865,-6.7143907547,0.00999899953604,1.0,0.0,0.0,0.0,1.0,0.0,0.0,0.0,1.0,-6.89024400711,-12.6829271317,-2.80487799644,1.0,0.0,0.0,0.0,1.0,0.0,0.0,0.0,1.0,0.067037651051,-0.435744702148,-12.6557499756,1.0,0.0,0.0,0.0,1.0,0.0,0.0,0.0,1.0
1463471079860321510,535,1463471079858736200,,-24.9867477417,-16.2406139374,-7.12846326828,0.0099950004369,1.0,0.0,0.0,0.0,1.0,0.0,0.0,0.0,1.0,-5.85365867615,-21.9512195587,-0.12195122242,1.0,0.0,0.0,0.0,1.0,0.0,0.0,0.0,1.0,0.627280834961,-0.196324536133,-11.9039706543,1.0,0.0,0.0,0.0,1.0,0.0,0.0,0.0,1.0
1463471079870920708,536,1463471079868630556,,-25.0366077423,-16.4670581818,-7.46085357666,0.00999899953604,1.0,0.0,0.0,0.0,1.0,0.0,0.0,0.0,1.0,-5.24390268326,-30.1829280853,4.57317066193,1.0,0.0,0.0,0.0,1.0,0.0,0.0,0.0,1.0,0.603338854892,-0.0143652099609,-11.4778027588,1.0,0.0,0.0,0.0,1.0,0.0,0.0,0.0,1.0
1463471079881817822,537,1463471079878652828,,-25.1035366058,-16.7596759796,-7.71144580841,0.00999899953604,1.0,0.0,0.0,0.0,1.0,0.0,0.0,0.0,1.0,-5.60975599289,-36.8902435303,10.4878053665,1.0,0.0,0.0,0.0,1.0,0.0,0.0,0.0,1.0,-0.0574608398438,-0.186747729492,-10.7356002441,1.0,0.0,0.0,0.0,1.0,0.0,0.0,0.0,1.0
1463471079891067127,538,1463471079888617184,,-25.2055835724,-17.0758419037,-7.88103628159,0.0100029995665,1.0,0.0,0.0,0.0,1.0,0.0,0.0,0.0,1.0,-7.13414621353,-40.7926826477,17.4390239716,1.0,0.0,0.0,0.0,1.0,0.0,0.0,0.0,1.0,-0.402225878906,-0.229843359375,-9.86411083984,1.0,0.0,0.0,0.0,1.0,0.0,0.0,0.0,1.0
1463471079901193513,539,1463471079898658883,,-25.33527565,-17.4298706055,-7.9946770668,0.0100020002574,1.0,0.0,0.0,0.0,1.0,0.0,0.0,0.0,1.0,-9.69512176514,-42.5,23.1097564697,1.0,0.0,0.0,0.0,1.0,0.0,0.0,0.0,1.0,-1.18273554705,-0.512359155273,-9.36611631001,1.0,0.0,0.0,0.0,1.0,0.0,0.0,0.0,1.0
1463471079911809274,540,1463471079908642457,,-25.5110988617,-17.7911167145,-8.05174064636,0.0100039998069,1.0,0.0,0.0,0.0,1.0,0.0,0.0,0.0,1.0,-10.2439022064,-41.9512214661,28.5975608826,1.0,0.0,0.0,0.0,1.0,0.0,0.0,0.0,1.0,-1.80043964844,-0.0718260498047,-8.83460412598,1.0,0.0,0.0,0.0,1.0,0.0,0.0,0.0,1.0
1463471079920869465,541,1463471079918637959,,-25.6907978058,-18.1483078003,-8.09422016144,0.0100029995665,1.0,0.0,0.0,0.0,1.0,0.0,0.0,0.0,1.0,-9.14634132385,-37.7439041138,31.8292694092,1.0,0.0,0.0,0.0,1.0,0.0,0.0,0.0,1.0,-2.79642753906,0.0430956298828,-9.25598361816,1.0,0.0,0.0,0.0,1.0,0.0,0.0,0.0,1.0
1463471079931069184,542,1463471079928646481,,-25.8508872986,-18.4820213318,-8.14175224304,0.00999999977648,1.0,0.0,0.0,0.0,1.0,0.0,0.0,0.0,1.0,-6.21951246262,-32.3780517578,33.5365867615,1.0,0.0,0.0,0.0,1.0,0.0,0.0,0.0,1.0,-3.79241542969,0.225054956055,-10.1131078125,1.0,0.0,0.0,0.0,1.0,0.0,0.0,0.0,1.0
1463471079941097238,543,1463471079938721149,,-25.9483242035,-18.7523269653,-8.23699092865,0.0100269997492,1.0,0.0,0.0,0.0,1.0,0.0,0.0,0.0,1.0,1.03658533096,-22.3780498505,32.5609779358,1.0,0.0,0.0,0.0,1.0,0.0,0.0,0.0,1.0,-4.65432773508,0.751779321289,-10.7451770508,1.0,0.0,0.0,0.0,1.0,0.0,0.0,0.0,1.0
1463471079950284928,544,1463471079948713525,,-25.9581680298,-18.9515247345,-8.3927116394,0.00997699983418,1.0,0.0,0.0,0.0,1.0,0.0,0.0,0.0,1.0,8.23170757294,-13.1707324982,30.5487804413,1.0,0.0,0.0,0.0,1.0,0.0,0.0,0.0,1.0,-5.09964953613,0.900219824219,-11.3772462891,1.0,0.0,0.0,0.0,1.0,0.0,0.0,0.0,1.0
1463471079960271471,545,1463471079958688349,,-25.8958568573,-19.0359020233,-8.6153421402,0.00999599974602,1.0,0.0,0.0,0.0,1.0,0.0,0.0,0.0,1.0,13.9634151459,-2.56097555161,28.5365848541,1.0,0.0,0.0,0.0,1.0,0.0,0.0,0.0,1.0,-4.64475092844,1.19710090314,-11.750741748,1.0,0.0,0.0,0.0,1.0,0.0,0.0,0.0,1.0
1463471079970962857,546,1463471079968707392,,-25.7242679596,-19.0406131744,-8.88084602356,0.0100029995665,1.0,0.0,0.0,0.0,1.0,0.0,0.0,0.0,1.0,21.8902435303,4.81707286835,28.2926845551,1.0,0.0,0.0,0.0,1.0,0.0,0.0,0.0,1.0,-4.30477487722,0.833182177734,-11.8512982178,1.0,0.0,0.0,0.0,1.0,0.0,0.0,0.0,1.0
1463471079981256378,547,1463471079978678675,,-25.4738883972,-18.9806213379,-9.1902589798,0.00999999977648,1.0,0.0,0.0,0.0,1.0,0.0,0.0,0.0,1.0,27.682926178,10.6097564697,26.7073173523,1.0,0.0,0.0,0.0,1.0,0.0,0.0,0.0,1.0,-3.87860668945,0.689530078125,-11.9518546875,1.0,0.0,0.0,0.0,1.0,0.0,0.0,0.0,1.0
1463471079991020109,548,1463471079988723083,,-25.1594181061,-18.8693199158,-9.51543807983,0.00999899953604,1.0,0.0,0.0,0.0,1.0,0.0,0.0,0.0,1.0,32.0121955872,13.3536586761,26.8902454376,1.0,0.0,0.0,0.0,1.0,0.0,0.0,0.0,1.0,-3.24653745117,0.301669427446,-11.9614314941,1.0,0.0,0.0,0.0,1.0,0.0,0.0,0.0,1.0
1463471080001261860,549,1463471079998725198,,-24.8023204803,-18.7135181427,-9.83106040955,0.009990000166,1.0,0.0,0.0,0.0,1.0,0.0,0.0,0.0,1.0,33.9634132385,15.2439022064,29.6341457367,1.0,0.0,0.0,0.0,1.0,0.0,0.0,0.0,1.0,-2.61446821289,-0.373495458984,-11.1617681396,1.0,0.0,0.0,0.0,1.0,0.0,0.0,0.0,1.0
1463471080010319551,550,1463471080008698773,,-24.4480819702,-18.537689209,-10.1097574234,0.0100140003487,1.0,0.0,0.0,0.0,1.0,0.0,0.0,0.0,1.0,34.3292694092,14.6341466904,33.2926826477,1.0,0.0,0.0,0.0,1.0,0.0,0.0,0.0,1.0,-2.33195227086,-0.531512805087,-10.8792523438,1.0,0.0,0.0,0.0,1.0,0.0,0.0,0.0,1.0
1463471080020334688,551,1463471080018697712,,-24.1097755432,-18.3411769867,-10.3402614594,0.00999599974602,1.0,0.0,0.0,0.0,1.0,0.0,0.0,0.0,1.0,34.634147644,12.6829271317,37.0731697083,1.0,0.0,0.0,0.0,1.0,0.0,0.0,0.0,1.0,-1.78128603516,-0.469263525391,-10.3668931885,1.0,0.0,0.0,0.0,1.0,0.0,0.0,0.0,1.0
1463471080031015344,552,1463471080028699984,,-23.8003387451,-18.1317214966,-10.5185937881,0.00999800022691,1.0,0.0,0.0,0.0,1.0,0.0,0.0,0.0,1.0,32.5609779358,11.0365858078,41.8902435303,1.0,0.0,0.0,0.0,1.0,0.0,0.0,0.0,1.0,-1.47961662598,-0.670376464844,-9.7348239502,1.0,0.0,0.0,0.0,1.0,0.0,0.0,0.0,1.0
1463471080040960324,553,1463471080038758766,,-23.5265369415,-17.9479255676,-10.6248807907,0.0100090000778,1.0,0.0,0.0,0.0,1.0,0.0,0.0,0.0,1.0,31.4024391174,7.43902492523,47.5609779358,1.0,0.0,0.0,0.0,1.0,0.0,0.0,0.0,1.0,-1.71903679199,-0.703895288086,-9.61511445171,1.0,0.0,0.0,0.0,1.0,0.0,0.0,0.0,1.0
1463471080053150509,554,1463471080048987340,,-23.2981395721,-17.7803230286,-10.676615715,0.0100090000778,1.0,0.0,0.0,0.0,1.0,0.0,0.0,0.0,1.0,29.8780498505,4.14634132385,51.1585388184,1.0,0.0,0.0,0.0,1.0,0.0,0.0,0.0,1.0,-1.68072956543,-0.46447512207,-9.31823227681,1.0,0.0,0.0,0.0,1.0,0.0,0.0,0.0,1.0
1463471080060502213,555,1463471080058709665,,-23.0921268463,-17.6252155304,-10.6955518723,0.00997699983418,1.0,0.0,0.0,0.0,1.0,0.0,0.0,0.0,1.0,29.8170719147,2.56097555161,53.3536605835,1.0,0.0,0.0,0.0,1.0,0.0,0.0,0.0,1.0,-1.68551796875,-0.268150604204,-8.78193168945,1.0,0.0,0.0,0.0,1.0,0.0,0.0,0.0,1.0
1463471080070296830,556,1463471080068716625,,-22.8844203949,-17.5045337677,-10.6984443665,0.00999800022691,1.0,0.0,0.0,0.0,1.0,0.0,0.0,0.0,1.0,31.0975627899,1.15853655338,54.0853652954,1.0,0.0,0.0,0.0,1.0,0.0,0.0,0.0,1.0,-2.00634099121,-0.205901342773,-8.48983967144,1.0,0.0,0.0,0.0,1.0,0.0,0.0,0.0,1.0
1463471080081132434,557,1463471080078703636,,-22.6756725311,-17.402097702,-10.6894598007,0.0100119998679,1.0,0.0,0.0,0.0,1.0,0.0,0.0,0.0,1.0,33.7804870605,-0.853658556938,53.5975608826,1.0,0.0,0.0,0.0,1.0,0.0,0.0,0.0,1.0,-1.92972653809,0.15322890625,-8.18816967773,1.0,0.0,0.0,0.0,1.0,0.0,0.0,0.0,1.0
1463471080096201675,558,1463471080088696065,,-22.4603805542,-17.3372802734,-10.6842594147,0.00999599974602,1.0,0.0,0.0,0.0,1.0,0.0,0.0,0.0,1.0,38.5975608826,0.914634168148,52.4390258789,1.0,0.0,0.0,0.0,1.0,0.0,0.0,0.0,1.0,-2.37025978969,0.651222851562,-7.01979926758,1.0,0.0,0.0,0.0,1.0,0.0,0.0,0.0,1.0
1463471080100385938,559,1463471080098741670,,-22.1569061279,-17.2951984406,-10.6941547394,0.00999899953604,1.0,0.0,0.0,0.0,1.0,0.0,0.0,0.0,1.0,42.9878044128,-2.56097555161,50.7317085266,1.0,0.0,0.0,0.0,1.0,0.0,0.0,0.0,1.0,-2.1930887207,0.0814028564453,-7.42202514648,1.0,0.0,0.0,0.0,1.0,0.0,0.0,0.0,1.0
1463471080110449616,560,1463471080108830973,,-21.8201274872,-17.2550983429,-10.7295637131,0.00999699998647,1.0,0.0,0.0,0.0,1.0,0.0,0.0,0.0,1.0,44.4512176514,-0.670731723309,49.207321167,1.0,0.0,0.0,0.0,1.0,0.0,0.0,0.0,1.0,-2.26491477051,-0.143652099609,-7.12514414062,1.0,0.0,0.0,0.0,1.0,0.0,0.0,0.0,1.0
1463471080120855533,561,1463471080118650173,,-21.4491786957,-17.2597255707,-10.7966690063,0.00999699998647,1.0,0.0,0.0,0.0,1.0,0.0,0.0,0.0,1.0,46.0975646973,-1.95121955872,45.6707344055,1.0,0.0,0.0,0.0,1.0,0.0,0.0,0.0,1.0,-2.57616098633,-0.354341845703,-7.28794985352,1.0,0.0,0.0,0.0,1.0,0.0,0.0,0.0,1.0
1463471080130544160,562,1463471080128740258,,-21.0704021454,-17.2563476562,-10.9033079147,0.00999699998647,1.0,0.0,0.0,0.0,1.0,0.0,0.0,0.0,1.0,45.2439041138,-0.18292683363,42.4390258789,1.0,0.0,0.0,0.0,1.0,0.0,0.0,0.0,1.0,-2.56179577637,-0.474051928711,-7.4028715332,1.0,0.0,0.0,0.0,1.0,0.0,0.0,0.0,1.0
1463471080140976119,563,1463471080138851592,,-20.6935214996,-17.2963676453,-11.028178215,0.0101070003584,1.0,0.0,0.0,0.0,1.0,0.0,0.0,0.0,1.0,44.8780479431,2.25609779358,41.4024391174,1.0,0.0,0.0,0.0,1.0,0.0,0.0,0.0,1.0,-3.55778366699,-0.565031591797,-7.46990917969,1.0,0.0,0.0,0.0,1.0,0.0,0.0,0.0,1.0
1463471080150419070,564,1463471080148817146,,-20.3404560089,-17.2958698273,-11.1796417236,0.0099010001868,1.0,0.0,0.0,0.0,1.0,0.0,0.0,0.0,1.0,43.7195129395,4.08536577225,38.5975608826,1.0,0.0,0.0,0.0,1.0,0.0,0.0,0.0,1.0,-3.24653745117,-0.325611425781,-7.88650026855,1.0,0.0,0.0,0.0,1.0,0.0,0.0,0.0,1.0
1463471080160968841,565,1463471080159108167,,-19.9780445099,-17.271194458,-11.3919668198,0.00999899953604,1.0,0.0,0.0,0.0,1.0,0.0,0.0,0.0,1.0,41.4634170532,9.51219558716,34.8780479431,1.0,0.0,0.0,0.0,1.0,0.0,0.0,0.0,1.0,-3.45722719727,-0.593762048251,-7.87213505859,1.0,0.0,0.0,0.0,1.0,0.0,0.0,0.0,1.0
1463471080170424916,566,1463471080168768253,,-19.6432552338,-17.2298793793,-11.6127767563,0.00999800022691,1.0,0.0,0.0,0.0,1.0,0.0,0.0,0.0,1.0,38.2317085266,10.2439022064,34.2682952881,1.0,0.0,0.0,0.0,1.0,0.0,0.0,0.0,1.0,-3.4189199707,-0.679953271484,-8.23126530762,1.0,0.0,0.0,0.0,1.0,0.0,0.0,0.0,1.0
1463471080182690673,567,1463471080179515836,,-19.397190094,-17.1233863831,-11.8434638977,0.0100239999592,1.0,0.0,0.0,0.0,1.0,0.0,0.0,0.0,1.0,31.6463413239,14.3902444839,33.8414649963,1.0,0.0,0.0,0.0,1.0,0.0,0.0,0.0,1.0,-3.17471140137,-0.220266552734,-8.66222219097,1.0,0.0,0.0,0.0,1.0,0.0,0.0,0.0,1.0
1463471080191055813,568,1463471080188715245,,-19.1944942474,-16.9925079346,-12.0646743774,0.00998399965465,1.0,0.0,0.0,0.0,1.0,0.0,0.0,0.0,1.0,28.475610733,15.2439022064,34.634147644,1.0,0.0,0.0,0.0,1.0,0.0,0.0,0.0,1.0,-3.07415493164,-0.0957680664062,-9.05487067871,1.0,0.0,0.0,0.0,1.0,0.0,0.0,0.0,1.0
1463471080200319806,569,1463471080198698090,,-19.0158519745,-16.8342838287,-12.2943925858,0.00999899953604,1.0,0.0,0.0,0.0,1.0,0.0,0.0,0.0,1.0,25.6707324982,16.5853652954,34.2073173523,1.0,0.0,0.0,0.0,1.0,0.0,0.0,0.0,1.0,-2.80121594238,-0.129286889648,-9.12669672852,1.0,0.0,0.0,0.0,1.0,0.0,0.0,0.0,1.0
1463471080210256609,570,1463471080208681456,,-18.611289978,-16.6371974945,-12.5933666229,0.00999599974602,1.0,0.0,0.0,0.0,1.0,0.0,0.0,0.0,1.0,33.6585388184,19.0853652954,31.9512214661,1.0,0.0,0.0,0.0,1.0,0.0,0.0,0.0,1.0,-1.80522805176,-2.2170307373,-7.68059892578,1.0,0.0,0.0,0.0,1.0,0.0,0.0,0.0,1.0
1463471080221133203,571,1463471080218697062,,-18.4403324127,-16.4935646057,-12.8393373489,0.0100020002574,1.0,0.0,0.0,0.0,1.0,0.0,0.0,0.0,1.0,22.1951236725,15.1829271317,32.5,1.0,0.0,0.0,0.0,1.0,0.0,0.0,0.0,1.0,-2.64798703613,-0.646434448242,-9.08838950195,1.0,0.0,0.0,0.0,1.0,0.0,0.0,0.0,1.0
1463471080230319903,572,1463471080228727875,,-18.2818241119,-16.2951278687,-13.1016130447,0.0100029995665,1.0,0.0,0.0,0.0,1.0,0.0,0.0,0.0,1.0,18.841463089,18.3536586761,32.317073822,1.0,0.0,0.0,0.0,1.0,0.0,0.0,0.0,1.0,-2.17872351074,-0.948103857422,-9.12669672852,1.0,0.0,0.0,0.0,1.0,0.0,0.0,0.0,1.0
1463471080240277592,573,1463471080238725564,,-18.2301597595,-16.1110877991,-13.3240499496,0.00999800022691,1.0,0.0,0.0,0.0,1.0,0.0,0.0,0.0,1.0,10.9146347046,16.2195110321,35.0000038147,1.0,0.0,0.0,0.0,1.0,0.0,0.0,0.0,1.0,-2.28885678711,-0.699106884766,-9.39484672993,1.0,0.0,0.0,0.0,1.0,0.0,0.0,0.0,1.0
1463471080250292469,574,1463471080248692003,,-18.2450199127,-15.9071750641,-13.4989862442,0.00999699998647,1.0,0.0,0.0,0.0,1.0,0.0,0.0,0.0,1.0,2.56097555161,17.7439022064,41.1585350037,1.0,0.0,0.0,0.0,1.0,0.0,0.0,0.0,1.0,-2.31279880371,-1.2497732666,-8.86812294922,1.0,0.0,0.0,0.0,1.0,0.0,0.0,0.0,1.0
1463471080260386251,575,1463471080258747921,,-18.3791160583,-15.7172298431,-13.6284675598,0.00999899953604,1.0,0.0,0.0,0.0,1.0,0.0,0.0,0.0,1.0,-7.13414621353,16.5243911743,45.0,1.0,0.0,0.0,0.0,1.0,0.0,0.0,0.0,1.0,-2.81558115234,-1.21146604004,-9.8305920166,1.0,0.0,0.0,0.0,1.0,0.0,0.0,0.0,1.0
1463471080271057324,576,1463471080268703943,,-18.5948104858,-15.5332984924,-13.7205123901,0.0100039998069,1.0,0.0,0.0,0.0,1.0,0.0,0.0,0.0,1.0,-13.7804880142,16.0365848541,48.4756126404,1.0,0.0,0.0,0.0,1.0,0.0,0.0,0.0,1.0,-3.02627089844,-1.11569797363,-9.84016882324,1.0,0.0,0.0,0.0,1.0,0.0,0.0,0.0,1.0
1463471080280327046,577,1463471080278738611,,-18.8971576691,-15.3241348267,-13.7902116776,0.00999999977648,1.0,0.0,0.0,0.0,1.0,0.0,0.0,0.0,1.0,-18.2926826477,19.9390239716,51.0365867615,1.0,0.0,0.0,0.0,1.0,0.0,0.0,0.0,1.0,-3.54820686035,-0.407014282227,-10.165780249,1.0,0.0,0.0,0.0,1.0,0.0,0.0,0.0,1.0
1463471080291094733,578,1463471080288716352,,-19.2045269012,-15.124461174,-13.8702411652,0.00999999977648,1.0,0.0,0.0,0.0,1.0,0.0,0.0,0.0,1.0,-19.5731716156,20.7926826477,50.4878082275,1.0,0.0,0.0,0.0,1.0,0.0,0.0,0.0,1.0,-4.00310517578,-0.521935925381,-10.6637741943,1.0,0.0,0.0,0.0,1.0,0.0,0.0,0.0,1.0
1463471080300244142,579,1463471080298701697,,-19.4879665375,-14.9001293182,-13.9758558273,0.00999800022691,1.0,0.0,0.0,0.0,1.0,0.0,0.0,0.0,1.0,-19.2073173523,23.2926845551,49.207321167,1.0,0.0,0.0,0.0,1.0,0.0,0.0,0.0,1.0,-3.77326181641,-0.737414111328,-10.539275708,1.0,0.0,0.0,0.0,1.0,0.0,0.0,0.0,1.0
1463471080310291935,580,1463471080308701834,,-19.7758617401,-14.6400899887,-14.097287178,0.0100010000169,1.0,0.0,0.0,0.0,1.0,0.0,0.0,0.0,1.0,-18.2317085266,26.8902454376,48.4146347046,1.0,0.0,0.0,0.0,1.0,0.0,0.0,0.0,1.0,-3.79241542969,-0.287304199219,-10.9031943604,1.0,0.0,0.0,0.0,1.0,0.0,0.0,0.0,1.0
1463471080320305614,581,1463471080318739315,,-20.0251808167,-14.3815221786,-14.236158371,0.00999999977648,1.0,0.0,0.0,0.0,1.0,0.0,0.0,0.0,1.0,-15.2439022064,27.9878063202,47.1951255798,1.0,0.0,0.0,0.0,1.0,0.0,0.0,0.0,1.0,-3.98873996582,-0.359130249023,-11.1857101562,1.0,0.0,0.0,0.0,1.0,0.0,0.0,0.0,1.0
1463471080330307209,582,1463471080328687941,,-20.2611694336,-14.0726671219,-14.4023418427,0.0100020002574,1.0,0.0,0.0,0.0,1.0,0.0,0.0,0.0,1.0,-10.0,31.6463413239,44.5121955872,1.0,0.0,0.0,0.0,1.0,0.0,0.0,0.0,1.0,-3.49553442383,0.780509741211,-11.2623246094,1.0,0.0,0.0,0.0,1.0,0.0,0.0,0.0,1.0
1463471080341103958,583,1463471080338708390,,-20.4016304016,-13.7740955353,-14.59349823,0.00999699998647,1.0,0.0,0.0,0.0,1.0,0.0,0.0,0.0,1.0,-6.28048801422,32.134147644,43.5365867615,1.0,0.0,0.0,0.0,1.0,0.0,0.0,0.0,1.0,-3.31836350098,-0.354341845703,-10.4961800781,1.0,0.0,0.0,0.0,1.0,0.0,0.0,0.0,1.0
1463471080350224097,584,1463471080348682121,,-20.5534763336,-13.4537534714,-14.7678117752,0.0100010000169,1.0,0.0,0.0,0.0,1.0,0.0,0.0,0.0,1.0,-5.24390268326,32.0121955872,44.7560997009,1.0,0.0,0.0,0.0,1.0,0.0,0.0,0.0,1.0,-2.95923325195,0.076614453125,-10.6541973877,1.0,0.0,0.0,0.0,1.0,0.0,0.0,0.0,1.0
1463471080360313140,585,1463471080358720330,,-20.6907329559,-13.121137619,-14.9067964554,0.00999800022691,1.0,0.0,0.0,0.0,1.0,0.0,0.0,0.0,1.0,-4.81707286835,31.5853652954,48.7195129395,1.0,0.0,0.0,0.0,1.0,0.0,0.0,0.0,1.0,-2.77727392578,-0.287304199219,-10.5296989014,1.0,0.0,0.0,0.0,1.0,0.0,0.0,0.0,1.0
1463471080370230360,586,1463471080368690207,,-20.8512439728,-12.7525930405,-15.0089178085,0.00999999977648,1.0,0.0,0.0,0.0,1.0,0.0,0.0,0.0,1.0,-3.71951246262,31.2804889679,51.7682952881,1.0,0.0,0.0,0.0,1.0,0.0,0.0,0.0,1.0,-2.20266552734,0.316034619141,-10.4866032715,1.0,0.0,0.0,0.0,1.0,0.0,0.0,0.0,1.0
1463471080380339142,587,1463471080378758833,,-21.0084877014,-12.3879833221,-15.0689439774,0.00999699998647,1.0,0.0,0.0,0.0,1.0,0.0,0.0,0.0,1.0,-1.76829278469,29.6951236725,55.365852356,1.0,0.0,0.0,0.0,1.0,0.0,0.0,0.0,1.0,-2.19787712402,0.488417138672,-10.5680061279,1.0,0.0,0.0,0.0,1.0,0.0,0.0,0.0,1.0
1463471080390260686,588,1463471080388712928,,-21.1135463715,-12.0447835922,-15.10405159,0.0100079998374,1.0,0.0,0.0,0.0,1.0,0.0,0.0,0.0,1.0,1.58536589146,26.5853652954,57.3170776367,1.0,0.0,0.0,0.0,1.0,0.0,0.0,0.0,1.0,-2.04464821777,0.0239420166016,-10.3477395752,1.0,0.0,0.0,0.0,1.0,0.0,0.0,0.0,1.0
1463471080400307281,589,1463471080398743742,,-21.2167034149,-11.7193460464,-15.1157512665,0.009990000166,1.0,0.0,0.0,0.0,1.0,0.0,0.0,0.0,1.0,4.32926845551,24.817073822,58.5365867615,1.0,0.0,0.0,0.0,1.0,0.0,0.0,0.0,1.0,-2.10210891149,0.45968671875,-10.2902787354,1.0,0.0,0.0,0.0,1.0,0.0,0.0,0.0,1.0
1463471080410335386,590,1463471080408710129,,-21.2611618042,-11.4379482269,-15.1190624237,0.0100090000778,1.0,0.0,0.0,0.0,1.0,0.0,0.0,0.0,1.0,7.01219511032,23.9024391174,59.7560997009,1.0,0.0,0.0,0.0,1.0,0.0,0.0,0.0,1.0,-2.91134921875,-0.277727392578,-10.8265799072,1.0,0.0,0.0,0.0,1.0,0.0,0.0,0.0,1.0
1463471080420252346,591,1463471080418694536,,-21.2669506073,-11.2469415665,-15.136595726,0.00999800022691,1.0,0.0,0.0,0.0,1.0,0.0,0.0,0.0,1.0,9.81707286835,23.475610733,58.1707344055,1.0,0.0,0.0,0.0,1.0,0.0,0.0,0.0,1.0,-4.22337143625,-0.612915625,-9.99818613281,1.0,0.0,0.0,0.0,1.0,0.0,0.0,0.0,1.0
1463471080430549409,592,1463471080428806027,,-21.2637481689,-10.9839611053,-15.1487951279,0.0100029995665,1.0,0.0,0.0,0.0,1.0,0.0,0.0,0.0,1.0,9.14634132385,28.9634151459,61.1585350037,1.0,0.0,0.0,0.0,1.0,0.0,0.0,0.0,1.0,-4.8171340325,-1.13485158691,-12.1625444336,1.0,0.0,0.0,0.0,1.0,0.0,0.0,0.0,1.0
1463471080441013295,593,1463471080438718195,,-21.2753124237,-10.7141933441,-15.1751451492,0.00999899953604,1.0,0.0,0.0,0.0,1.0,0.0,0.0,0.0,1.0,7.43902492523,32.0121955872,60.7317085266,1.0,0.0,0.0,0.0,1.0,0.0,0.0,0.0,1.0,-5.58327827148,-1.26892687988,-12.8903817383,1.0,0.0,0.0,0.0,1.0,0.0,0.0,0.0,1.0
1463471080450275933,594,1463471080448698905,,-21.3060150146,-10.3275108337,-15.2367858887,0.0100010000169,1.0,0.0,0.0,0.0,1.0,0.0,0.0,0.0,1.0,6.15853643417,40.0,59.7560997009,1.0,0.0,0.0,0.0,1.0,0.0,0.0,0.0,1.0,-4.20900622629,-0.694318481445,-12.5551935059,1.0,0.0,0.0,0.0,1.0,0.0,0.0,0.0,1.0
1463471080460293362,595,1463471080458703469,,-21.3392524719,-9.89411735535,-15.3033657074,0.0100010000169,1.0,0.0,0.0,0.0,1.0,0.0,0.0,0.0,1.0,7.43902492523,40.4878044128,58.9634132385,1.0,0.0,0.0,0.0,1.0,0.0,0.0,0.0,1.0,-3.07894333496,-0.148440512063,-12.6078659424,1.0,0.0,0.0,0.0,1.0,0.0,0.0,0.0,1.0
1463471080471016518,596,1463471080468715324,,-21.3317432404,-9.47992134094,-15.3618812561,0.00999699998647,1.0,0.0,0.0,0.0,1.0,0.0,0.0,0.0,1.0,11.7073173523,36.8902435303,58.2317085266,1.0,0.0,0.0,0.0,1.0,0.0,0.0,0.0,1.0,-2.46123930664,-0.0861912597656,-11.9949503174,1.0,0.0,0.0,0.0,1.0,0.0,0.0,0.0,1.0
1463471080480888634,597,1463471080478710982,,-21.2754764557,-9.04418563843,-15.4307518005,0.00999199971557,1.0,0.0,0.0,0.0,1.0,0.0,0.0,0.0,1.0,15.3658533096,31.9512214661,55.182926178,1.0,0.0,0.0,0.0,1.0,0.0,0.0,0.0,1.0,-0.622492431641,-0.225054956055,-11.2335941895,1.0,0.0,0.0,0.0,1.0,0.0,0.0,0.0,1.0
1463471080490295855,598,1463471080488726379,,-21.2074718475,-8.64777565002,-15.4503307343,0.0100100003183,1.0,0.0,0.0,0.0,1.0,0.0,0.0,0.0,1.0,17.0121955872,23.8414649963,57.0731697083,1.0,0.0,0.0,0.0,1.0,0.0,0.0,0.0,1.0,0.0287304199219,-0.268150604204,-10.2615483154,1.0,0.0,0.0,0.0,1.0,0.0,0.0,0.0,1.0
1463471080500356461,599,1463471080498685631,,-21.1512489319,-8.26065921783,-15.4001598358,0.00999199971557,1.0,0.0,0.0,0.0,1.0,0.0,0.0,0.0,1.0,16.7073173523,16.7073173523,61.524394989,1.0,0.0,0.0,0.0,1.0,0.0,0.0,0.0,1.0,0.76614453125,-0.287304199219,-9.04050546875,1.0,0.0,0.0,0.0,1.0,0.0,0.0,0.0,1.0
1463471080510306285,600,1463471080508694153,,-21.1162948608,-7.91398620605,-15.2612113953,0.00999699998647,1.0,0.0,0.0,0.0,1.0,0.0,0.0,0.0,1.0,16.5243911743,7.62195110321,67.134147644,1.0,0.0,0.0,0.0,1.0,0.0,0.0,0.0,1.0,1.06781401349,-0.167594116211,-7.92959589844,1.0,0.0,0.0,0.0,1.0,0.0,0.0,0.0,1.0
1463471080520291682,601,1463471080518676477,,-21.0696640015,-7.61207437515,-15.0469408035,0.0100010000169,1.0,0.0,0.0,0.0,1.0,0.0,0.0,0.0,1.0,15.2439022064,-1.52439022064,71.9512176514,1.0,0.0,0.0,0.0,1.0,0.0,0.0,0.0,1.0,1.36948334961,-0.670376464844,-7.24485422363,1.0,0.0,0.0,0.0,1.0,0.0,0.0,0.0,1.0
1463471080531019474,602,1463471080528737551,,-21.062297821,-7.36205387115,-14.7503938675,0.0100029995665,1.0,0.0,0.0,0.0,1.0,0.0,0.0,0.0,1.0,12.4390249252,-10.1829271317,77.1951217651,1.0,0.0,0.0,0.0,1.0,0.0,0.0,0.0,1.0,1.39821376953,-0.603338854892,-6.56011254883,1.0,0.0,0.0,0.0,1.0,0.0,0.0,0.0,1.0
1463471080541091173,603,1463471080538709303,,-21.1167259216,-7.2151350975,-14.3494501114,0.0100020002574,1.0,0.0,0.0,0.0,1.0,0.0,0.0,0.0,1.0,9.20731735229,-18.3536586761,84.8170776367,1.0,0.0,0.0,0.0,1.0,0.0,0.0,0.0,1.0,0.76135612793,-0.339976635742,-6.86657036133,1.0,0.0,0.0,0.0,1.0,0.0,0.0,0.0,1.0
1463471080550288290,604,1463471080548726002,,-21.2226276398,-7.12291574478,-13.8818073273,0.00999899953604,1.0,0.0,0.0,0.0,1.0,0.0,0.0,0.0,1.0,8.84146404266,-22.7439041138,89.634147644,1.0,0.0,0.0,0.0,1.0,0.0,0.0,0.0,1.0,0.339976635742,0.201112939453,-6.56011254883,1.0,0.0,0.0,0.0,1.0,0.0,0.0,0.0,1.0
1463471080560295719,605,1463471080558662805,,-21.3311824799,-7.1441693306,-13.3747463226,0.009990000166,1.0,0.0,0.0,0.0,1.0,0.0,0.0,0.0,1.0,8.96341514587,-26.7073173523,92.3170776367,1.0,0.0,0.0,0.0,1.0,0.0,0.0,0.0,1.0,-0.77093293457,0.225054956055,-7.55610043945,1.0,0.0,0.0,0.0,1.0,0.0,0.0,0.0,1.0
1463471080570224137,606,1463471080568674140,,-21.4718437195,-7.22959375381,-12.8249731064,0.0100029995665,1.0,0.0,0.0,0.0,1.0,0.0,0.0,0.0,1.0,13.2926826477,-26.7073173523,95.8536605835,1.0,0.0,0.0,0.0,1.0,0.0,0.0,0.0,1.0,-2.00634099121,1.24498486328,-7.93917270508,1.0,0.0,0.0,0.0,1.0,0.0,0.0,0.0,1.0
1463471080580306357,607,1463471080578703391,,-21.526342392,-7.30549287796,-12.3083381653,0.0100060002878,1.0,0.0,0.0,0.0,1.0,0.0,0.0,0.0,1.0,21.6463432312,-24.5121955872,93.1707382202,1.0,0.0,0.0,0.0,1.0,0.0,0.0,0.0,1.0,-2.35110588414,1.4604630127,-9.10275471191,1.0,0.0,0.0,0.0,1.0,0.0,0.0,0.0,1.0
1463471080590992586,608,1463471080588699049,,-21.4164428711,-7.41161251068,-11.8803443909,0.0100149996579,1.0,0.0,0.0,0.0,1.0,0.0,0.0,0.0,1.0,32.9268302917,-22.5,85.0609817505,1.0,0.0,0.0,0.0,1.0,0.0,0.0,0.0,1.0,-2.88740720215,0.799663354492,-9.94072529297,1.0,0.0,0.0,0.0,1.0,0.0,0.0,0.0,1.0
1463471080600309443,609,1463471080598674707,,-21.2241210938,-7.49711799622,-11.528386116,0.00998099986464,1.0,0.0,0.0,0.0,1.0,0.0,0.0,0.0,1.0,42.0121955872,-19.6951236725,77.9878082275,1.0,0.0,0.0,0.0,1.0,0.0,0.0,0.0,1.0,-2.53306535645,1.13485158691,-9.97424411621,1.0,0.0,0.0,0.0,1.0,0.0,0.0,0.0,1.0
1463471080610432184,610,1463471080608752552,,-20.8895359039,-7.58162784576,-11.2490720749,0.0100180003792,1.0,0.0,0.0,0.0,1.0,0.0,0.0,0.0,1.0,51.1585388184,-17.6829280853,71.5243911743,1.0,0.0,0.0,0.0,1.0,0.0,0.0,0.0,1.0,-2.40377861293,0.335188232422,-10.1514150391,1.0,0.0,0.0,0.0,1.0,0.0,0.0,0.0,1.0
1463471080621239298,611,1463471080618736803,,-20.4844341278,-7.67484140396,-11.0261764526,0.00999100040644,1.0,0.0,0.0,0.0,1.0,0.0,0.0,0.0,1.0,56.8292694092,-18.7195110321,65.365852356,1.0,0.0,0.0,0.0,1.0,0.0,0.0,0.0,1.0,-1.99197578125,0.15801730957,-10.3621047852,1.0,0.0,0.0,0.0,1.0,0.0,0.0,0.0,1.0
1463471080630801884,612,1463471080628678398,,-20.0210666656,-7.7563085556,-10.8508892059,0.00998200010508,1.0,0.0,0.0,0.0,1.0,0.0,0.0,0.0,1.0,60.0609779358,-17.9878044128,60.9756088257,1.0,0.0,0.0,0.0,1.0,0.0,0.0,0.0,1.0,-1.61848032227,-0.3064578125,-10.6350437744,1.0,0.0,0.0,0.0,1.0,0.0,0.0,0.0,1.0
1463471080640959780,613,1463471080638766764,,-19.5279159546,-7.85448312759,-10.6984233856,0.0100229997188,1.0,0.0,0.0,0.0,1.0,0.0,0.0,0.0,1.0,59.5121994019,-20.1829280853,58.2317085266,1.0,0.0,0.0,0.0,1.0,0.0,0.0,0.0,1.0,-1.28329208984,-0.991199487305,-10.405200415,1.0,0.0,0.0,0.0,1.0,0.0,0.0,0.0,1.0
1463471080650707001,614,1463471080648703984,,-19.0240650177,-7.99255371094,-10.5596942902,0.00999999977648,1.0,0.0,0.0,0.0,1.0,0.0,0.0,0.0,1.0,55.6707344055,-24.1463432312,56.2804870605,1.0,0.0,0.0,0.0,1.0,0.0,0.0,0.0,1.0,-1.12527478027,-2.08295529821,-10.165780249,1.0,0.0,0.0,0.0,1.0,0.0,0.0,0.0,1.0
1463471080660340264,615,1463471080658728548,,-18.6026592255,-8.11749362946,-10.4260778427,0.00998799968511,1.0,0.0,0.0,0.0,1.0,0.0,0.0,0.0,1.0,48.0487823486,-25.9146347046,55.2439041138,1.0,0.0,0.0,0.0,1.0,0.0,0.0,0.0,1.0,-0.531512805087,-2.05901342773,-10.3908352051,1.0,0.0,0.0,0.0,1.0,0.0,0.0,0.0,1.0
1463471080671190867,616,1463471080668695091,,-18.2920398712,-8.26361846924,-10.276386261,0.00999599974602,1.0,0.0,0.0,0.0,1.0,0.0,0.0,0.0,1.0,37.7439041138,-30.2439022064,55.5487785339,1.0,0.0,0.0,0.0,1.0,0.0,0.0,0.0,1.0,-0.177170922852,-1.95845695801,-10.1178962158,1.0,0.0,0.0,0.0,1.0,0.0,0.0,0.0,1.0
1463471080681093921,617,1463471080678687572,,-18.1049442291,-8.45217227936,-10.0931930542,0.0100029995665,1.0,0.0,0.0,0.0,1.0,0.0,0.0,0.0,1.0,28.475610733,-36.0365867615,56.8902435303,1.0,0.0,0.0,0.0,1.0,0.0,0.0,0.0,1.0,-0.0622492431641,-1.43652099609,-9.82580361328,1.0,0.0,0.0,0.0,1.0,0.0,0.0,0.0,1.0
1463471080691164318,618,1463471080688686406,,-18.0249271393,-8.67728805542,-9.88781356812,0.0100050000474,1.0,0.0,0.0,0.0,1.0,0.0,0.0,0.0,1.0,21.5243911743,-40.6097564697,57.3170776367,1.0,0.0,0.0,0.0,1.0,0.0,0.0,0.0,1.0,-0.0239420166016,-0.818816967773,-9.89762966309,1.0,0.0,0.0,0.0,1.0,0.0,0.0,0.0,1.0
1463471080701277371,619,1463471080698700970,,-17.9907112122,-8.9584980011,-9.68434238434,0.00999999977648,1.0,0.0,0.0,0.0,1.0,0.0,0.0,0.0,1.0,18.2317085266,-44.2682914734,55.8536605835,1.0,0.0,0.0,0.0,1.0,0.0,0.0,0.0,1.0,-0.354341845703,-0.584185168546,-9.55286520855,1.0,0.0,0.0,0.0,1.0,0.0,0.0,0.0,1.0
1463471080710469333,620,1463471080708744753,,-17.9423065186,-9.31028556824,-9.51368045807,0.0100039998069,1.0,0.0,0.0,0.0,1.0,0.0,0.0,0.0,1.0,17.0731716156,-47.9878044128,51.7073173523,1.0,0.0,0.0,0.0,1.0,0.0,0.0,0.0,1.0,-0.775721337891,-1.03429511719,-9.83538041992,1.0,0.0,0.0,0.0,1.0,0.0,0.0,0.0,1.0
1463471080721155770,621,1463471080718665567,,-17.8962993622,-9.69325447083,-9.39145851135,0.00998799968511,1.0,0.0,0.0,0.0,1.0,0.0,0.0,0.0,1.0,17.0731716156,-50.0609779358,46.0365867615,1.0,0.0,0.0,0.0,1.0,0.0,0.0,0.0,1.0,-0.703895288086,-0.818816967773,-9.30386706685,1.0,0.0,0.0,0.0,1.0,0.0,0.0,0.0,1.0
1463471080731112834,622,1463471080728659245,,-17.8427066803,-10.1100788116,-9.31459236145,0.00999800022691,1.0,0.0,0.0,0.0,1.0,0.0,0.0,0.0,1.0,17.1951217651,-50.9146347046,41.2195129395,1.0,0.0,0.0,0.0,1.0,0.0,0.0,0.0,1.0,-0.909796630859,-0.799663354492,-9.03571706543,1.0,0.0,0.0,0.0,1.0,0.0,0.0,0.0,1.0
1463471080741246408,623,1463471080738686882,,-17.7702083588,-10.5535917282,-9.27865695953,0.00999899953604,1.0,0.0,0.0,0.0,1.0,0.0,0.0,0.0,1.0,17.7439022064,-52.2560997009,36.8902435303,1.0,0.0,0.0,0.0,1.0,0.0,0.0,0.0,1.0,-0.972045874023,-0.933738647461,-9.03092866211,1.0,0.0,0.0,0.0,1.0,0.0,0.0,0.0,1.0
1463471080750354046,624,1463471080748746966,,-17.7121276855,-11.0153865814,-9.2807636261,0.0100579997525,1.0,0.0,0.0,0.0,1.0,0.0,0.0,0.0,1.0,16.9512195587,-51.3414649963,33.2317085266,1.0,0.0,0.0,0.0,1.0,0.0,0.0,0.0,1.0,-1.21625444336,-0.694318481445,-8.69095202637,1.0,0.0,0.0,0.0,1.0,0.0,0.0,0.0,1.0
1463471080760275121,625,1463471080758668718,,-17.6275081635,-11.495347023,-9.33383750916,0.00994700007141,1.0,0.0,0.0,0.0,1.0,0.0,0.0,0.0,1.0,16.4634151459,-49.817073822,29.1463413239,1.0,0.0,0.0,0.0,1.0,0.0,0.0,0.0,1.0,-1.69509477539,-1.14921679688,-8.8633345459,1.0,0.0,0.0,0.0,1.0,0.0,0.0,0.0,1.0
1463471080771267287,626,1463471080768706146,,-17.522769928,-11.9832620621,-9.4290895462,0.00999699998647,1.0,0.0,0.0,0.0,1.0,0.0,0.0,0.0,1.0,14.9390249252,-49.1463432312,25.9146347046,1.0,0.0,0.0,0.0,1.0,0.0,0.0,0.0,1.0,-1.81001645508,-1.69988317871,-9.05008227539,1.0,0.0,0.0,0.0,1.0,0.0,0.0,0.0,1.0
1463471080780303363,627,1463471080778714043,,-17.5029125214,-12.4226579666,-9.53821563721,0.0100140003487,1.0,0.0,0.0,0.0,1.0,0.0,0.0,0.0,1.0,10.7926826477,-45.2439041138,25.0,1.0,0.0,0.0,0.0,1.0,0.0,0.0,0.0,1.0,-1.68551796875,-0.823605371094,-9.02135185547,1.0,0.0,0.0,0.0,1.0,0.0,0.0,0.0,1.0
1463471080791320685,628,1463471080788697513,,-17.524936676,-12.845741272,-9.66219329834,0.00999599974602,1.0,0.0,0.0,0.0,1.0,0.0,0.0,0.0,1.0,8.23170757294,-43.3536567688,23.7804889679,1.0,0.0,0.0,0.0,1.0,0.0,0.0,0.0,1.0,-1.84832368164,-0.502782348633,-9.4954043687,1.0,0.0,0.0,0.0,1.0,0.0,0.0,0.0,1.0
1463471080801288270,629,1463471080798730775,,-17.5294628143,-13.2457151413,-9.82923126221,0.0099950004369,1.0,0.0,0.0,0.0,1.0,0.0,0.0,0.0,1.0,8.59756088257,-40.6097564697,20.4878044128,1.0,0.0,0.0,0.0,1.0,0.0,0.0,0.0,1.0,-1.81959326172,-0.569819995117,-9.63905646831,1.0,0.0,0.0,0.0,1.0,0.0,0.0,0.0,1.0
1463471080810273253,630,1463471080808686068,,-17.4710826874,-13.6428079605,-10.0653572083,0.0100100003183,1.0,0.0,0.0,0.0,1.0,0.0,0.0,0.0,1.0,9.20731735229,-38.3536567688,15.3658533096,1.0,0.0,0.0,0.0,1.0,0.0,0.0,0.0,1.0,-1.95366855469,-1.40300217285,-10.0364933594,1.0,0.0,0.0,0.0,1.0,0.0,0.0,0.0,1.0
1463471080821140054,631,1463471080818704642,,-17.4617958069,-13.9547977448,-10.3184309006,0.00999299995601,1.0,0.0,0.0,0.0,1.0,0.0,0.0,0.0,1.0,11.0365858078,-36.4634170532,12.5609760284,1.0,0.0,0.0,0.0,1.0,0.0,0.0,0.0,1.0,-0.708683691406,0.0814028564453,-9.25119521484,1.0,0.0,0.0,0.0,1.0,0.0,0.0,0.0,1.0
1463471080830363161,632,1463471080828783842,,-17.4345817566,-14.2296972275,-10.6248931885,0.0100010000169,1.0,0.0,0.0,0.0,1.0,0.0,0.0,0.0,1.0,8.59756088257,-33.1097564697,9.08536529541,1.0,0.0,0.0,0.0,1.0,0.0,0.0,0.0,1.0,-0.541089611728,-0.493205541992,-10.9558667969,1.0,0.0,0.0,0.0,1.0,0.0,0.0,0.0,1.0
1463471080841349234,633,1463471080838850593,,-17.3393650055,-14.9969434738,-10.9463777542,0.00999899953604,1.0,0.0,0.0,0.0,1.0,0.0,0.0,0.0,1.0,6.70731735229,-42.5609779358,7.01219511032,1.0,0.0,0.0,0.0,1.0,0.0,0.0,0.0,1.0,-5.57370146484,-2.49475812988,-5.52581743164,1.0,0.0,0.0,0.0,1.0,0.0,0.0,0.0,1.0
1463471080851208694,634,1463471080848679167,,-17.2017421722,-15.4207735062,-11.3750629425,0.0100060002878,1.0,0.0,0.0,0.0,1.0,0.0,0.0,0.0,1.0,8.59756088257,-17.6829280853,4.32926845551,1.0,0.0,0.0,0.0,1.0,0.0,0.0,0.0,1.0,-4.28562126394,-2.01112939453,-6.72770666504,1.0,0.0,0.0,0.0,1.0,0.0,0.0,0.0,1.0
1463471080860414822,635,1463471080858768627,,-17.2400569916,-15.5854454041,-11.8128137589,0.0100109996274,1.0,0.0,0.0,0.0,1.0,0.0,0.0,0.0,1.0,3.84146332741,-12.2560977936,1.52439022064,1.0,0.0,0.0,0.0,1.0,0.0,0.0,0.0,1.0,-2.11168571813,0.60812722168,-10.3094323486,1.0,0.0,0.0,0.0,1.0,0.0,0.0,0.0,1.0
1463471080871555789,636,1463471080868777253,,-17.1842327118,-15.8009710312,-12.2862701416,0.00998700037599,1.0,0.0,0.0,0.0,1.0,0.0,0.0,0.0,1.0,4.51219558716,-17.1951217651,-1.40243899822,1.0,0.0,0.0,0.0,1.0,0.0,0.0,0.0,1.0,-2.08295529821,-0.995987890625,-11.1282493164,1.0,0.0,0.0,0.0,1.0,0.0,0.0,0.0,1.0
1463471080881156760,637,1463471080878690567,,-17.2642593384,-15.9211645126,-12.7787456512,0.0100100003183,1.0,0.0,0.0,0.0,1.0,0.0,0.0,0.0,1.0,1.46341466904,-3.84146332741,-2.25609779358,1.0,0.0,0.0,0.0,1.0,0.0,0.0,0.0,1.0,-2.60967980957,1.23540805664,-9.92157167969,1.0,0.0,0.0,0.0,1.0,0.0,0.0,0.0,1.0
1463471080891338772,638,1463471080888657006,,-17.2347602844,-16.0454826355,-13.3103170395,0.00998799968511,1.0,0.0,0.0,0.0,1.0,0.0,0.0,0.0,1.0,2.07317066193,-8.78048801422,-5.06097555161,1.0,0.0,0.0,0.0,1.0,0.0,0.0,0.0,1.0,-1.84832368164,-0.560243188477,-11.8704518311,1.0,0.0,0.0,0.0,1.0,0.0,0.0,0.0,1.0
1463471080901268596,639,1463471080898716726,,-17.1631717682,-16.0510406494,-13.8897628784,0.010006999597,1.0,0.0,0.0,0.0,1.0,0.0,0.0,0.0,1.0,2.13414645195,-6.34146356583,-8.10975551605,1.0,0.0,0.0,0.0,1.0,0.0,0.0,0.0,1.0,0.3064578125,-0.790086547852,-7.95353791504,1.0,0.0,0.0,0.0,1.0,0.0,0.0,0.0,1.0
1463471080910261339,640,1463471080908653634,,-17.0275726318,-16.0261325836,-14.5144634247,0.00999699998647,1.0,0.0,0.0,0.0,1.0,0.0,0.0,0.0,1.0,4.14634132385,-0.304878056049,-9.87804889679,1.0,0.0,0.0,0.0,1.0,0.0,0.0,0.0,1.0,0.0430956298828,-1.96803376465,-11.9327010742,1.0,0.0,0.0,0.0,1.0,0.0,0.0,0.0,1.0
1463471080920762204,641,1463471080918664031,,-16.9069213867,-16.1275672913,-15.1267137527,0.0099950004369,1.0,0.0,0.0,0.0,1.0,0.0,0.0,0.0,1.0,6.21951246262,-6.82926845551,-11.5853662491,1.0,0.0,0.0,0.0,1.0,0.0,0.0,0.0,1.0,-1.29286889648,-1.15879360352,-11.3149970459,1.0,0.0,0.0,0.0,1.0,0.0,0.0,0.0,1.0
1463471080930720518,642,1463471080928674532,,-16.6998176575,-16.2172164917,-15.7977495193,0.0100229997188,1.0,0.0,0.0,0.0,1.0,0.0,0.0,0.0,1.0,6.58536624908,-6.58536624908,-15.1219511032,1.0,0.0,0.0,0.0,1.0,0.0,0.0,0.0,1.0,-0.866701000977,-3.15076938477,-13.0148802246,1.0,0.0,0.0,0.0,1.0,0.0,0.0,0.0,1.0
1463471080940894977,643,1463471080938658680,,-16.5388450623,-16.3043880463,-16.470161438,0.00997199956328,1.0,0.0,0.0,0.0,1.0,0.0,0.0,0.0,1.0,7.31707334518,-6.58536624908,-17.134147644,1.0,0.0,0.0,0.0,1.0,0.0,0.0,0.0,1.0,-0.775721337891,-1.40300217285,-10.9462899902,1.0,0.0,0.0,0.0,1.0,0.0,0.0,0.0,1.0
1463471080950730635,644,1463471080948650796,,-16.3970069885,-16.4428272247,-17.1635532379,0.0100079998374,1.0,0.0,0.0,0.0,1.0,0.0,0.0,0.0,1.0,8.96341514587,-8.29268264771,-20.6707324982,1.0,0.0,0.0,0.0,1.0,0.0,0.0,0.0,1.0,-1.30723410645,-0.488417138672,-10.2136642822,1.0,0.0,0.0,0.0,1.0,0.0,0.0,0.0,1.0
1463471080960356398,645,1463471080958705203,,-16.2045211792,-16.4743690491,-17.8827209473,0.00999400019646,1.0,0.0,0.0,0.0,1.0,0.0,0.0,0.0,1.0,8.65853691101,-8.71951198578,-21.9512195587,1.0,0.0,0.0,0.0,1.0,0.0,0.0,0.0,1.0,0.890643017578,-1.42215578613,-10.1418382324,1.0,0.0,0.0,0.0,1.0,0.0,0.0,0.0,1.0
1463471080970742940,646,1463471080968653465,,-16.061132431,-16.5851669312,-18.5927333832,0.0100039998069,1.0,0.0,0.0,0.0,1.0,0.0,0.0,0.0,1.0,7.92682981491,-12.6829271317,-23.2317085266,1.0,0.0,0.0,0.0,1.0,0.0,0.0,0.0,1.0,0.0383072265625,-0.670376464844,-10.8840407471,1.0,0.0,0.0,0.0,1.0,0.0,0.0,0.0,1.0
1463471080980736931,647,1463471080978640320,,-15.9097614288,-16.7592658997,-19.3331069946,0.00999400019646,1.0,0.0,0.0,0.0,1.0,0.0,0.0,0.0,1.0,5.42682933807,-8.17073154449,-24.1463432312,1.0,0.0,0.0,0.0,1.0,0.0,0.0,0.0,1.0,-1.75734401855,-1.09654436035,-9.39005832661,1.0,0.0,0.0,0.0,1.0,0.0,0.0,0.0,1.0
1463471080990800349,648,1463471080988667957,,-15.8300504684,-16.9434719086,-20.0643043518,0.0100029995665,1.0,0.0,0.0,0.0,1.0,0.0,0.0,0.0,1.0,3.35365867615,-7.98780536652,-24.5121955872,1.0,0.0,0.0,0.0,1.0,0.0,0.0,0.0,1.0,-2.25533796387,-0.205901342773,-10.1945106689,1.0,0.0,0.0,0.0,1.0,0.0,0.0,0.0,1.0
1463471081000833038,649,1463471080998710073,,-15.7411632538,-17.1427192688,-20.80900383,0.0100060002878,1.0,0.0,0.0,0.0,1.0,0.0,0.0,0.0,1.0,2.68292689323,-9.08536529541,-25.6707324982,1.0,0.0,0.0,0.0,1.0,0.0,0.0,0.0,1.0,-2.3415290775,-0.426167895508,-10.314220752,1.0,0.0,0.0,0.0,1.0,0.0,0.0,0.0,1.0
1463471081010268123,650,1463471081008663074,,-15.6107931137,-17.3068027496,-21.5922374725,0.0099950004369,1.0,0.0,0.0,0.0,1.0,0.0,0.0,0.0,1.0,1.95121955872,-6.58536624908,-27.5609760284,1.0,0.0,0.0,0.0,1.0,0.0,0.0,0.0,1.0,-2.16435844691,-1.23061965332,-10.9941740234,1.0,0.0,0.0,0.0,1.0,0.0,0.0,0.0,1.0
1463471081020779561,651,1463471081018631388,,-15.5331544876,-17.4760551453,-22.3843345642,0.00999699998647,1.0,0.0,0.0,0.0,1.0,0.0,0.0,0.0,1.0,-1.2195122242,-5.48780488968,-28.7804889679,1.0,0.0,0.0,0.0,1.0,0.0,0.0,0.0,1.0,-2.55700737305,-0.718260498047,-11.1330377197,1.0,0.0,0.0,0.0,1.0,0.0,0.0,0.0,1.0
1463471081030727615,652,1463471081028641525,,-15.4729146957,-17.6313476562,-23.1822814941,0.0100060002878,1.0,0.0,0.0,0.0,1.0,0.0,0.0,0.0,1.0,-3.84146332741,-2.86585378647,-28.2317066193,1.0,0.0,0.0,0.0,1.0,0.0,0.0,0.0,1.0,-2.90177241211,-0.890643017578,-11.2958434326,1.0,0.0,0.0,0.0,1.0,0.0,0.0,0.0,1.0
1463471081040744054,653,1463471081038614683,,-15.4145259857,-17.7531375885,-24.0100250244,0.00998600013554,1.0,0.0,0.0,0.0,1.0,0.0,0.0,0.0,1.0,-5.91463422775,1.2195122242,-29.8170719147,1.0,0.0,0.0,0.0,1.0,0.0,0.0,0.0,1.0,-3.16992299805,-1.16358193377,-12.0476227539,1.0,0.0,0.0,0.0,1.0,0.0,0.0,0.0,1.0
1463471081051356950,654,1463471081049077683,,-15.3917999268,-17.8727264404,-24.8443470001,0.0100199999288,1.0,0.0,0.0,0.0,1.0,0.0,0.0,0.0,1.0,-9.39024448395,3.04878044128,-29.6951236725,1.0,0.0,0.0,0.0,1.0,0.0,0.0,0.0,1.0,-3.54820686035,-1.11569797363,-11.9805851074,1.0,0.0,0.0,0.0,1.0,0.0,0.0,0.0,1.0
1463471081060934952,655,1463471081059037403,,-15.4097185135,-17.9391384125,-25.6927642822,0.00998899992555,1.0,0.0,0.0,0.0,1.0,0.0,0.0,0.0,1.0,-12.8658542633,7.31707334518,-30.4878044128,1.0,0.0,0.0,0.0,1.0,0.0,0.0,0.0,1.0,-3.3470939209,-0.809240161133,-12.2152168701,1.0,0.0,0.0,0.0,1.0,0.0,0.0,0.0,1.0
1463471081070764151,656,1463471081068697020,,-15.4481182098,-17.9690856934,-26.5442047119,0.010006999597,1.0,0.0,0.0,0.0,1.0,0.0,0.0,0.0,1.0,-14.5121955872,10.7317075729,-29.8170719147,1.0,0.0,0.0,0.0,1.0,0.0,0.0,0.0,1.0,-3.43328518066,-0.699106884766,-12.631807959,1.0,0.0,0.0,0.0,1.0,0.0,0.0,0.0,1.0
1463471081080308924,657,1463471081078700073,,-15.4958028793,-17.9707603455,-27.4053096771,0.00999800022691,1.0,0.0,0.0,0.0,1.0,0.0,0.0,0.0,1.0,-15.4878053665,12.9878053665,-30.3048782349,1.0,0.0,0.0,0.0,1.0,0.0,0.0,0.0,1.0,-3.27047946777,-0.603338854892,-12.7275760254,1.0,0.0,0.0,0.0,1.0,0.0,0.0,0.0,1.0
1463471081090259999,658,1463471081088688908,,-15.5374631882,-17.9641819,-28.2693824768,0.00999999977648,1.0,0.0,0.0,0.0,1.0,0.0,0.0,0.0,1.0,-15.4878053665,14.8780498505,-29.8780498505,1.0,0.0,0.0,0.0,1.0,0.0,0.0,0.0,1.0,-3.48595761719,-0.742202514648,-12.6365963623,1.0,0.0,0.0,0.0,1.0,0.0,0.0,0.0,1.0
1463471081100510708,659,1463471081098681441,,-15.6105947495,-17.9062786102,-29.1228313446,0.0100050000474,1.0,0.0,0.0,0.0,1.0,0.0,0.0,0.0,1.0,-16.6463413239,18.841463089,-28.2317066193,1.0,0.0,0.0,0.0,1.0,0.0,0.0,0.0,1.0,-3.25132585449,-0.3064578125,-12.4785790527,1.0,0.0,0.0,0.0,1.0,0.0,0.0,0.0,1.0
1463471081111746832,660,1463471081109024337,,-15.6795444489,-17.8107891083,-29.9648094177,0.00999100040644,1.0,0.0,0.0,0.0,1.0,0.0,0.0,0.0,1.0,-15.4878053665,22.5,-26.3414649963,1.0,0.0,0.0,0.0,1.0,0.0,0.0,0.0,1.0,-3.27526787109,-0.210689746094,-12.4450602295,1.0,0.0,0.0,0.0,1.0,0.0,0.0,0.0,1.0
1463471081121166136,661,1463471081118714839,,-15.7318506241,-17.6798839569,-30.8126239777,0.00999899953604,1.0,0.0,0.0,0.0,1.0,0.0,0.0,0.0,1.0,-15.0609760284,26.0975627899,-25.4878044128,1.0,0.0,0.0,0.0,1.0,0.0,0.0,0.0,1.0,-3.14598098145,-0.488417138672,-12.0667763672,1.0,0.0,0.0,0.0,1.0,0.0,0.0,0.0,1.0
1463471081130870024,662,1463471081128696799,,-15.7691507339,-17.531047821,-31.6547813416,0.0100079998374,1.0,0.0,0.0,0.0,1.0,0.0,0.0,0.0,1.0,-13.4146347046,27.9878063202,-24.3292694092,1.0,0.0,0.0,0.0,1.0,0.0,0.0,0.0,1.0,-3.1364041748,-0.531512805087,-11.9039706543,1.0,0.0,0.0,0.0,1.0,0.0,0.0,0.0,1.0
1463471081140276568,663,1463471081138691363,,-15.8009347916,-17.3299617767,-32.4903526306,0.00999999977648,1.0,0.0,0.0,0.0,1.0,0.0,0.0,0.0,1.0,-12.8658542633,32.5,-22.4390239716,1.0,0.0,0.0,0.0,1.0,0.0,0.0,0.0,1.0,-2.74375510254,-0.555454785156,-10.8840407471,1.0,0.0,0.0,0.0,1.0,0.0,0.0,0.0,1.0
1463471081151189880,664,1463471081148700562,,-15.8399047852,-17.0979385376,-33.2977333069,0.00999899953604,1.0,0.0,0.0,0.0,1.0,0.0,0.0,0.0,1.0,-12.5,34.0853691101,-19.3292694092,1.0,0.0,0.0,0.0,1.0,0.0,0.0,0.0,1.0,-2.58573779297,-0.550666381836,-11.04684646,1.0,0.0,0.0,0.0,1.0,0.0,0.0,0.0,1.0
1463471081161865641,665,1463471081159232000,,-15.8904905319,-16.8428630829,-34.0630607605,0.00999400019646,1.0,0.0,0.0,0.0,1.0,0.0,0.0,0.0,1.0,-11.0365858078,34.817073822,-15.4878053665,1.0,0.0,0.0,0.0,1.0,0.0,0.0,0.0,1.0,-2.30322199707,-0.272938989258,-10.4482960449,1.0,0.0,0.0,0.0,1.0,0.0,0.0,0.0,1.0
1463471081171258591,666,1463471081168703440,,-15.9490451813,-16.5501308441,-34.7955551147,0.0100039998069,1.0,0.0,0.0,0.0,1.0,0.0,0.0,0.0,1.0,-10.0609760284,36.7682952881,-11.8902444839,1.0,0.0,0.0,0.0,1.0,0.0,0.0,0.0,1.0,-1.99197578125,-0.148440512063,-9.99339772949,1.0,0.0,0.0,0.0,1.0,0.0,0.0,0.0,1.0
1463471081180762375,667,1463471081178713472,,-16.0127601624,-16.2524223328,-35.4780502319,0.00998099986464,1.0,0.0,0.0,0.0,1.0,0.0,0.0,0.0,1.0,-8.04878044128,36.7073173523,-7.50000047684,1.0,0.0,0.0,0.0,1.0,0.0,0.0,0.0,1.0,-2.00634099121,0.0191536132812,-9.78749638672,1.0,0.0,0.0,0.0,1.0,0.0,0.0,0.0,1.0
1463471081190489647,668,1463471081188894182,,-16.0731277466,-15.9346761703,-36.1192550659,0.010037000291,1.0,0.0,0.0,0.0,1.0,0.0,0.0,0.0,1.0,-5.06097555161,37.5609779358,-3.23170733452,1.0,0.0,0.0,0.0,1.0,0.0,0.0,0.0,1.0,-1.93451494141,0.220266552734,-9.5193463853,1.0,0.0,0.0,0.0,1.0,0.0,0.0,0.0,1.0
1463471081200904210,669,1463471081199169735,,-16.1162776947,-15.6080532074,-36.7218170166,0.00999899953604,1.0,0.0,0.0,0.0,1.0,0.0,0.0,0.0,1.0,-2.56097555161,38.7195129395,0.731707334518,1.0,0.0,0.0,0.0,1.0,0.0,0.0,0.0,1.0,-2.03028300781,0.124498486328,-9.30865547017,1.0,0.0,0.0,0.0,1.0,0.0,0.0,0.0,1.0
1463471081211251065,670,1463471081208719195,,-16.1572113037,-15.2847156525,-37.2804946899,0.00996899977326,1.0,0.0,0.0,0.0,1.0,0.0,0.0,0.0,1.0,0.0609756112099,39.5121955872,4.75609779358,1.0,0.0,0.0,0.0,1.0,0.0,0.0,0.0,1.0,-2.26491477051,0.282515795898,-8.97346782227,1.0,0.0,0.0,0.0,1.0,0.0,0.0,0.0,1.0
1463471081221262504,671,1463471081218803603,,-16.168296814,-14.9387159348,-37.8145065308,0.0100119998679,1.0,0.0,0.0,0.0,1.0,0.0,0.0,0.0,1.0,3.96341490746,41.2804908752,7.86585378647,1.0,0.0,0.0,0.0,1.0,0.0,0.0,0.0,1.0,-2.2170307373,0.263362164351,-8.71968244629,1.0,0.0,0.0,0.0,1.0,0.0,0.0,0.0,1.0
1463471081230510038,672,1463471081228841395,,-16.1539669037,-14.5807924271,-38.3281593323,0.0100170001388,1.0,0.0,0.0,0.0,1.0,0.0,0.0,0.0,1.0,7.37804937363,43.1707305908,10.3048782349,1.0,0.0,0.0,0.0,1.0,0.0,0.0,0.0,1.0,-2.33674067418,0.258573779297,-8.56166572124,1.0,0.0,0.0,0.0,1.0,0.0,0.0,0.0,1.0
1463471081240352779,673,1463471081238699866,,-16.1203098297,-14.2170963287,-38.8186836243,0.00998099986464,1.0,0.0,0.0,0.0,1.0,0.0,0.0,0.0,1.0,10.1219511032,44.5731735229,12.6829271317,1.0,0.0,0.0,0.0,1.0,0.0,0.0,0.0,1.0,-2.51870014648,0.244208569336,-8.64306857769,1.0,0.0,0.0,0.0,1.0,0.0,0.0,0.0,1.0
1463471081252994525,674,1463471081248819898,,-16.0631217957,-13.8397521973,-39.2889213562,0.00999800022691,1.0,0.0,0.0,0.0,1.0,0.0,0.0,0.0,1.0,13.048781395,46.9512214661,15.3658533096,1.0,0.0,0.0,0.0,1.0,0.0,0.0,0.0,1.0,-2.71981308594,0.181959326172,-8.54730051128,1.0,0.0,0.0,0.0,1.0,0.0,0.0,0.0,1.0
1463471081261507530,675,1463471081259424721,,-15.9922628403,-13.4508724213,-39.7424659729,0.0100119998679,1.0,0.0,0.0,0.0,1.0,0.0,0.0,0.0,1.0,14.9390249252,49.5121955872,17.6829280853,1.0,0.0,0.0,0.0,1.0,0.0,0.0,0.0,1.0,-3.06936652832,0.124498486328,-8.74362446289,1.0,0.0,0.0,0.0,1.0,0.0,0.0,0.0,1.0
1463471081271315219,676,1463471081268688453,,-15.8969621658,-13.0380592346,-40.1980018616,0.00999299995601,1.0,0.0,0.0,0.0,1.0,0.0,0.0,0.0,1.0,16.7073173523,51.8292694092,18.0487823486,1.0,0.0,0.0,0.0,1.0,0.0,0.0,0.0,1.0,-3.18907661133,-0.0430956298828,-9.35653950337,1.0,0.0,0.0,0.0,1.0,0.0,0.0,0.0,1.0
1463471081280264264,677,1463471081278626351,,-15.7770795822,-12.6133613586,-40.6511383057,0.00998899992555,1.0,0.0,0.0,0.0,1.0,0.0,0.0,0.0,1.0,18.7195110321,54.7560997009,19.0243911743,1.0,0.0,0.0,0.0,1.0,0.0,0.0,0.0,1.0,-3.63918652344,-0.244208569336,-9.81622680664,1.0,0.0,0.0,0.0,1.0,0.0,0.0,0.0,1.0
1463471081290272995,678,1463471081288679143,,-15.6474618912,-12.1661701202,-41.1193466187,0.0100170001388,1.0,0.0,0.0,0.0,1.0,0.0,0.0,0.0,1.0,21.158536911,57.0731697083,17.6219520569,1.0,0.0,0.0,0.0,1.0,0.0,0.0,0.0,1.0,-3.80199223633,0.0383072265625,-10.539275708,1.0,0.0,0.0,0.0,1.0,0.0,0.0,0.0,1.0
1463471081301426358,679,1463471081298729488,,-15.4936914444,-11.7053394318,-41.6026725769,0.00999800022691,1.0,0.0,0.0,0.0,1.0,0.0,0.0,0.0,1.0,23.5365848541,59.207321167,16.2804889679,1.0,0.0,0.0,0.0,1.0,0.0,0.0,0.0,1.0,-3.88339509277,0.0,-10.8122146973,1.0,0.0,0.0,0.0,1.0,0.0,0.0,0.0,1.0
1463471081311196235,680,1463471081308705042,,-15.3041505814,-11.2196855545,-42.0996589661,0.00999899953604,1.0,0.0,0.0,0.0,1.0,0.0,0.0,0.0,1.0,24.8780498505,61.9512214661,15.7926826477,1.0,0.0,0.0,0.0,1.0,0.0,0.0,0.0,1.0,-3.96479794922,-0.550666381836,-11.286266626,1.0,0.0,0.0,0.0,1.0,0.0,0.0,0.0,1.0
1463471081321223924,681,1463471081318725856,,-15.1129989624,-10.7285223007,-42.6125717163,0.00999299995601,1.0,0.0,0.0,0.0,1.0,0.0,0.0,0.0,1.0,26.8292694092,62.3780517578,13.4756097794,1.0,0.0,0.0,0.0,1.0,0.0,0.0,0.0,1.0,-3.86902988281,-0.191536132812,-11.6693388916,1.0,0.0,0.0,0.0,1.0,0.0,0.0,0.0,1.0
1463471081330284479,682,1463471081328698545,,-14.8539619446,-10.2158527374,-43.1950531006,0.0100029995665,1.0,0.0,0.0,0.0,1.0,0.0,0.0,0.0,1.0,27.5609760284,62.8048782349,7.13414621353,1.0,0.0,0.0,0.0,1.0,0.0,0.0,0.0,1.0,-3.0406361084,-1.37427175293,-11.8177793945,1.0,0.0,0.0,0.0,1.0,0.0,0.0,0.0,1.0
1463471081340918729,683,1463471081338700088,,-14.6218824387,-9.72644996643,-43.7797431946,0.00999999977648,1.0,0.0,0.0,0.0,1.0,0.0,0.0,0.0,1.0,25.182926178,62.6219520569,6.34146356583,1.0,0.0,0.0,0.0,1.0,0.0,0.0,0.0,1.0,-3.28005627441,-1.43173259277,-11.3245738525,1.0,0.0,0.0,0.0,1.0,0.0,0.0,0.0,1.0
1463471081351232407,684,1463471081348709443,,-14.4538412094,-9.21789741516,-44.3428268433,0.0100050000474,1.0,0.0,0.0,0.0,1.0,0.0,0.0,0.0,1.0,18.9634151459,60.8536643982,7.74390268326,1.0,0.0,0.0,0.0,1.0,0.0,0.0,0.0,1.0,-2.67671745605,-1.64721074219,-12.0236807373,1.0,0.0,0.0,0.0,1.0,0.0,0.0,0.0,1.0
1463471081361243794,685,1463471081358692809,,-14.381064415,-8.74364757538,-44.852558136,0.00999100040644,1.0,0.0,0.0,0.0,1.0,0.0,0.0,0.0,1.0,11.7073173523,55.0,11.0365858078,1.0,0.0,0.0,0.0,1.0,0.0,0.0,0.0,1.0,-2.18351191406,-1.35511813965,-11.540052002,1.0,0.0,0.0,0.0,1.0,0.0,0.0,0.0,1.0
1463471081371461170,686,1463471081368717737,,-14.3981266022,-8.25224971771,-45.3113746643,0.0100010000169,1.0,0.0,0.0,0.0,1.0,0.0,0.0,0.0,1.0,5.0,52.9268302917,15.3048791885,1.0,0.0,0.0,0.0,1.0,0.0,0.0,0.0,1.0,-1.54186586914,-1.06781401349,-11.4299187256,1.0,0.0,0.0,0.0,1.0,0.0,0.0,0.0,1.0
1463471081380923182,687,1463471081378683239,,-14.4871139526,-7.83949565887,-45.7132759094,0.00999100040644,1.0,0.0,0.0,0.0,1.0,0.0,0.0,0.0,1.0,-0.426829278469,44.390247345,18.5975627899,1.0,0.0,0.0,0.0,1.0,0.0,0.0,0.0,1.0,-1.47003981934,-0.885854614258,-11.0276928467,1.0,0.0,0.0,0.0,1.0,0.0,0.0,0.0,1.0
1463471081390322539,688,1463471081388719678,,-14.610118866,-7.47696208954,-46.083770752,0.0100189996883,1.0,0.0,0.0,0.0,1.0,0.0,0.0,0.0,1.0,-4.45121955872,38.0487823486,20.3658542633,1.0,0.0,0.0,0.0,1.0,0.0,0.0,0.0,1.0,-1.24019645996,-1.12527478027,-10.8696755371,1.0,0.0,0.0,0.0,1.0,0.0,0.0,0.0,1.0
1463471081400315645,689,1463471081398696690,,-14.7607564926,-7.21119022369,-46.4122505188,0.0099950004369,1.0,0.0,0.0,0.0,1.0,0.0,0.0,0.0,1.0,-8.65853691101,31.158536911,22.9878044128,1.0,0.0,0.0,0.0,1.0,0.0,0.0,0.0,1.0,-1.64242233887,-1.41257897949,-9.63426806499,1.0,0.0,0.0,0.0,1.0,0.0,0.0,0.0,1.0
1463471081411167030,690,1463471081408695472,,-14.9896526337,-6.95594453812,-46.7181282043,0.00999699998647,1.0,0.0,0.0,0.0,1.0,0.0,0.0,0.0,1.0,-9.93902492523,25.3048782349,22.9268302917,1.0,0.0,0.0,0.0,1.0,0.0,0.0,0.0,1.0,-0.866701000977,-0.225054956055,-10.2088758789,1.0,0.0,0.0,0.0,1.0,0.0,0.0,0.0,1.0
1463471081421182167,691,1463471081418721650,,-15.1711969376,-6.77714347839,-47.0207099915,0.0100090000778,1.0,0.0,0.0,0.0,1.0,0.0,0.0,0.0,1.0,-8.96341514587,20.7317085266,22.5609760284,1.0,0.0,0.0,0.0,1.0,0.0,0.0,0.0,1.0,-1.31681091309,-0.933738647461,-9.91199487305,1.0,0.0,0.0,0.0,1.0,0.0,0.0,0.0,1.0
1463471081430396732,692,1463471081428676423,,-15.3668794632,-6.66285037994,-47.3139572144,0.0099849998951,1.0,0.0,0.0,0.0,1.0,0.0,0.0,0.0,1.0,-10.6097564697,16.7073173523,22.3780498505,1.0,0.0,0.0,0.0,1.0,0.0,0.0,0.0,1.0,-1.55144267578,-0.895431420898,-8.96389101563,1.0,0.0,0.0,0.0,1.0,0.0,0.0,0.0,1.0
1463471081440398900,693,1463471081438728591,,-15.6124229431,-6.58911561966,-47.5831947327,0.010006999597,1.0,0.0,0.0,0.0,1.0,0.0,0.0,0.0,1.0,-13.2317075729,12.8048782349,23.5975627899,1.0,0.0,0.0,0.0,1.0,0.0,0.0,0.0,1.0,-1.66157595215,-0.536301208408,-9.12669672852,1.0,0.0,0.0,0.0,1.0,0.0,0.0,0.0,1.0
1463471081451229348,694,1463471081448717894,,-15.8685464859,-6.52159357071,-47.8095359802,0.0100090000778,1.0,0.0,0.0,0.0,1.0,0.0,0.0,0.0,1.0,-14.2073173523,10.6707315445,27.5,1.0,0.0,0.0,0.0,1.0,0.0,0.0,0.0,1.0,-1.43652099609,-0.521935925381,-8.36055161274,1.0,0.0,0.0,0.0,1.0,0.0,0.0,0.0,1.0
1463471081461258078,695,1463471081458703396,,-16.1822280884,-6.45892953873,-47.9954833984,0.00998899992555,1.0,0.0,0.0,0.0,1.0,0.0,0.0,0.0,1.0,-15.9146347046,10.2439022064,31.0975627899,1.0,0.0,0.0,0.0,1.0,0.0,0.0,0.0,1.0,-1.64242233887,0.0861912597656,-8.63828017437,1.0,0.0,0.0,0.0,1.0,0.0,0.0,0.0,1.0
1463471081471487225,696,1463471081468726918,,-16.4876098633,-6.44377756119,-48.1531791687,0.0100039998069,1.0,0.0,0.0,0.0,1.0,0.0,0.0,0.0,1.0,-13.5975618362,6.95121955872,32.9878044128,1.0,0.0,0.0,0.0,1.0,0.0,0.0,0.0,1.0,-1.93930334473,0.292092584273,-8.52335849468,1.0,0.0,0.0,0.0,1.0,0.0,0.0,0.0,1.0
1463471081480859498,697,1463471081478665232,,-16.7067375183,-6.42147016525,-48.319065094,0.00998600013554,1.0,0.0,0.0,0.0,1.0,0.0,0.0,0.0,1.0,-9.08536529541,9.20731735229,33.2926826477,1.0,0.0,0.0,0.0,1.0,0.0,0.0,0.0,1.0,-2.09732050817,-0.316034619141,-8.31266757954,1.0,0.0,0.0,0.0,1.0,0.0,0.0,0.0,1.0
1463471081490302136,698,1463471081488720577,,-16.9040660858,-6.42217493057,-48.5005989075,0.0100140003487,1.0,0.0,0.0,0.0,1.0,0.0,0.0,0.0,1.0,-5.18292713165,7.56097555161,31.0365867615,1.0,0.0,0.0,0.0,1.0,0.0,0.0,0.0,1.0,-2.25533796387,0.00957680664062,-8.90164177246,1.0,0.0,0.0,0.0,1.0,0.0,0.0,0.0,1.0
1463471081500388314,699,1463471081498698213,,-17.0522270203,-6.40116739273,-48.7005233765,0.0100010000169,1.0,0.0,0.0,0.0,1.0,0.0,0.0,0.0,1.0,-1.40243899822,9.45121955872,29.8170719147,1.0,0.0,0.0,0.0,1.0,0.0,0.0,0.0,1.0,-2.04464821777,-0.100556469727,-8.58081933452,1.0,0.0,0.0,0.0,1.0,0.0,0.0,0.0,1.0
1463471081511191835,700,1463471081508707152,,-17.1696224213,-6.38223552704,-48.9078063965,0.0100010000169,1.0,0.0,0.0,0.0,1.0,0.0,0.0,0.0,1.0,1.03658533096,10.6707315445,29.5121974945,1.0,0.0,0.0,0.0,1.0,0.0,0.0,0.0,1.0,-2.30801040039,-0.191536132812,-8.84418093262,1.0,0.0,0.0,0.0,1.0,0.0,0.0,0.0,1.0
1463471081521222180,701,1463471081518707237,,-17.2973308563,-6.35807609558,-49.0908889771,0.00999199971557,1.0,0.0,0.0,0.0,1.0,0.0,0.0,0.0,1.0,1.52439022064,10.3048782349,31.7682914734,1.0,0.0,0.0,0.0,1.0,0.0,0.0,0.0,1.0,-2.26491477051,0.0430956298828,-8.82023891602,1.0,0.0,0.0,0.0,1.0,0.0,0.0,0.0,1.0
1463471081530271381,702,1463471081528691072,,-17.4406776428,-6.30322313309,-49.249168396,0.0100020002574,1.0,0.0,0.0,0.0,1.0,0.0,0.0,0.0,1.0,0.670731723309,13.7804880142,35.4268302917,1.0,0.0,0.0,0.0,1.0,0.0,0.0,0.0,1.0,-2.56658417969,0.114921679688,-9.10754311523,1.0,0.0,0.0,0.0,1.0,0.0,0.0,0.0,1.0
1463471081540900267,703,1463471081538677146,,-17.5653953552,-6.22632074356,-49.3851127625,0.0099950004369,1.0,0.0,0.0,0.0,1.0,0.0,0.0,0.0,1.0,2.37804889679,13.1707324982,37.6219520569,1.0,0.0,0.0,0.0,1.0,0.0,0.0,0.0,1.0,-2.29364519043,0.100556469727,-9.58159562847,1.0,0.0,0.0,0.0,1.0,0.0,0.0,0.0,1.0
1463471081551299882,704,1463471081548713741,,-17.6629161835,-6.1208524704,-49.5222320557,0.0100119998679,1.0,0.0,0.0,0.0,1.0,0.0,0.0,0.0,1.0,2.62195134163,15.6097564697,38.5975608826,1.0,0.0,0.0,0.0,1.0,0.0,0.0,0.0,1.0,-2.23139594727,-0.335188232422,-9.62469125835,1.0,0.0,0.0,0.0,1.0,0.0,0.0,0.0,1.0
1463471081561259394,705,1463471081558695284,,-17.745344162,-6.02417135239,-49.6366500854,0.00999599974602,1.0,0.0,0.0,0.0,1.0,0.0,0.0,0.0,1.0,3.17073178291,13.5975618362,40.4268302917,1.0,0.0,0.0,0.0,1.0,0.0,0.0,0.0,1.0,-2.27449157715,-0.569819995117,-10.3573163818,1.0,0.0,0.0,0.0,1.0,0.0,0.0,0.0,1.0
1463471081571427290,706,1463471081568689900,,-17.8341217041,-5.91289710999,-49.7426147461,0.0100039998069,1.0,0.0,0.0,0.0,1.0,0.0,0.0,0.0,1.0,2.31707310677,13.7804880142,41.4024391174,1.0,0.0,0.0,0.0,1.0,0.0,0.0,0.0,1.0,-1.98718737793,-0.584185168546,-9.96466730957,1.0,0.0,0.0,0.0,1.0,0.0,0.0,0.0,1.0
1463471081580280867,707,1463471081578663995,,-17.9282608032,-5.79892110825,-49.8424987793,0.0099849998951,1.0,0.0,0.0,0.0,1.0,0.0,0.0,0.0,1.0,1.95121955872,13.658536911,41.9512214661,1.0,0.0,0.0,0.0,1.0,0.0,0.0,0.0,1.0,-2.02549460449,-0.569819995117,-10.5009684814,1.0,0.0,0.0,0.0,1.0,0.0,0.0,0.0,1.0
1463471081590354806,708,1463471081588676111,,-18.0207939148,-5.6992058754,-49.9215240479,0.0100050000474,1.0,0.0,0.0,0.0,1.0,0.0,0.0,0.0,1.0,0.914634168148,11.5243911743,43.5975608826,1.0,0.0,0.0,0.0,1.0,0.0,0.0,0.0,1.0,-1.97761057129,-0.842758984375,-10.4818148682,1.0,0.0,0.0,0.0,1.0,0.0,0.0,0.0,1.0
1463471081601188587,709,1463471081598722237,,-18.1353759766,-5.59309434891,-49.9748382568,0.0100060002878,1.0,0.0,0.0,0.0,1.0,0.0,0.0,0.0,1.0,-0.853658556938,10.8536586761,46.0365867615,1.0,0.0,0.0,0.0,1.0,0.0,0.0,0.0,1.0,-1.83395847168,-0.77093293457,-10.3381627686,1.0,0.0,0.0,0.0,1.0,0.0,0.0,0.0,1.0
1463471081611121224,710,1463471081608666801,,-18.2751789093,-5.49825239182,-50.009349823,0.0099950004369,1.0,0.0,0.0,0.0,1.0,0.0,0.0,0.0,1.0,-2.92682933807,9.63414573669,47.5609779358,1.0,0.0,0.0,0.0,1.0,0.0,0.0,0.0,1.0,-1.92493813477,-0.708683691406,-10.4866032715,1.0,0.0,0.0,0.0,1.0,0.0,0.0,0.0,1.0
1463471081621084381,711,1463471081618660011,,-18.4340782166,-5.41756439209,-50.0206375122,0.00999999977648,1.0,0.0,0.0,0.0,1.0,0.0,0.0,0.0,1.0,-4.39024400711,7.86585378647,49.390247345,1.0,0.0,0.0,0.0,1.0,0.0,0.0,0.0,1.0,-1.93930334473,-0.632069238281,-10.3237975586,1.0,0.0,0.0,0.0,1.0,0.0,0.0,0.0,1.0
1463471081630305822,712,1463471081628621919,,-18.6074638367,-5.34132385254,-50.0091667175,0.0099950004369,1.0,0.0,0.0,0.0,1.0,0.0,0.0,0.0,1.0,-5.24390268326,7.56097555161,51.6463432312,1.0,0.0,0.0,0.0,1.0,0.0,0.0,0.0,1.0,-2.14999323695,-0.550666381836,-10.6063133545,1.0,0.0,0.0,0.0,1.0,0.0,0.0,0.0,1.0
1463471081640335594,713,1463471081638644607,,-18.7788906097,-5.28212356567,-49.9951553345,0.00999999977648,1.0,0.0,0.0,0.0,1.0,0.0,0.0,0.0,1.0,-5.67073154449,7.43902492523,51.9512214661,1.0,0.0,0.0,0.0,1.0,0.0,0.0,0.0,1.0,-2.39899020961,-0.660799658203,-10.3094323486,1.0,0.0,0.0,0.0,1.0,0.0,0.0,0.0,1.0
1463471081651125260,714,1463471081648650525,,-18.9319114685,-5.20438814163,-49.9901123047,0.0100100003183,1.0,0.0,0.0,0.0,1.0,0.0,0.0,0.0,1.0,-4.63414621353,7.07317113876,50.9756088257,1.0,0.0,0.0,0.0,1.0,0.0,0.0,0.0,1.0,-1.86747729492,-0.723048901367,-10.0939541992,1.0,0.0,0.0,0.0,1.0,0.0,0.0,0.0,1.0
1463471081661175345,715,1463471081658670766,,-19.0996227264,-5.13977718353,-49.9847564697,0.00999299995601,1.0,0.0,0.0,0.0,1.0,0.0,0.0,0.0,1.0,-5.0,7.80487823486,51.1585388184,1.0,0.0,0.0,0.0,1.0,0.0,0.0,0.0,1.0,-2.26970317383,-0.507570751953,-10.2136642822,1.0,0.0,0.0,0.0,1.0,0.0,0.0,0.0,1.0
1463471081671430377,716,1463471081668747309,,-19.2496623993,-5.07351779938,-49.9804420471,0.0100060002878,1.0,0.0,0.0,0.0,1.0,0.0,0.0,0.0,1.0,-4.02439022064,7.50000047684,51.0365867615,1.0,0.0,0.0,0.0,1.0,0.0,0.0,0.0,1.0,-2.14041643031,-0.622492431641,-10.1035310059,1.0,0.0,0.0,0.0,1.0,0.0,0.0,0.0,1.0
1463471081680287651,717,1463471081678674009,,-19.4151229858,-5.01955032349,-49.9799575806,0.00999100040644,1.0,0.0,0.0,0.0,1.0,0.0,0.0,0.0,1.0,-3.59756112099,8.29268264771,50.7317085266,1.0,0.0,0.0,0.0,1.0,0.0,0.0,0.0,1.0,-2.41814367676,-0.220266552734,-9.79707319336,1.0,0.0,0.0,0.0,1.0,0.0,0.0,0.0,1.0
1463471081690282319,718,1463471081688695916,,-19.5765151978,-4.97197628021,-49.9738197327,0.0100060002878,1.0,0.0,0.0,0.0,1.0,0.0,0.0,0.0,1.0,-3.90243911743,9.08536529541,51.7073173523,1.0,0.0,0.0,0.0,1.0,0.0,0.0,0.0,1.0,-2.74854350586,-0.373495458984,-9.87368764648,1.0,0.0,0.0,0.0,1.0,0.0,0.0,0.0,1.0
1463471081700275581,719,1463471081698681105,,-19.7327651978,-4.89104890823,-49.9668159485,0.00999400019646,1.0,0.0,0.0,0.0,1.0,0.0,0.0,0.0,1.0,-3.29268312454,10.3048782349,52.2560997009,1.0,0.0,0.0,0.0,1.0,0.0,0.0,0.0,1.0,-2.35110588414,-0.287304199219,-9.82101520996,1.0,0.0,0.0,0.0,1.0,0.0,0.0,0.0,1.0
1463471081711151966,720,1463471081708688429,,-19.9037380219,-4.79977846146,-49.9649658203,0.0100050000474,1.0,0.0,0.0,0.0,1.0,0.0,0.0,0.0,1.0,-3.59756112099,11.2195119858,51.9512214661,1.0,0.0,0.0,0.0,1.0,0.0,0.0,0.0,1.0,-2.26012636719,-0.0287304199219,-9.66778688823,1.0,0.0,0.0,0.0,1.0,0.0,0.0,0.0,1.0
1463471081721150801,721,1463471081718709868,,-20.0651741028,-4.71200752258,-49.9550514221,0.0100010000169,1.0,0.0,0.0,0.0,1.0,0.0,0.0,0.0,1.0,-3.17073178291,11.341463089,52.9268302917,1.0,0.0,0.0,0.0,1.0,0.0,0.0,0.0,1.0,-2.39420180629,-0.119710083008,-9.69651672363,1.0,0.0,0.0,0.0,1.0,0.0,0.0,0.0,1.0
1463471081730413908,722,1463471081728759744,,-20.2282238007,-4.59691858292,-49.9378852844,0.0100330002606,1.0,0.0,0.0,0.0,1.0,0.0,0.0,0.0,1.0,-4.39024400711,12.0731716156,54.0853652954,1.0,0.0,0.0,0.0,1.0,0.0,0.0,0.0,1.0,-2.09253210485,-0.287304199219,-9.74440075684,1.0,0.0,0.0,0.0,1.0,0.0,0.0,0.0,1.0
1463471081740914356,723,1463471081738673267,,-20.4037418365,-4.46458959579,-49.9122924805,0.00996199995279,1.0,0.0,0.0,0.0,1.0,0.0,0.0,0.0,1.0,-5.48780488968,13.2317075729,55.4268302917,1.0,0.0,0.0,0.0,1.0,0.0,0.0,0.0,1.0,-2.04464821777,-0.215478149414,-9.82101520996,1.0,0.0,0.0,0.0,1.0,0.0,0.0,0.0,1.0
1463471081750407931,724,1463471081748721893,,-20.5847187042,-4.3506937027,-49.8596572876,0.0100140003487,1.0,0.0,0.0,0.0,1.0,0.0,0.0,0.0,1.0,-6.34146356583,11.2804880142,57.6219482422,1.0,0.0,0.0,0.0,1.0,0.0,0.0,0.0,1.0,-2.18830031738,-0.31124621582,-9.86889924316,1.0,0.0,0.0,0.0,1.0,0.0,0.0,0.0,1.0
1463471081760269943,725,1463471081758676874,,-20.7791824341,-4.20507049561,-49.7864532471,0.0099849998951,1.0,0.0,0.0,0.0,1.0,0.0,0.0,0.0,1.0,-7.98780536652,11.8902444839,60.1219520569,1.0,0.0,0.0,0.0,1.0,0.0,0.0,0.0,1.0,-1.74297880859,-0.31124621582,-9.28950185688,1.0,0.0,0.0,0.0,1.0,0.0,0.0,0.0,1.0
1463471081771464609,726,1463471081768719979,,-20.9872760773,-4.06035137177,-49.6933364868,0.010006999597,1.0,0.0,0.0,0.0,1.0,0.0,0.0,0.0,1.0,-10.6707315445,11.2804880142,62.134147644,1.0,0.0,0.0,0.0,1.0,0.0,0.0,0.0,1.0,-1.8626888916,-0.579396801758,-9.80186159668,1.0,0.0,0.0,0.0,1.0,0.0,0.0,0.0,1.0
1463471081780370477,727,1463471081778687460,,-21.216878891,-3.93134999275,-49.5677719116,0.0100010000169,1.0,0.0,0.0,0.0,1.0,0.0,0.0,0.0,1.0,-13.048781395,9.87804889679,65.1219558716,1.0,0.0,0.0,0.0,1.0,0.0,0.0,0.0,1.0,-2.05901342773,-0.636857641602,-9.66778688823,1.0,0.0,0.0,0.0,1.0,0.0,0.0,0.0,1.0
1463471081790302020,728,1463471081788704680,,-21.469461441,-3.78986334801,-49.4252929688,0.0100029995665,1.0,0.0,0.0,0.0,1.0,0.0,0.0,0.0,1.0,-16.2804889679,11.0365858078,67.5,1.0,0.0,0.0,0.0,1.0,0.0,0.0,0.0,1.0,-2.25533796387,-0.833182177734,-10.046070166,1.0,0.0,0.0,0.0,1.0,0.0,0.0,0.0,1.0
1463471081800986739,729,1463471081798697160,,-21.7589874268,-3.64909243584,-49.2560920715,0.00999999977648,1.0,0.0,0.0,0.0,1.0,0.0,0.0,0.0,1.0,-19.3902435303,10.9756097794,70.3658599854,1.0,0.0,0.0,0.0,1.0,0.0,0.0,0.0,1.0,-2.4756045166,-0.723048901367,-10.1562034424,1.0,0.0,0.0,0.0,1.0,0.0,0.0,0.0,1.0
