%time,field.header.seq,field.header.stamp,field.header.frame_id,field.orientation.x,field.orientation.y,field.orientation.z,field.orientation.w,field.orientation_covariance0,field.orientation_covariance1,field.orientation_covariance2,field.orientation_covariance3,field.orientation_covariance4,field.orientation_covariance5,field.orientation_covariance6,field.orientation_covariance7,field.orientation_covariance8,field.angular_velocity.x,field.angular_velocity.y,field.angular_velocity.z,field.angular_velocity_covariance0,field.angular_velocity_covariance1,field.angular_velocity_covariance2,field.angular_velocity_covariance3,field.angular_velocity_covariance4,field.angular_velocity_covariance5,field.angular_velocity_covariance6,field.angular_velocity_covariance7,field.angular_velocity_covariance8,field.linear_acceleration.x,field.linear_acceleration.y,field.linear_acceleration.z,field.linear_acceleration_covariance0,field.linear_acceleration_covariance1,field.linear_acceleration_covariance2,field.linear_acceleration_covariance3,field.linear_acceleration_covariance4,field.linear_acceleration_covariance5,field.linear_acceleration_covariance6,field.linear_acceleration_covariance7,field.linear_acceleration_covariance8
1463750815440057062,174,1463750815272903038,,-0.433210641146,-12.3580541611,-10.8561134338,0.0200619995594,1.0,0.0,0.0,0.0,1.0,0.0,0.0,0.0,1.0,2.19512200356,-0.365853667259,-0.304878056049,1.0,0.0,0.0,0.0,1.0,0.0,0.0,0.0,1.0,-0.689530078125,0.373495458984,-10.2088758789,1.0,0.0,0.0,0.0,1.0,0.0,0.0,0.0,1.0
1463750815440098469,175,1463750815288785626,,-0.437348157167,-12.1560401917,-10.8475799561,0.0199330002069,1.0,0.0,0.0,0.0,1.0,0.0,0.0,0.0,1.0,1.95121955872,-0.304878056049,-0.0609756112099,1.0,0.0,0.0,0.0,1.0,0.0,0.0,0.0,1.0,-0.718260498047,0.383072265625,-10.2950671387,1.0,0.0,0.0,0.0,1.0,0.0,0.0,0.0,1.0
1463750815440136489,176,1463750815307562837,,-0.428423494101,-11.9685020447,-10.845615387,0.0199979990721,1.0,0.0,0.0,0.0,1.0,0.0,0.0,0.0,1.0,2.19512200356,-0.304878056049,-0.304878056049,1.0,0.0,0.0,0.0,1.0,0.0,0.0,0.0,1.0,-0.809240161133,0.316034619141,-10.1514150391,1.0,0.0,0.0,0.0,1.0,0.0,0.0,0.0,1.0
1463750815440172114,177,1463750815329329619,,-0.419002681971,-11.7805433273,-10.8420372009,0.0202639997005,1.0,0.0,0.0,0.0,1.0,0.0,0.0,0.0,1.0,2.31707310677,-0.487804889679,-0.243902444839,1.0,0.0,0.0,0.0,1.0,0.0,0.0,0.0,1.0,-0.76135612793,0.330399829102,-10.1562034424,1.0,0.0,0.0,0.0,1.0,0.0,0.0,0.0,1.0
1463750815440282687,178,1463750815347687926,,-0.404779195786,-11.59852314,-10.836271286,0.0197400003672,1.0,0.0,0.0,0.0,1.0,0.0,0.0,0.0,1.0,2.56097555161,-0.853658556938,-0.12195122242,1.0,0.0,0.0,0.0,1.0,0.0,0.0,0.0,1.0,-0.689530078125,0.330399829102,-10.4243540283,1.0,0.0,0.0,0.0,1.0,0.0,0.0,0.0,1.0
1463750815440331905,179,1463750815367713830,,-0.396981716156,-11.4151697159,-10.8309602737,0.0199779998511,1.0,0.0,0.0,0.0,1.0,0.0,0.0,0.0,1.0,2.13414645195,-0.548780500889,-0.12195122242,1.0,0.0,0.0,0.0,1.0,0.0,0.0,0.0,1.0,-0.699106884766,0.301669427446,-10.1178962158,1.0,0.0,0.0,0.0,1.0,0.0,0.0,0.0,1.0
1463750815440376019,180,1463750815390159255,,-0.377462148666,-11.2086906433,-10.8288908005,0.0214000009,1.0,0.0,0.0,0.0,1.0,0.0,0.0,0.0,1.0,2.13414645195,-0.18292683363,-0.18292683363,1.0,0.0,0.0,0.0,1.0,0.0,0.0,0.0,1.0,-0.646434448242,0.210689746094,-10.1035310059,1.0,0.0,0.0,0.0,1.0,0.0,0.0,0.0,1.0
1463750815440472634,181,1463750815409027195,,-0.367166191339,-11.04301548,-10.8275938034,0.018612999469,1.0,0.0,0.0,0.0,1.0,0.0,0.0,0.0,1.0,1.95121955872,-0.365853667259,-0.243902444839,1.0,0.0,0.0,0.0,1.0,0.0,0.0,0.0,1.0,-0.708683691406,0.239420166016,-10.0652237793,1.0,0.0,0.0,0.0,1.0,0.0,0.0,0.0,1.0
1463750815440523310,182,1463750815428194353,,-0.35960355401,-10.8583593369,-10.8239269257,0.020005999133,1.0,0.0,0.0,0.0,1.0,0.0,0.0,0.0,1.0,2.07317066193,-0.243902444839,-0.18292683363,1.0,0.0,0.0,0.0,1.0,0.0,0.0,0.0,1.0,-0.641646044922,0.287304199219,-10.060435376,1.0,0.0,0.0,0.0,1.0,0.0,0.0,0.0,1.0
1463750815453442526,183,1463750815449975406,,-0.348079383373,-10.6841259003,-10.8151044846,0.0199790000916,1.0,0.0,0.0,0.0,1.0,0.0,0.0,0.0,1.0,2.07317066193,-0.304878056049,0.12195122242,1.0,0.0,0.0,0.0,1.0,0.0,0.0,0.0,1.0,-0.699106884766,0.244208569336,-10.1897222656,1.0,0.0,0.0,0.0,1.0,0.0,0.0,0.0,1.0
1463750815470012924,184,1463750815468535587,,-0.339166074991,-10.5154485703,-10.8075370789,0.0199979990721,1.0,0.0,0.0,0.0,1.0,0.0,0.0,0.0,1.0,2.25609779358,-0.426829278469,-0.0,1.0,0.0,0.0,0.0,1.0,0.0,0.0,0.0,1.0,-0.684741674805,0.296881024126,-10.0125513428,1.0,0.0,0.0,0.0,1.0,0.0,0.0,0.0,1.0
1463750815488039722,185,1463750815485984158,,-0.338521003723,-10.3568964005,-10.7953987122,0.0199970006943,1.0,0.0,0.0,0.0,1.0,0.0,0.0,0.0,1.0,2.13414645195,-0.365853667259,0.18292683363,1.0,0.0,0.0,0.0,1.0,0.0,0.0,0.0,1.0,-0.76614453125,0.344765039063,-10.1370498291,1.0,0.0,0.0,0.0,1.0,0.0,0.0,0.0,1.0
1463750815507942710,186,1463750815506037405,,-0.337684571743,-10.2019681931,-10.7945861816,0.0200020000339,1.0,0.0,0.0,0.0,1.0,0.0,0.0,0.0,1.0,2.01219511032,-0.548780500889,-0.365853667259,1.0,0.0,0.0,0.0,1.0,0.0,0.0,0.0,1.0,-0.727837304687,0.335188232422,-10.0125513428,1.0,0.0,0.0,0.0,1.0,0.0,0.0,0.0,1.0
1463750815528167884,187,1463750815526011330,,-0.328741163015,-10.0462999344,-10.7878875732,0.0199979990721,1.0,0.0,0.0,0.0,1.0,0.0,0.0,0.0,1.0,2.07317066193,-0.487804889679,-0.0,1.0,0.0,0.0,0.0,1.0,0.0,0.0,0.0,1.0,-0.718260498047,0.268150604204,-10.1945106689,1.0,0.0,0.0,0.0,1.0,0.0,0.0,0.0,1.0
1463750815548318891,188,1463750815545766767,,-0.322826564312,-9.88934707642,-10.7833538055,0.019999999553,1.0,0.0,0.0,0.0,1.0,0.0,0.0,0.0,1.0,2.01219511032,-0.304878056049,-0.12195122242,1.0,0.0,0.0,0.0,1.0,0.0,0.0,0.0,1.0,-0.713472094727,0.287304199219,-10.2184526855,1.0,0.0,0.0,0.0,1.0,0.0,0.0,0.0,1.0
1463750815567489903,189,1463750815565819441,,-0.311573296785,-9.73325920105,-10.7779541016,0.0200219992548,1.0,0.0,0.0,0.0,1.0,0.0,0.0,0.0,1.0,2.19512200356,-0.365853667259,-0.0609756112099,1.0,0.0,0.0,0.0,1.0,0.0,0.0,0.0,1.0,-0.679953271484,0.268150604204,-10.165780249,1.0,0.0,0.0,0.0,1.0,0.0,0.0,0.0,1.0
1463750815588087523,190,1463750815586252948,,-0.296338379383,-9.58474731445,-10.7781238556,0.019991999492,1.0,0.0,0.0,0.0,1.0,0.0,0.0,0.0,1.0,2.19512200356,-0.12195122242,-0.304878056049,1.0,0.0,0.0,0.0,1.0,0.0,0.0,0.0,1.0,-0.76614453125,0.239420166016,-10.2136642822,1.0,0.0,0.0,0.0,1.0,0.0,0.0,0.0,1.0
1463750815610799093,191,1463750815608789258,,-0.289295464754,-9.43962478638,-10.7707614899,0.0200050007552,1.0,0.0,0.0,0.0,1.0,0.0,0.0,0.0,1.0,1.8902438879,-0.304878056049,0.0609756112099,1.0,0.0,0.0,0.0,1.0,0.0,0.0,0.0,1.0,-0.737414111328,0.244208569336,-10.2040874756,1.0,0.0,0.0,0.0,1.0,0.0,0.0,0.0,1.0
1463750815628141988,192,1463750815626054653,,-0.281815111637,-9.2957239151,-10.7669200897,0.0199849996716,1.0,0.0,0.0,0.0,1.0,0.0,0.0,0.0,1.0,1.95121955872,-0.426829278469,-0.12195122242,1.0,0.0,0.0,0.0,1.0,0.0,0.0,0.0,1.0,-0.694318481445,0.253785375977,-10.1418382324,1.0,0.0,0.0,0.0,1.0,0.0,0.0,0.0,1.0
1463750815648454609,193,1463750815645796391,,-0.275357216597,-9.15283298492,-10.7678070068,0.0200040005147,1.0,0.0,0.0,0.0,1.0,0.0,0.0,0.0,1.0,1.95121955872,-0.0609756112099,-0.365853667259,1.0,0.0,0.0,0.0,1.0,0.0,0.0,0.0,1.0,-0.756567724609,0.272938989258,-10.299855542,1.0,0.0,0.0,0.0,1.0,0.0,0.0,0.0,1.0
1463750815668007650,194,1463750815665964378,,-0.264576137066,-9.01633167267,-10.7686271667,0.0200020000339,1.0,0.0,0.0,0.0,1.0,0.0,0.0,0.0,1.0,2.19512200356,-0.365853667259,-0.365853667259,1.0,0.0,0.0,0.0,1.0,0.0,0.0,0.0,1.0,-0.723048901367,0.272938989258,-10.1609918457,1.0,0.0,0.0,0.0,1.0,0.0,0.0,0.0,1.0
1463750815688271314,195,1463750815686166375,,-0.256812781096,-8.88437080383,-10.7609863281,0.0200089998543,1.0,0.0,0.0,0.0,1.0,0.0,0.0,0.0,1.0,2.07317066193,-0.365853667259,0.0609756112099,1.0,0.0,0.0,0.0,1.0,0.0,0.0,0.0,1.0,-0.751779321289,0.268150604204,-10.314220752,1.0,0.0,0.0,0.0,1.0,0.0,0.0,0.0,1.0
1463750815708396228,196,1463750815706637850,,-0.254768282175,-8.75395393372,-10.7523527145,0.0199890006334,1.0,0.0,0.0,0.0,1.0,0.0,0.0,0.0,1.0,2.13414645195,-0.12195122242,0.0609756112099,1.0,0.0,0.0,0.0,1.0,0.0,0.0,0.0,1.0,-0.775721337891,0.325611425781,-10.1897222656,1.0,0.0,0.0,0.0,1.0,0.0,0.0,0.0,1.0
1463750815729361451,197,1463750815725849799,,-0.249813079834,-8.62772750854,-10.7538394928,0.0199909992516,1.0,0.0,0.0,0.0,1.0,0.0,0.0,0.0,1.0,2.13414645195,-0.365853667259,-0.426829278469,1.0,0.0,0.0,0.0,1.0,0.0,0.0,0.0,1.0,-0.742202514648,0.31124621582,-10.1418382324,1.0,0.0,0.0,0.0,1.0,0.0,0.0,0.0,1.0
1463750815748258141,198,1463750815746071483,,-0.24969792366,-8.50375747681,-10.7474308014,0.0200020000339,1.0,0.0,0.0,0.0,1.0,0.0,0.0,0.0,1.0,2.13414645195,-0.426829278469,-0.0609756112099,1.0,0.0,0.0,0.0,1.0,0.0,0.0,0.0,1.0,-0.732625708008,0.344765039063,-10.180145459,1.0,0.0,0.0,0.0,1.0,0.0,0.0,0.0,1.0
1463750815769177530,199,1463750815765838065,,-0.382324129343,-8.35574626923,-10.7357149124,0.020005999133,1.0,0.0,0.0,0.0,1.0,0.0,0.0,0.0,1.0,1.8292683363,0.12195122242,-0.731707334518,1.0,0.0,0.0,0.0,1.0,0.0,0.0,0.0,1.0,-0.536301208408,1.38863696289,-9.38526992329,1.0,0.0,0.0,0.0,1.0,0.0,0.0,0.0,1.0
1463750815787970419,200,1463750815785929334,,-0.603809118271,-8.27085494995,-10.4713182449,0.019991999492,1.0,0.0,0.0,0.0,1.0,0.0,0.0,0.0,1.0,-5.36585378647,11.341463089,12.5609760284,1.0,0.0,0.0,0.0,1.0,0.0,0.0,0.0,1.0,-5.56891306152,1.20667770978,-17.2621939697,1.0,0.0,0.0,0.0,1.0,0.0,0.0,0.0,1.0
1463750815807729345,201,1463750815805777374,,-0.884342312813,-7.36236524582,-10.5738811493,0.0200229994953,1.0,0.0,0.0,0.0,1.0,0.0,0.0,0.0,1.0,-1.8292683363,6.64634132385,-6.82926845551,1.0,0.0,0.0,0.0,1.0,0.0,0.0,0.0,1.0,6.39251843262,2.75333190918,-9.69172832031,1.0,0.0,0.0,0.0,1.0,0.0,0.0,0.0,1.0
1463750815829506908,202,1463750815825955569,,-0.689143896103,-7.47377252579,-10.2980852127,0.0200180001557,1.0,0.0,0.0,0.0,1.0,0.0,0.0,0.0,1.0,-7.37804937363,11.7073173523,16.2804889679,1.0,0.0,0.0,0.0,1.0,0.0,0.0,0.0,1.0,-6.4595560791,-4.69742336497,-11.7172229248,1.0,0.0,0.0,0.0,1.0,0.0,0.0,0.0,1.0
1463750815850288017,203,1463750815847917715,,-0.639005184174,-7.65334844589,-10.2762174606,0.0199609994888,1.0,0.0,0.0,0.0,1.0,0.0,0.0,0.0,1.0,2.07317066193,-16.6463413239,0.914634168148,1.0,0.0,0.0,0.0,1.0,0.0,0.0,0.0,1.0,-0.45968671875,-0.0814028564453,-13.5799118164,1.0,0.0,0.0,0.0,1.0,0.0,0.0,0.0,1.0
1463750815869989339,204,1463750815868089451,,-0.633782982826,-8.4160490036,-10.334900856,0.0200050007552,1.0,0.0,0.0,0.0,1.0,0.0,0.0,0.0,1.0,6.52439069748,-14.4512205124,-4.02439022064,1.0,0.0,0.0,0.0,1.0,0.0,0.0,0.0,1.0,-3.96479794922,0.837970581055,-5.67425793457,1.0,0.0,0.0,0.0,1.0,0.0,0.0,0.0,1.0
1463750815887802961,205,1463750815885788438,,-0.419680267572,-8.39105129242,-10.2673454285,0.0199960004538,1.0,0.0,0.0,0.0,1.0,0.0,0.0,0.0,1.0,7.80487823486,25.3048782349,4.08536577225,1.0,0.0,0.0,0.0,1.0,0.0,0.0,0.0,1.0,-8.3270327895,-0.842758984375,-11.4490723389,1.0,0.0,0.0,0.0,1.0,0.0,0.0,0.0,1.0
1463750815911659577,206,1463750815905767936,,-0.515976369381,-8.66899299622,-10.1106805801,0.0199989993125,1.0,0.0,0.0,0.0,1.0,0.0,0.0,0.0,1.0,-0.792682945728,-0.548780500889,7.25609779358,1.0,0.0,0.0,0.0,1.0,0.0,0.0,0.0,1.0,-6.6702458252,0.809240161133,-14.7195518066,1.0,0.0,0.0,0.0,1.0,0.0,0.0,0.0,1.0
1463750815928383725,207,1463750815925814934,,-0.402519613504,-7.84458255768,-10.3344726562,0.0200040005147,1.0,0.0,0.0,0.0,1.0,0.0,0.0,0.0,1.0,7.86585378647,-2.01219511032,-11.7682924271,1.0,0.0,0.0,0.0,1.0,0.0,0.0,0.0,1.0,9.37569311665,1.02471831055,-11.9566430908,1.0,0.0,0.0,0.0,1.0,0.0,0.0,0.0,1.0
1463750815951989665,208,1463750815945905004,,-0.057418692857,-7.7053437233,-10.3898067474,0.0200009997934,1.0,0.0,0.0,0.0,1.0,0.0,0.0,0.0,1.0,5.12195110321,4.45121955872,-1.15853655338,1.0,0.0,0.0,0.0,1.0,0.0,0.0,0.0,1.0,-1.14921679688,-1.90099611816,-8.76756647949,1.0,0.0,0.0,0.0,1.0,0.0,0.0,0.0,1.0
1463750815967891941,209,1463750815965935127,,0.0921707376838,-8.12813854218,-10.010933876,0.019991999492,1.0,0.0,0.0,0.0,1.0,0.0,0.0,0.0,1.0,14.8780498505,-36.5243911743,18.0487823486,1.0,0.0,0.0,0.0,1.0,0.0,0.0,0.0,1.0,2.07816689489,1.61369191895,-20.4847894043,1.0,0.0,0.0,0.0,1.0,0.0,0.0,0.0,1.0
1463750815987816648,210,1463750815985858948,,-0.606724083424,-8.70063304901,-10.0141992569,0.0200050007552,1.0,0.0,0.0,0.0,1.0,0.0,0.0,0.0,1.0,-17.2560977936,-61.1585350037,-2.86585378647,1.0,0.0,0.0,0.0,1.0,0.0,0.0,0.0,1.0,4.85065256348,3.55299526367,-9.89762966309,1.0,0.0,0.0,0.0,1.0,0.0,0.0,0.0,1.0
1463750816020582914,211,1463750816005815164,,-0.907684803009,-7.89112663269,-10.0479125977,0.0199989993125,1.0,0.0,0.0,0.0,1.0,0.0,0.0,0.0,1.0,10.3048782349,11.7073173523,-5.42682933807,1.0,0.0,0.0,0.0,1.0,0.0,0.0,0.0,1.0,3.18907661133,4.16591059641,-7.44117875977,1.0,0.0,0.0,0.0,1.0,0.0,0.0,0.0,1.0
1463750816028467724,212,1463750816025793412,,-1.12879359722,-7.9581451416,-10.1590452194,0.0200120005757,1.0,0.0,0.0,0.0,1.0,0.0,0.0,0.0,1.0,6.28048801422,5.67073154449,-7.98780536652,1.0,0.0,0.0,0.0,1.0,0.0,0.0,0.0,1.0,-7.0006456543,7.18260498047,-19.4169754639,1.0,0.0,0.0,0.0,1.0,0.0,0.0,0.0,1.0
1463750816048577742,213,1463750816045794837,,-1.15981078148,-9.27191448212,-10.2187623978,0.0199929997325,1.0,0.0,0.0,0.0,1.0,0.0,0.0,0.0,1.0,-4.08536577225,-47.6219520569,-3.65853667259,1.0,0.0,0.0,0.0,1.0,0.0,0.0,0.0,1.0,-6.32069238281,-0.359130249023,-11.4586491455,1.0,0.0,0.0,0.0,1.0,0.0,0.0,0.0,1.0
1463750816068838853,214,1463750816065989074,,-1.85466992855,-9.14692687988,-10.1948671341,0.019991999492,1.0,0.0,0.0,0.0,1.0,0.0,0.0,0.0,1.0,-16.2804889679,23.0487823486,-1.34146344662,1.0,0.0,0.0,0.0,1.0,0.0,0.0,0.0,1.0,-9.61032604839,6.83783994141,-16.5822406982,1.0,0.0,0.0,0.0,1.0,0.0,0.0,0.0,1.0
1463750816088438457,215,1463750816085896385,,-1.85579633713,-9.34749317169,-9.96881580353,0.0200050007552,1.0,0.0,0.0,0.0,1.0,0.0,0.0,0.0,1.0,1.15853655338,-40.7926826477,9.93902492523,1.0,0.0,0.0,0.0,1.0,0.0,0.0,0.0,1.0,2.9927520752,0.100556469727,-7.90565388184,1.0,0.0,0.0,0.0,1.0,0.0,0.0,0.0,1.0
1463750816107730041,216,1463750816105754373,,-2.00510334969,-8.2047624588,-10.0744915009,0.0199929997325,1.0,0.0,0.0,0.0,1.0,0.0,0.0,0.0,1.0,-7.62195110321,69.634147644,-2.98780488968,1.0,0.0,0.0,0.0,1.0,0.0,0.0,0.0,1.0,-11.1090957031,0.9193734375,-24.7943523926,1.0,0.0,0.0,0.0,1.0,0.0,0.0,0.0,1.0
1463750816127772976,217,1463750816125890484,,-2.21343398094,-9.4215631485,-9.62680244446,0.0200050007552,1.0,0.0,0.0,0.0,1.0,0.0,0.0,0.0,1.0,3.96341490746,-59.390247345,18.3536586761,1.0,0.0,0.0,0.0,1.0,0.0,0.0,0.0,1.0,-6.18661708984,6.32548078613,-27.2316496826,1.0,0.0,0.0,0.0,1.0,0.0,0.0,0.0,1.0
1463750816147855338,218,1463750816145802378,,-2.40058732033,-9.4499912262,-9.6592130661,0.0200020000339,1.0,0.0,0.0,0.0,1.0,0.0,0.0,0.0,1.0,4.02439022064,-44.817073822,-5.60975599289,1.0,0.0,0.0,0.0,1.0,0.0,0.0,0.0,1.0,4.20900622629,1.8148048584,-5.07570751953,1.0,0.0,0.0,0.0,1.0,0.0,0.0,0.0,1.0
1463750816167986867,219,1463750816166072917,,-2.26715040207,-9.64111804962,-9.83404541016,0.0200020000339,1.0,0.0,0.0,0.0,1.0,0.0,0.0,0.0,1.0,-0.487804889679,-11.2195119858,-8.10975551605,1.0,0.0,0.0,0.0,1.0,0.0,0.0,0.0,1.0,-1.60890351563,-0.660799658203,-9.4954043687,1.0,0.0,0.0,0.0,1.0,0.0,0.0,0.0,1.0
1463750816188228187,220,1463750816185765645,,-2.49684643745,-8.996052742,-9.92120933533,0.0199960004538,1.0,0.0,0.0,0.0,1.0,0.0,0.0,0.0,1.0,-11.341463089,5.54878091812,-4.14634132385,1.0,0.0,0.0,0.0,1.0,0.0,0.0,0.0,1.0,3.29442148437,0.541089611728,-11.3006318359,1.0,0.0,0.0,0.0,1.0,0.0,0.0,0.0,1.0
1463750816207786957,221,1463750816205897434,,-2.79285931587,-8.46480751038,-9.99559402466,0.020005999133,1.0,0.0,0.0,0.0,1.0,0.0,0.0,0.0,1.0,-13.5975618362,-9.08536529541,-4.2682929039,1.0,0.0,0.0,0.0,1.0,0.0,0.0,0.0,1.0,4.87459458008,0.665588061523,-9.37569311665,1.0,0.0,0.0,0.0,1.0,0.0,0.0,0.0,1.0
1463750816229824311,222,1463750816225772141,,-3.21478247643,-7.84695339203,-10.0402002335,0.0199939999729,1.0,0.0,0.0,0.0,1.0,0.0,0.0,0.0,1.0,-9.02439117432,1.76829278469,-3.84146332741,1.0,0.0,0.0,0.0,1.0,0.0,0.0,0.0,1.0,1.61848032227,1.19710090314,-4.18027580637,1.0,0.0,0.0,0.0,1.0,0.0,0.0,0.0,1.0
1463750816247845744,223,1463750816246154085,,-3.58198785782,-7.23318338394,-10.1297016144,0.0200089998543,1.0,0.0,0.0,0.0,1.0,0.0,0.0,0.0,1.0,-12.7439022064,0.792682945728,-5.12195110321,1.0,0.0,0.0,0.0,1.0,0.0,0.0,0.0,1.0,4.18985261301,1.74297880859,-10.3094323486,1.0,0.0,0.0,0.0,1.0,0.0,0.0,0.0,1.0
1463750816268042533,224,1463750816265757803,,-3.30712747574,-7.19179821014,-10.3735437393,0.0199909992516,1.0,0.0,0.0,0.0,1.0,0.0,0.0,0.0,1.0,-9.75609779358,-4.81707286835,-9.5731716156,1.0,0.0,0.0,0.0,1.0,0.0,0.0,0.0,1.0,-0.3064578125,-4.65432773508,-12.8808049316,1.0,0.0,0.0,0.0,1.0,0.0,0.0,0.0,1.0
1463750816288228436,225,1463750816285829488,,-4.28608989716,-6.93506002426,-10.4471940994,0.0199979990721,1.0,0.0,0.0,0.0,1.0,0.0,0.0,0.0,1.0,-17.5609760284,-0.914634168148,-7.62195110321,1.0,0.0,0.0,0.0,1.0,0.0,0.0,0.0,1.0,1.13485158691,6.19619389648,-8.06367119141,1.0,0.0,0.0,0.0,1.0,0.0,0.0,0.0,1.0
1463750816310200946,226,1463750816305770028,,-4.31062650681,-6.14728498459,-10.7297277451,0.0200009997934,1.0,0.0,0.0,0.0,1.0,0.0,0.0,0.0,1.0,-13.2317075729,7.86585378647,-12.1341466904,1.0,0.0,0.0,0.0,1.0,0.0,0.0,0.0,1.0,4.8793829834,-1.41736738281,-10.1035310059,1.0,0.0,0.0,0.0,1.0,0.0,0.0,0.0,1.0
1463750816330149559,227,1463750816325770776,,-4.2099032402,-5.33439207077,-11.0846529007,0.019999999553,1.0,0.0,0.0,0.0,1.0,0.0,0.0,0.0,1.0,-18.841463089,12.6219520569,-14.3292694092,1.0,0.0,0.0,0.0,1.0,0.0,0.0,0.0,1.0,3.07894333496,-2.65277543945,-6.7660138916,1.0,0.0,0.0,0.0,1.0,0.0,0.0,0.0,1.0
1463750816349019947,228,1463750816346000585,,-5.00938796997,-4.16913795471,-11.3545475006,0.0200079996139,1.0,0.0,0.0,0.0,1.0,0.0,0.0,0.0,1.0,-11.8292684555,9.81707286835,-15.0609760284,1.0,0.0,0.0,0.0,1.0,0.0,0.0,0.0,1.0,8.5042048814,5.50666381836,-2.39420180629,1.0,0.0,0.0,0.0,1.0,0.0,0.0,0.0,1.0
1463750816369542880,229,1463750816365771490,,-5.42384910583,-3.59077000618,-11.7138566971,0.019999999553,1.0,0.0,0.0,0.0,1.0,0.0,0.0,0.0,1.0,-15.2439022064,15.4878053665,-16.9512195587,1.0,0.0,0.0,0.0,1.0,0.0,0.0,0.0,1.0,1.59453830566,2.00155258789,-9.84016882324,1.0,0.0,0.0,0.0,1.0,0.0,0.0,0.0,1.0
1463750816388245769,230,1463750816385773696,,-5.97367572784,-3.20657801628,-12.1669979095,0.0199960004538,1.0,0.0,0.0,0.0,1.0,0.0,0.0,0.0,1.0,-7.80487823486,-0.731707334518,-23.9634151459,1.0,0.0,0.0,0.0,1.0,0.0,0.0,0.0,1.0,4.0557776123,6.00465776367,-11.3245738525,1.0,0.0,0.0,0.0,1.0,0.0,0.0,0.0,1.0
1463750816409208544,231,1463750816405770955,,-6.28295373917,-2.68273901939,-12.7452945709,0.0199979990721,1.0,0.0,0.0,0.0,1.0,0.0,0.0,0.0,1.0,0.548780500889,10.9756097794,-28.7195110321,1.0,0.0,0.0,0.0,1.0,0.0,0.0,0.0,1.0,2.46123930664,4.15633378977,-9.29907866352,1.0,0.0,0.0,0.0,1.0,0.0,0.0,0.0,1.0
1463750816428088620,232,1463750816425788421,,-6.18071317673,-2.14823794365,-13.4722442627,0.0200040005147,1.0,0.0,0.0,0.0,1.0,0.0,0.0,0.0,1.0,3.59756112099,9.93902492523,-35.3658561707,1.0,0.0,0.0,0.0,1.0,0.0,0.0,0.0,1.0,3.62482131348,1.25935007324,-12.2056400635,1.0,0.0,0.0,0.0,1.0,0.0,0.0,0.0,1.0
1463750816450159098,233,1463750816446359218,,-5.97192668915,-1.87796938419,-14.1891098022,0.0200789999217,1.0,0.0,0.0,0.0,1.0,0.0,0.0,0.0,1.0,1.2804877758,-1.8292683363,-35.7317085266,1.0,0.0,0.0,0.0,1.0,0.0,0.0,0.0,1.0,3.62003291016,-0.579396801758,-13.2495119873,1.0,0.0,0.0,0.0,1.0,0.0,0.0,0.0,1.0
1463750816468336416,234,1463750816465804865,,-5.24908876419,-1.642988801,-14.9407062531,0.0199229996651,1.0,0.0,0.0,0.0,1.0,0.0,0.0,0.0,1.0,15.7926826477,18.1097564697,-35.3658561707,1.0,0.0,0.0,0.0,1.0,0.0,0.0,0.0,1.0,-1.94409174805,-4.16591059641,-16.0267870821,1.0,0.0,0.0,0.0,1.0,0.0,0.0,0.0,1.0
1463750816487151336,235,1463750816485867018,,-5.14208126068,-1.31893610954,-15.6482496262,0.0199929997325,1.0,0.0,0.0,0.0,1.0,0.0,0.0,0.0,1.0,1.46341466904,-3.47560977936,-35.7317085266,1.0,0.0,0.0,0.0,1.0,0.0,0.0,0.0,1.0,5.02782348633,0.392649072266,-13.8911580322,1.0,0.0,0.0,0.0,1.0,0.0,0.0,0.0,1.0
1463750816507620727,236,1463750816505911568,,-5.36644220352,-0.750808298588,-16.3480758667,0.019999999553,1.0,0.0,0.0,0.0,1.0,0.0,0.0,0.0,1.0,22.5609760284,-15.6707315445,-37.2560958862,1.0,0.0,0.0,0.0,1.0,0.0,0.0,0.0,1.0,5.11401474609,3.82593425293,0.272938989258,1.0,0.0,0.0,0.0,1.0,0.0,0.0,0.0,1.0
1463750816527176790,237,1463750816525808618,,-5.01790237427,-1.21174871922,-17.5198383331,0.0199979990721,1.0,0.0,0.0,0.0,1.0,0.0,0.0,0.0,1.0,20.9146347046,3.35365867615,-58.4756126404,1.0,0.0,0.0,0.0,1.0,0.0,0.0,0.0,1.0,-4.40054265137,1.63284553223,-9.34217429341,1.0,0.0,0.0,0.0,1.0,0.0,0.0,0.0,1.0
1463750816547834149,238,1463750816546013949,,-4.94111633301,-1.91246914864,-18.8604354858,0.0200020000339,1.0,0.0,0.0,0.0,1.0,0.0,0.0,0.0,1.0,15.3658533096,-11.8292684555,-68.5365905762,1.0,0.0,0.0,0.0,1.0,0.0,0.0,0.0,1.0,-6.13873305664,5.20499440918,-14.9398183594,1.0,0.0,0.0,0.0,1.0,0.0,0.0,0.0,1.0
1463750816568036094,239,1463750816565807302,,-4.22273254395,-2.51287698746,-19.9392375946,0.019999999553,1.0,0.0,0.0,0.0,1.0,0.0,0.0,0.0,1.0,23.9024391174,-32.9268302917,-56.4024429321,1.0,0.0,0.0,0.0,1.0,0.0,0.0,0.0,1.0,0.732625708008,-1.22104284668,-12.4354834229,1.0,0.0,0.0,0.0,1.0,0.0,0.0,0.0,1.0
1463750816587243199,240,1463750816585885497,,-3.71377229691,-2.90148162842,-21.0728607178,0.0199979990721,1.0,0.0,0.0,0.0,1.0,0.0,0.0,0.0,1.0,10.7926826477,-22.3170719147,-57.8048820496,1.0,0.0,0.0,0.0,1.0,0.0,0.0,0.0,1.0,0.660799658203,-2.40856701625,-16.2518408691,1.0,0.0,0.0,0.0,1.0,0.0,0.0,0.0,1.0
1463750816607190614,241,1463750816605895516,,-3.23443841934,-3.45265436172,-22.2941970825,0.0199970006943,1.0,0.0,0.0,0.0,1.0,0.0,0.0,0.0,1.0,12.3780488968,-34.0853691101,-62.8048782349,1.0,0.0,0.0,0.0,1.0,0.0,0.0,0.0,1.0,1.40300217285,-1.32159931641,-14.8584155029,1.0,0.0,0.0,0.0,1.0,0.0,0.0,0.0,1.0
1463750816627050008,242,1463750816625721681,,-2.74312901497,-3.31123375893,-23.4921188354,0.019999999553,1.0,0.0,0.0,0.0,1.0,0.0,0.0,0.0,1.0,20.975610733,-20.4878044128,-61.0975608826,1.0,0.0,0.0,0.0,1.0,0.0,0.0,0.0,1.0,6.27280834961,0.584185168546,-12.3971761963,1.0,0.0,0.0,0.0,1.0,0.0,0.0,0.0,1.0
1463750816647250287,243,1463750816645867220,,-1.9239500761,-3.1487262249,-24.6531200409,0.0200040005147,1.0,0.0,0.0,0.0,1.0,0.0,0.0,0.0,1.0,18.2317085266,-7.19512224197,-57.3170776367,1.0,0.0,0.0,0.0,1.0,0.0,0.0,0.0,1.0,4.28083286062,-5.93762011719,-17.865531619,1.0,0.0,0.0,0.0,1.0,0.0,0.0,0.0,1.0
1463750816667858532,244,1463750816665797812,,-1.7477543354,-2.49250388145,-25.7642192841,0.0200020000339,1.0,0.0,0.0,0.0,1.0,0.0,0.0,0.0,1.0,4.51219558716,3.41463422775,-55.4268302917,1.0,0.0,0.0,0.0,1.0,0.0,0.0,0.0,1.0,4.66869294504,-0.0526724365234,-8.89685336914,1.0,0.0,0.0,0.0,1.0,0.0,0.0,0.0,1.0
1463750816687378032,245,1463750816685720591,,-1.82998204231,-1.02889347076,-27.0674762726,0.0199960004538,1.0,0.0,0.0,0.0,1.0,0.0,0.0,0.0,1.0,6.28048801422,24.5121955872,-65.0,1.0,0.0,0.0,0.0,1.0,0.0,0.0,0.0,1.0,7.15866296387,1.93930334473,-4.26167924734,1.0,0.0,0.0,0.0,1.0,0.0,0.0,0.0,1.0
1463750816707980808,246,1463750816705701756,,-1.61277115345,1.20818257332,-28.187915802,0.019999999553,1.0,0.0,0.0,0.0,1.0,0.0,0.0,0.0,1.0,-0.853658556938,87.0121994019,-53.3536605835,1.0,0.0,0.0,0.0,1.0,0.0,0.0,0.0,1.0,7.55131203613,-3.40455476074,-16.189592795,1.0,0.0,0.0,0.0,1.0,0.0,0.0,0.0,1.0
1463750816727150830,247,1463750816725808076,,-1.75389802456,1.33202075958,-29.2967243195,0.0200030002743,1.0,0.0,0.0,0.0,1.0,0.0,0.0,0.0,1.0,-7.98780536652,-5.36585378647,-55.7317085266,1.0,0.0,0.0,0.0,1.0,0.0,0.0,0.0,1.0,1.54665427246,-0.129286889648,-6.98149204102,1.0,0.0,0.0,0.0,1.0,0.0,0.0,0.0,1.0
1463750816749953546,248,1463750816745832990,,-1.61822426319,1.87747263908,-30.5070991516,0.0200020000339,1.0,0.0,0.0,0.0,1.0,0.0,0.0,0.0,1.0,4.39024400711,6.46341466904,-60.5487823486,1.0,0.0,0.0,0.0,1.0,0.0,0.0,0.0,1.0,3.77326181641,-0.507570751953,-9.07402429199,1.0,0.0,0.0,0.0,1.0,0.0,0.0,0.0,1.0
1463750816768966381,249,1463750816765807124,,-1.26100981236,3.20739245415,-31.7346630096,0.0200159996748,1.0,0.0,0.0,0.0,1.0,0.0,0.0,0.0,1.0,13.4756097794,56.7073173523,-60.2439041138,1.0,0.0,0.0,0.0,1.0,0.0,0.0,0.0,1.0,2.27927998047,-1.23540805664,-11.4203419189,1.0,0.0,0.0,0.0,1.0,0.0,0.0,0.0,1.0
1463750816788875723,250,1463750816785786621,,-0.886382460594,3.97989630699,-32.7405471802,0.0199820008129,1.0,0.0,0.0,0.0,1.0,0.0,0.0,0.0,1.0,4.69512224197,22.8658542633,-50.9756088257,1.0,0.0,0.0,0.0,1.0,0.0,0.0,0.0,1.0,6.22971271973,-5.8705824707,-18.1911453829,1.0,0.0,0.0,0.0,1.0,0.0,0.0,0.0,1.0
1463750816808069547,251,1463750816805851900,,-0.734726667404,4.30264472961,-33.8291244507,0.0200009997934,1.0,0.0,0.0,0.0,1.0,0.0,0.0,0.0,1.0,8.04878044128,15.975610733,-54.4512214661,1.0,0.0,0.0,0.0,1.0,0.0,0.0,0.0,1.0,0.847547387695,-0.92416184082,-17.1712154757,1.0,0.0,0.0,0.0,1.0,0.0,0.0,0.0,1.0
1463750816828226492,252,1463750816825797336,,-1.5854640007,5.78324222565,-34.973487854,0.0200009997934,1.0,0.0,0.0,0.0,1.0,0.0,0.0,0.0,1.0,-22.9268302917,30.0609760284,-55.1219520569,1.0,0.0,0.0,0.0,1.0,0.0,0.0,0.0,1.0,18.9285583252,6.07169541016,-12.6940572021,1.0,0.0,0.0,0.0,1.0,0.0,0.0,0.0,1.0
1463750816848529322,253,1463750816845901677,,-1.00152468681,6.21458721161,-35.91223526,0.0200020000339,1.0,0.0,0.0,0.0,1.0,0.0,0.0,0.0,1.0,22.0731716156,21.6463432312,-47.5609779358,1.0,0.0,0.0,0.0,1.0,0.0,0.0,0.0,1.0,1.22583125,-2.98796367187,-15.0164328125,1.0,0.0,0.0,0.0,1.0,0.0,0.0,0.0,1.0
1463750816868991630,254,1463750816865934300,,-1.79637730122,8.59033203125,-36.9221496582,0.0200009997934,1.0,0.0,0.0,0.0,1.0,0.0,0.0,0.0,1.0,-24.6951236725,74.8780441284,-47.1951255798,1.0,0.0,0.0,0.0,1.0,0.0,0.0,0.0,1.0,21.0115137695,3.9121255127,-13.8624276123,1.0,0.0,0.0,0.0,1.0,0.0,0.0,0.0,1.0
1463750816890004561,255,1463750816887310927,,-1.33462524414,8.74149608612,-37.6466140747,0.019999999553,1.0,0.0,0.0,0.0,1.0,0.0,0.0,0.0,1.0,10.9756097794,33.2317085266,-37.6219520569,1.0,0.0,0.0,0.0,1.0,0.0,0.0,0.0,1.0,-5.2097828125,-4.46758029785,-13.5607582031,1.0,0.0,0.0,0.0,1.0,0.0,0.0,0.0,1.0
1463750816908144275,256,1463750816905804025,,-1.4218338728,10.9201593399,-38.7748146057,0.0199989993125,1.0,0.0,0.0,0.0,1.0,0.0,0.0,0.0,1.0,-5.12195110321,76.4024353027,-55.5487785339,1.0,0.0,0.0,0.0,1.0,0.0,0.0,0.0,1.0,13.0005150146,-3.3949779541,-13.6373726562,1.0,0.0,0.0,0.0,1.0,0.0,0.0,0.0,1.0
1463750816927364818,257,1463750816925802065,,-1.53977715969,10.817032814,-39.6912345886,0.0199939999729,1.0,0.0,0.0,0.0,1.0,0.0,0.0,0.0,1.0,23.5975627899,-3.17073178291,-41.2195129395,1.0,0.0,0.0,0.0,1.0,0.0,0.0,0.0,1.0,2.06380183105,6.44997927246,-15.1122008789,1.0,0.0,0.0,0.0,1.0,0.0,0.0,0.0,1.0
1463750816947270202,258,1463750816945822500,,-1.63362252712,12.0146102905,-40.8371620178,0.0200030002743,1.0,0.0,0.0,0.0,1.0,0.0,0.0,0.0,1.0,20.6097564697,28.3536586761,-52.8658561707,1.0,0.0,0.0,0.0,1.0,0.0,0.0,0.0,1.0,8.53293530132,3.23696064453,-8.40843564595,1.0,0.0,0.0,0.0,1.0,0.0,0.0,0.0,1.0
1463750816967341106,259,1463750816965823508,,-0.772342860699,12.2192134857,-41.4103469849,0.0200009997934,1.0,0.0,0.0,0.0,1.0,0.0,0.0,0.0,1.0,39.6951217651,-0.243902444839,-30.3048782349,1.0,0.0,0.0,0.0,1.0,0.0,0.0,0.0,1.0,8.63828017437,-3.64876333008,-22.1463653564,1.0,0.0,0.0,0.0,1.0,0.0,0.0,0.0,1.0
1463750816988323672,260,1463750816985826235,,0.186361551285,12.4155883789,-42.3580589294,0.0199989993125,1.0,0.0,0.0,0.0,1.0,0.0,0.0,0.0,1.0,34.0853691101,30.8536605835,-51.4024391174,1.0,0.0,0.0,0.0,1.0,0.0,0.0,0.0,1.0,-5.88973608398,-11.3772462891,-23.1615068604,1.0,0.0,0.0,0.0,1.0,0.0,0.0,0.0,1.0
1463750817007286247,261,1463750817005813754,,0.862565815449,10.848400116,-43.3281936646,0.0200009997934,1.0,0.0,0.0,0.0,1.0,0.0,0.0,0.0,1.0,27.7439041138,-65.2439041138,-50.5487785339,1.0,0.0,0.0,0.0,1.0,0.0,0.0,0.0,1.0,-2.08295529821,-8.5042048814,-27.1646120361,1.0,0.0,0.0,0.0,1.0,0.0,0.0,0.0,1.0
1463750817027417099,262,1463750817025809554,,0.669141292572,11.4269371033,-44.5667076111,0.0199989993125,1.0,0.0,0.0,0.0,1.0,0.0,0.0,0.0,1.0,-3.7804877758,43.7195129395,-62.8048782349,1.0,0.0,0.0,0.0,1.0,0.0,0.0,0.0,1.0,-1.97761057129,-2.03985981445,-15.1409312988,1.0,0.0,0.0,0.0,1.0,0.0,0.0,0.0,1.0
1463750817047289201,263,1463750817045831864,,1.18608152866,11.9948549271,-45.3848571777,0.0200040005147,1.0,0.0,0.0,0.0,1.0,0.0,0.0,0.0,1.0,12.0121955872,25.7926845551,-45.2439041138,1.0,0.0,0.0,0.0,1.0,0.0,0.0,0.0,1.0,3.33751711426,-7.79073220215,-16.6301247314,1.0,0.0,0.0,0.0,1.0,0.0,0.0,0.0,1.0
1463750817067300626,264,1463750817065827560,,1.17932164669,12.0559549332,-46.7004318237,0.0199960004538,1.0,0.0,0.0,0.0,1.0,0.0,0.0,0.0,1.0,-8.5365858078,50.7926826477,-70.3658599854,1.0,0.0,0.0,0.0,1.0,0.0,0.0,0.0,1.0,-20.2693112549,-8.96867941895,-0.909796630859,1.0,0.0,0.0,0.0,1.0,0.0,0.0,0.0,1.0
1463750817088362620,265,1463750817085804662,,1.00990271568,11.1137657166,-47.7537345886,0.0200020000339,1.0,0.0,0.0,0.0,1.0,0.0,0.0,0.0,1.0,-0.0609756112099,-90.6707382202,-50.4878082275,1.0,0.0,0.0,0.0,1.0,0.0,0.0,0.0,1.0,10.9558667969,-0.756567724609,-6.90966599121,1.0,0.0,0.0,0.0,1.0,0.0,0.0,0.0,1.0
1463750817107680558,266,1463750817105801816,,-0.542368352413,10.2511234283,-49.7636260986,0.0199989993125,1.0,0.0,0.0,0.0,1.0,0.0,0.0,0.0,1.0,-18.0487823486,-40.8536605835,-90.7317047119,1.0,0.0,0.0,0.0,1.0,0.0,0.0,0.0,1.0,-2.37504819301,8.23605371094,7.11556733398,1.0,0.0,0.0,0.0,1.0,0.0,0.0,0.0,1.0
1463750817128320678,267,1463750817125788345,,-2.2496805191,11.074757576,-50.7292938232,0.0199950002134,1.0,0.0,0.0,0.0,1.0,0.0,0.0,0.0,1.0,-29.9390258789,8.41463470459,-38.4756126404,1.0,0.0,0.0,0.0,1.0,0.0,0.0,0.0,1.0,8.9591026123,13.2782424072,1.20667770978,1.0,0.0,0.0,0.0,1.0,0.0,0.0,0.0,1.0
1463750817149465744,268,1463750817145815447,,-1.85814166069,10.4557466507,-51.3949813843,0.019999999553,1.0,0.0,0.0,0.0,1.0,0.0,0.0,0.0,1.0,-23.1707324982,-21.5853652954,-43.2317085266,1.0,0.0,0.0,0.0,1.0,0.0,0.0,0.0,1.0,-0.541089611728,-5.2337248291,-2.91134921875,1.0,0.0,0.0,0.0,1.0,0.0,0.0,0.0,1.0
1463750817167588791,269,1463750817165737393,,-2.37408638,9.38672161102,-52.3837890625,0.0199970006943,1.0,0.0,0.0,0.0,1.0,0.0,0.0,0.0,1.0,-22.0731716156,-46.2195129395,-51.4634170532,1.0,0.0,0.0,0.0,1.0,0.0,0.0,0.0,1.0,1.21146604004,-1.49398183594,-24.3059352539,1.0,0.0,0.0,0.0,1.0,0.0,0.0,0.0,1.0
1463750817188883127,270,1463750817185763141,,-3.53087997437,8.75185775757,-53.2453575134,0.0199970006943,1.0,0.0,0.0,0.0,1.0,0.0,0.0,0.0,1.0,-60.5487823486,-23.8414649963,-45.5487823486,1.0,0.0,0.0,0.0,1.0,0.0,0.0,0.0,1.0,0.478840332031,-2.57616098633,-18.7753294189,1.0,0.0,0.0,0.0,1.0,0.0,0.0,0.0,1.0
1463750817208933146,271,1463750817205750243,,-2.82949066162,9.23187351227,-54.0517425537,0.0199979990721,1.0,0.0,0.0,0.0,1.0,0.0,0.0,0.0,1.0,10.1219511032,17.1951217651,-43.9024391174,1.0,0.0,0.0,0.0,1.0,0.0,0.0,0.0,1.0,4.67348134836,-9.63426806499,-15.2797949951,1.0,0.0,0.0,0.0,1.0,0.0,0.0,0.0,1.0
1463750817228303063,272,1463750817225762553,,-2.9737534523,8.69561290741,-54.8713569641,0.0200089998543,1.0,0.0,0.0,0.0,1.0,0.0,0.0,0.0,1.0,-8.04878044128,22.3780498505,-40.6707344055,1.0,0.0,0.0,0.0,1.0,0.0,0.0,0.0,1.0,-8.10676682129,-1.10612116699,-6.44040246582,1.0,0.0,0.0,0.0,1.0,0.0,0.0,0.0,1.0
1463750817249426306,273,1463750817245777311,,-3.34855175018,7.37791109085,-55.2702636719,0.0200020000339,1.0,0.0,0.0,0.0,1.0,0.0,0.0,0.0,1.0,3.7804877758,-97.2561035156,-22.0731716156,1.0,0.0,0.0,0.0,1.0,0.0,0.0,0.0,1.0,7.49863959961,4.41011945801,-7.69975253906,1.0,0.0,0.0,0.0,1.0,0.0,0.0,0.0,1.0
1463750817268132893,274,1463750817265763371,,-2.17493486404,6.64529275894,-55.4636993408,0.0199989993125,1.0,0.0,0.0,0.0,1.0,0.0,0.0,0.0,1.0,7.74390268326,-27.0121955872,-17.6829280853,1.0,0.0,0.0,0.0,1.0,0.0,0.0,0.0,1.0,-1.41736738281,-8.5520889146,-3.49553442383,1.0,0.0,0.0,0.0,1.0,0.0,0.0,0.0,1.0
1463750817288800304,275,1463750817285750005,,-2.42080807686,6.78451251984,-55.5691184998,0.0199989993125,1.0,0.0,0.0,0.0,1.0,0.0,0.0,0.0,1.0,4.02439022064,-39.6951217651,-5.0,1.0,0.0,0.0,0.0,1.0,0.0,0.0,0.0,1.0,10.8744639404,3.7014357666,-5.70298835449,1.0,0.0,0.0,0.0,1.0,0.0,0.0,0.0,1.0
1463750817308514126,276,1463750817305751065,,-2.12171173096,5.11861228943,-55.2024917603,0.0199989993125,1.0,0.0,0.0,0.0,1.0,0.0,0.0,0.0,1.0,-17.7439022064,-38.8414649963,13.048781395,1.0,0.0,0.0,0.0,1.0,0.0,0.0,0.0,1.0,-3.49553442383,-2.32716386754,-0.507570751953,1.0,0.0,0.0,0.0,1.0,0.0,0.0,0.0,1.0
1463750817328456541,277,1463750817325762907,,-1.71238958836,6.14213514328,-54.9049835205,0.0200009997934,1.0,0.0,0.0,0.0,1.0,0.0,0.0,0.0,1.0,12.7439022064,17.0121955872,14.5731706619,1.0,0.0,0.0,0.0,1.0,0.0,0.0,0.0,1.0,15.3851398682,-2.20266552734,-18.8710974854,1.0,0.0,0.0,0.0,1.0,0.0,0.0,0.0,1.0
1463750817349459212,278,1463750817345788186,,-1.55855453014,5.44757843018,-54.5916061401,0.020005999133,1.0,0.0,0.0,0.0,1.0,0.0,0.0,0.0,1.0,-15.0000009537,-6.15853643417,13.048781395,1.0,0.0,0.0,0.0,1.0,0.0,0.0,0.0,1.0,-7.88171186523,-6.07169541016,-13.7427175293,1.0,0.0,0.0,0.0,1.0,0.0,0.0,0.0,1.0
1463750817369625323,279,1463750817365748100,,-1.52746248245,5.70650720596,-54.2507476807,0.0199950002134,1.0,0.0,0.0,0.0,1.0,0.0,0.0,0.0,1.0,-9.20731735229,-17.2560977936,15.4878053665,1.0,0.0,0.0,0.0,1.0,0.0,0.0,0.0,1.0,16.3715509521,-4.2329482429,-23.3626197998,1.0,0.0,0.0,0.0,1.0,0.0,0.0,0.0,1.0
1463750817388690242,280,1463750817385761661,,-1.4312813282,7.49368047714,-53.8758239746,0.0200020000339,1.0,0.0,0.0,0.0,1.0,0.0,0.0,0.0,1.0,-2.43902444839,49.8780479431,19.2073173523,1.0,0.0,0.0,0.0,1.0,0.0,0.0,0.0,1.0,6.75164868164,-0.742202514648,-6.39730683594,1.0,0.0,0.0,0.0,1.0,0.0,0.0,0.0,1.0
1463750817410611190,281,1463750817405767044,,-1.69504749775,8.01372528076,-53.6871337891,0.0199989993125,1.0,0.0,0.0,0.0,1.0,0.0,0.0,0.0,1.0,-5.67073154449,24.3902435303,11.0365858078,1.0,0.0,0.0,0.0,1.0,0.0,0.0,0.0,1.0,2.88740720215,4.30956328054,-24.2676280273,1.0,0.0,0.0,0.0,1.0,0.0,0.0,0.0,1.0
1463750817428556842,282,1463750817425755031,,-0.856892645359,5.60379981995,-53.5296134949,0.0199970006943,1.0,0.0,0.0,0.0,1.0,0.0,0.0,0.0,1.0,34.634147644,-76.9512252808,5.42682933807,1.0,0.0,0.0,0.0,1.0,0.0,0.0,0.0,1.0,-10.6877162109,-1.49398183594,-10.1466266357,1.0,0.0,0.0,0.0,1.0,0.0,0.0,0.0,1.0
1463750817449350868,283,1463750817446228329,,-0.513654470444,5.47550487518,-53.4725112915,0.0202670004219,1.0,0.0,0.0,0.0,1.0,0.0,0.0,0.0,1.0,20.8536586761,-23.2926845551,2.74390244484,1.0,0.0,0.0,0.0,1.0,0.0,0.0,0.0,1.0,7.0724717041,1.6041151123,-18.5790037138,1.0,0.0,0.0,0.0,1.0,0.0,0.0,0.0,1.0
1463750817467979799,284,1463750817465870433,,0.22746026516,5.33801794052,-53.1665763855,0.0197470001876,1.0,0.0,0.0,0.0,1.0,0.0,0.0,0.0,1.0,22.9878044128,-1.64634156227,14.0243902206,1.0,0.0,0.0,0.0,1.0,0.0,0.0,0.0,1.0,-0.478840332031,-2.86825358887,-12.0571995605,1.0,0.0,0.0,0.0,1.0,0.0,0.0,0.0,1.0
1463750817488315545,285,1463750817485883837,,0.0544154495001,5.21982240677,-53.1241950989,0.0199900008738,1.0,0.0,0.0,0.0,1.0,0.0,0.0,0.0,1.0,-4.81707286835,26.158536911,2.19512200356,1.0,0.0,0.0,0.0,1.0,0.0,0.0,0.0,1.0,-8.39885883931,0.967257470703,-13.5416045898,1.0,0.0,0.0,0.0,1.0,0.0,0.0,0.0,1.0
1463750817508368011,286,1463750817506004740,,1.65654420853,3.0771021843,-53.2660102844,0.0199950002134,1.0,0.0,0.0,0.0,1.0,0.0,0.0,0.0,1.0,51.4024391174,-68.9634170532,-8.35365867615,1.0,0.0,0.0,0.0,1.0,0.0,0.0,0.0,1.0,-9.06923588867,-7.14429775391,-7.11077893066,1.0,0.0,0.0,0.0,1.0,0.0,0.0,0.0,1.0
1463750817528615737,287,1463750817527037619,,1.92214179039,3.02181839943,-53.5259513855,0.0200040005147,1.0,0.0,0.0,0.0,1.0,0.0,0.0,0.0,1.0,8.29268264771,-61.2195167542,-11.7073173523,1.0,0.0,0.0,0.0,1.0,0.0,0.0,0.0,1.0,10.6925046143,-1.1875240965,-0.77093293457,1.0,0.0,0.0,0.0,1.0,0.0,0.0,0.0,1.0
1463750817548742526,288,1463750817547000971,,1.91804862022,1.93095707893,-53.833442688,0.019999999553,1.0,0.0,0.0,0.0,1.0,0.0,0.0,0.0,1.0,5.67073154449,-18.2926826477,-14.6951217651,1.0,0.0,0.0,0.0,1.0,0.0,0.0,0.0,1.0,-4.3239284905,0.392649072266,-5.08528432617,1.0,0.0,0.0,0.0,1.0,0.0,0.0,0.0,1.0
1463750817569424625,289,1463750817567054167,,2.3429274559,2.39362406731,-54.0280265808,0.0199960004538,1.0,0.0,0.0,0.0,1.0,0.0,0.0,0.0,1.0,27.6219520569,16.0365848541,-10.3658542633,1.0,0.0,0.0,0.0,1.0,0.0,0.0,0.0,1.0,3.07415493164,1.72382519531,-26.4032559082,1.0,0.0,0.0,0.0,1.0,0.0,0.0,0.0,1.0
1463750817588496575,290,1463750817586923509,,2.92098665237,0.403235703707,-54.8256988525,0.0200079996139,1.0,0.0,0.0,0.0,1.0,0.0,0.0,0.0,1.0,30.0609760284,-76.2804946899,-36.4634170532,1.0,0.0,0.0,0.0,1.0,0.0,0.0,0.0,1.0,-9.87368764648,-0.928950244141,-20.0681983154,1.0,0.0,0.0,0.0,1.0,0.0,0.0,0.0,1.0
1463750817609013206,291,1463750817607015923,,3.40668058395,-0.499434232712,-55.8386154175,0.0199939999729,1.0,0.0,0.0,0.0,1.0,0.0,0.0,0.0,1.0,-10.3048782349,-82.3170700073,-46.7682952881,1.0,0.0,0.0,0.0,1.0,0.0,0.0,0.0,1.0,10.3525279785,-11.6214548584,-9.15542714844,1.0,0.0,0.0,0.0,1.0,0.0,0.0,0.0,1.0
1463750817629538691,292,1463750817627268284,,2.49322485924,-1.56081306934,-56.4008293152,0.0199979990721,1.0,0.0,0.0,0.0,1.0,0.0,0.0,0.0,1.0,-8.90243911743,-63.3536567688,-25.3658542633,1.0,0.0,0.0,0.0,1.0,0.0,0.0,0.0,1.0,1.89620771484,10.2040874756,-13.3165496338,1.0,0.0,0.0,0.0,1.0,0.0,0.0,0.0,1.0
1463750817649621730,293,1463750817647367313,,2.54498338699,0.0783927738667,-57.4169082642,0.0199979990721,1.0,0.0,0.0,0.0,1.0,0.0,0.0,0.0,1.0,5.0,21.2804889679,-52.0731697083,1.0,0.0,0.0,0.0,1.0,0.0,0.0,0.0,1.0,16.9222161649,0.699106884766,-2.18830031738,1.0,0.0,0.0,0.0,1.0,0.0,0.0,0.0,1.0
1463750817668823107,294,1463750817666839313,,3.78856134415,1.64607357979,-58.9102287292,0.0200100000948,1.0,0.0,0.0,0.0,1.0,0.0,0.0,0.0,1.0,22.2560977936,82.1951293945,-79.4512176514,1.0,0.0,0.0,0.0,1.0,0.0,0.0,0.0,1.0,-4.73094218821,-20.1783315918,-16.563087085,1.0,0.0,0.0,0.0,1.0,0.0,0.0,0.0,1.0
1463750817689479164,295,1463750817687376100,,4.34404754639,2.84779477119,-60.1209030151,0.0199960004538,1.0,0.0,0.0,0.0,1.0,0.0,0.0,0.0,1.0,31.158536911,18.7804889679,-62.3780517578,1.0,0.0,0.0,0.0,1.0,0.0,0.0,0.0,1.0,10.7116582275,-0.699106884766,-12.9191121582,1.0,0.0,0.0,0.0,1.0,0.0,0.0,0.0,1.0
1463750817710465481,296,1463750817707260651,,5.24444389343,0.603820800781,-60.3251190186,0.0199979990721,1.0,0.0,0.0,0.0,1.0,0.0,0.0,0.0,1.0,27.9268302917,-62.2560997009,-5.79268312454,1.0,0.0,0.0,0.0,1.0,0.0,0.0,0.0,1.0,-20.6523835205,-6.68461103516,3.51468803711,1.0,0.0,0.0,0.0,1.0,0.0,0.0,0.0,1.0
1463750817728083947,297,1463750817725848019,,3.8752040863,0.519924342632,-61.240196228,0.0199979990721,1.0,0.0,0.0,0.0,1.0,0.0,0.0,0.0,1.0,-36.0365867615,-51.1585388184,-41.2195129395,1.0,0.0,0.0,0.0,1.0,0.0,0.0,0.0,1.0,14.6573025635,10.3621047852,-8.70531723633,1.0,0.0,0.0,0.0,1.0,0.0,0.0,0.0,1.0
1463750817748278496,298,1463750817745852308,,4.40067148209,0.00347165716812,-62.3363418579,0.0200040005147,1.0,0.0,0.0,0.0,1.0,0.0,0.0,0.0,1.0,13.841463089,-84.4512176514,-49.390247345,1.0,0.0,0.0,0.0,1.0,0.0,0.0,0.0,1.0,9.02135185547,-2.05422502441,2.98796367187,1.0,0.0,0.0,0.0,1.0,0.0,0.0,0.0,1.0
1463750817768224296,299,1463750817765908629,,3.85222673416,3.77206540108,-63.7994651794,0.0200100000948,1.0,0.0,0.0,0.0,1.0,0.0,0.0,0.0,1.0,-6.82926845551,135.304870605,-83.1097564697,1.0,0.0,0.0,0.0,1.0,0.0,0.0,0.0,1.0,24.2867816406,8.25999572754,-16.0363638888,1.0,0.0,0.0,0.0,1.0,0.0,0.0,0.0,1.0
1463750817788148326,300,1463750817785847450,,2.51758861542,7.22798633575,-64.2441940308,0.0199970006943,1.0,0.0,0.0,0.0,1.0,0.0,0.0,0.0,1.0,-117.743896484,172.256088257,-35.6707344055,1.0,0.0,0.0,0.0,1.0,0.0,0.0,0.0,1.0,-1.26413847656,-36.3774976863,-9.65821008159,1.0,0.0,0.0,0.0,1.0,0.0,0.0,0.0,1.0
1463750817808614748,301,1463750817805856427,,0.365082740784,9.90778923035,-65.1688995361,0.0199989993125,1.0,0.0,0.0,0.0,1.0,0.0,0.0,0.0,1.0,-127.743904114,173.414627075,-54.634147644,1.0,0.0,0.0,0.0,1.0,0.0,0.0,0.0,1.0,-20.5661922607,-12.0524111572,9.25119521484,1.0,0.0,0.0,0.0,1.0,0.0,0.0,0.0,1.0
1463750817828470601,302,1463750817825866237,,2.5168864727,7.12457418442,-64.8070831299,0.019991999492,1.0,0.0,0.0,0.0,1.0,0.0,0.0,0.0,1.0,86.1585388184,-92.9878005981,17.6219520569,1.0,0.0,0.0,0.0,1.0,0.0,0.0,0.0,1.0,-25.9914532227,-11.8752402344,-18.4640832031,1.0,0.0,0.0,0.0,1.0,0.0,0.0,0.0,1.0
1463750817849349783,303,1463750817845850996,,2.467253685,4.6470375061,-65.4281921387,0.0200020000339,1.0,0.0,0.0,0.0,1.0,0.0,0.0,0.0,1.0,25.4268302917,-109.634147644,-23.2317085266,1.0,0.0,0.0,0.0,1.0,0.0,0.0,0.0,1.0,-5.81791003418,11.3341506592,-25.9196271729,1.0,0.0,0.0,0.0,1.0,0.0,0.0,0.0,1.0
1463750817868862980,304,1463750817865916378,,3.51419043541,2.90102338791,-65.2701644897,0.0200020000339,1.0,0.0,0.0,0.0,1.0,0.0,0.0,0.0,1.0,43.1707305908,-87.7439041138,11.5243911743,1.0,0.0,0.0,0.0,1.0,0.0,0.0,0.0,1.0,1.32159931641,-4.57771357422,-21.9500408203,1.0,0.0,0.0,0.0,1.0,0.0,0.0,0.0,1.0
1463750817887963836,305,1463750817885823741,,4.61913299561,2.80010819435,-64.1530532837,0.0200009997934,1.0,0.0,0.0,0.0,1.0,0.0,0.0,0.0,1.0,33.4756126404,-8.23170757294,55.1219520569,1.0,0.0,0.0,0.0,1.0,0.0,0.0,0.0,1.0,2.14041643031,-6.31590397949,-14.2885955078,1.0,0.0,0.0,0.0,1.0,0.0,0.0,0.0,1.0
1463750817908743175,306,1463750817905817354,,3.91705465317,3.73080921173,-62.6878471375,0.0199979990721,1.0,0.0,0.0,0.0,1.0,0.0,0.0,0.0,1.0,-6.46341466904,10.0,74.0853729248,1.0,0.0,0.0,0.0,1.0,0.0,0.0,0.0,1.0,11.2240173828,8.34618640278,-6.56490095215,1.0,0.0,0.0,0.0,1.0,0.0,0.0,0.0,1.0
1463750817928008613,307,1463750817925846226,,5.49437999725,2.88111281395,-59.5270042419,0.0200009997934,1.0,0.0,0.0,0.0,1.0,0.0,0.0,0.0,1.0,24.3902435303,0.914634168148,155.243911743,1.0,0.0,0.0,0.0,1.0,0.0,0.0,0.0,1.0,-1.78607443848,-2.56658417969,-0.258573779297,1.0,0.0,0.0,0.0,1.0,0.0,0.0,0.0,1.0
1463750817947937642,308,1463750817945838901,,3.56456708908,2.84390735626,-56.5564193726,0.0200020000339,1.0,0.0,0.0,0.0,1.0,0.0,0.0,0.0,1.0,-104.878051758,3.29268312454,148.17074585,1.0,0.0,0.0,0.0,1.0,0.0,0.0,0.0,1.0,2.4516625,-2.24097275391,-18.5933700928,1.0,0.0,0.0,0.0,1.0,0.0,0.0,0.0,1.0
1463750817967666516,309,1463750817965860378,,0.684510350227,2.93149518967,-54.9930114746,0.0199979990721,1.0,0.0,0.0,0.0,1.0,0.0,0.0,0.0,1.0,-161.280487061,-48.2317085266,80.3658599854,1.0,0.0,0.0,0.0,1.0,0.0,0.0,0.0,1.0,11.7028577148,-3.08373173828,-2.02549460449,1.0,0.0,0.0,0.0,1.0,0.0,0.0,0.0,1.0
1463750817987397005,310,1463750817985816178,,-3.02497887611,7.19665765762,-55.0406417847,0.0199989993125,1.0,0.0,0.0,0.0,1.0,0.0,0.0,0.0,1.0,-161.768295288,167.439025879,3.53658556938,1.0,0.0,0.0,0.0,1.0,0.0,0.0,0.0,1.0,16.5870279325,8.39407043599,-9.13148513184,1.0,0.0,0.0,0.0,1.0,0.0,0.0,0.0,1.0
1463750818007778116,311,1463750818005858645,,-5.81491994858,9.94926738739,-55.884929657,0.0199979990721,1.0,0.0,0.0,0.0,1.0,0.0,0.0,0.0,1.0,-126.219512939,125.60975647,-30.975610733,1.0,0.0,0.0,0.0,1.0,0.0,0.0,0.0,1.0,6.99585725098,3.38061274414,-18.5837932861,1.0,0.0,0.0,0.0,1.0,0.0,0.0,0.0,1.0
1463750818027735062,312,1463750818025850070,,-7.33236408234,12.9301671982,-57.3320274353,0.0199960004538,1.0,0.0,0.0,0.0,1.0,0.0,0.0,0.0,1.0,-62.682926178,139.45123291,-55.3048820496,1.0,0.0,0.0,0.0,1.0,0.0,0.0,0.0,1.0,10.2040874756,1.5322890625,-21.5238729248,1.0,0.0,0.0,0.0,1.0,0.0,0.0,0.0,1.0
1463750818047714247,313,1463750818045843318,,-5.18664312363,10.5925712585,-57.9876899719,0.020005999133,1.0,0.0,0.0,0.0,1.0,0.0,0.0,0.0,1.0,87.9268341064,-65.8536605835,-44.5731735229,1.0,0.0,0.0,0.0,1.0,0.0,0.0,0.0,1.0,-29.927520752,-16.1943800293,-2.61925661621,1.0,0.0,0.0,0.0,1.0,0.0,0.0,0.0,1.0
1463750818067885932,314,1463750818066022398,,-3.11596560478,8.60855960846,-58.632598877,0.0200009997934,1.0,0.0,0.0,0.0,1.0,0.0,0.0,0.0,1.0,114.695121765,-80.1219482422,-36.2804908752,1.0,0.0,0.0,0.0,1.0,0.0,0.0,0.0,1.0,-4.88895979004,5.8226984375,-30.8037985596,1.0,0.0,0.0,0.0,1.0,0.0,0.0,0.0,1.0
1463750818087316317,315,1463750818085857678,,-1.03104758263,6.3013048172,-59.1693840027,0.0200100000948,1.0,0.0,0.0,0.0,1.0,0.0,0.0,0.0,1.0,104.39025116,-87.0731735229,-29.8170719147,1.0,0.0,0.0,0.0,1.0,0.0,0.0,0.0,1.0,-5.77960280762,-0.263362164351,-13.8480624023,1.0,0.0,0.0,0.0,1.0,0.0,0.0,0.0,1.0
1463750818107251024,316,1463750818105885509,,-0.160789906979,1.76158750057,-59.5532875061,0.0199929997325,1.0,0.0,0.0,0.0,1.0,0.0,0.0,0.0,1.0,75.8536605835,-182.560974121,-17.3780498505,1.0,0.0,0.0,0.0,1.0,0.0,0.0,0.0,1.0,-12.1002951904,8.23605371094,-3.63439812012,1.0,0.0,0.0,0.0,1.0,0.0,0.0,0.0,1.0
1463750818127471041,317,1463750818125884017,,1.85383486748,0.546730041504,-59.5704574585,0.0200100000948,1.0,0.0,0.0,0.0,1.0,0.0,0.0,0.0,1.0,59.9390258789,-79.207321167,-1.40243899822,1.0,0.0,0.0,0.0,1.0,0.0,0.0,0.0,1.0,3.7253777832,-10.1274730225,8.73404765625,1.0,0.0,0.0,0.0,1.0,0.0,0.0,0.0,1.0
1463750818148437566,318,1463750818145880546,,1.86455833912,0.662825524807,-59.2274017334,0.019985999912,1.0,0.0,0.0,0.0,1.0,0.0,0.0,0.0,1.0,-3.23170733452,-29.0853672028,17.8658542633,1.0,0.0,0.0,0.0,1.0,0.0,0.0,0.0,1.0,5.7748144043,-0.938527050781,-7.71411774902,1.0,0.0,0.0,0.0,1.0,0.0,0.0,0.0,1.0
1463750818168738990,319,1463750818166884883,,1.29504835606,1.53554463387,-58.4858016968,0.0200779996812,1.0,0.0,0.0,0.0,1.0,0.0,0.0,0.0,1.0,-37.7439041138,5.48780488968,36.6463432312,1.0,0.0,0.0,0.0,1.0,0.0,0.0,0.0,1.0,11.8512982178,-2.4995465332,13.9294652588,1.0,0.0,0.0,0.0,1.0,0.0,0.0,0.0,1.0
1463750818189033174,320,1463750818185999802,,-2.07508444786,6.2125658989,-58.4082183838,0.0201399996877,1.0,0.0,0.0,0.0,1.0,0.0,0.0,0.0,1.0,-158.231704712,203.414642334,6.09756088257,1.0,0.0,0.0,0.0,1.0,0.0,0.0,0.0,1.0,19.7952593262,5.57848986816,-33.7390897949,1.0,0.0,0.0,0.0,1.0,0.0,0.0,0.0,1.0
1463750818208103770,321,1463750818206251642,,-3.49079871178,8.59986591339,-58.1511917114,0.0198199991137,1.0,0.0,0.0,0.0,1.0,0.0,0.0,0.0,1.0,-82.3780517578,123.048789978,17.6829280853,1.0,0.0,0.0,0.0,1.0,0.0,0.0,0.0,1.0,0.497993945312,-4.9512090332,-36.3200368465,1.0,0.0,0.0,0.0,1.0,0.0,0.0,0.0,1.0
1463750818229243367,322,1463750818225859579,,-3.77996444702,8.03933525085,-58.2621879578,0.0199609994888,1.0,0.0,0.0,0.0,1.0,0.0,0.0,0.0,1.0,-3.29268312454,2.25609779358,-3.90243911743,1.0,0.0,0.0,0.0,1.0,0.0,0.0,0.0,1.0,-16.9365825439,8.8872765625,-33.2841914795,1.0,0.0,0.0,0.0,1.0,0.0,0.0,0.0,1.0
1463750818255986221,323,1463750818245834546,,-2.68890070915,5.39233875275,-58.330821991,0.0200169999152,1.0,0.0,0.0,0.0,1.0,0.0,0.0,0.0,1.0,61.2804870605,-125.487808228,-9.5731716156,1.0,0.0,0.0,0.0,1.0,0.0,0.0,0.0,1.0,-0.900219824219,12.0859299805,-69.7239360709,1.0,0.0,0.0,0.0,1.0,0.0,0.0,0.0,1.0
1463750818268699604,324,1463750818266673155,,-1.53208994865,3.70940828323,-59.0804748535,0.020046999678,1.0,0.0,0.0,0.0,1.0,0.0,0.0,0.0,1.0,67.9878082275,-73.6585388184,-39.2682914734,1.0,0.0,0.0,0.0,1.0,0.0,0.0,0.0,1.0,-4.40054265137,7.20175859375,-42.1762564453,1.0,0.0,0.0,0.0,1.0,0.0,0.0,0.0,1.0
1463750818288978320,325,1463750818285947499,,-0.996886134148,4.01656627655,-59.3618164062,0.0199870001525,1.0,0.0,0.0,0.0,1.0,0.0,0.0,0.0,1.0,19.817073822,-7.62195110321,-14.9390249252,1.0,0.0,0.0,0.0,1.0,0.0,0.0,0.0,1.0,7.26879624023,-2.07816689489,-14.9829139893,1.0,0.0,0.0,0.0,1.0,0.0,0.0,0.0,1.0
1463750818309844272,326,1463750818305900070,,-0.585538983345,3.79032754898,-59.7975769043,0.0199459996074,1.0,0.0,0.0,0.0,1.0,0.0,0.0,0.0,1.0,20.9146347046,3.29268312454,-21.8902435303,1.0,0.0,0.0,0.0,1.0,0.0,0.0,0.0,1.0,-2.4756045166,-0.134075302102,-10.8840407471,1.0,0.0,0.0,0.0,1.0,0.0,0.0,0.0,1.0
1463750818330722048,327,1463750818325794881,,-0.911448597908,5.00116348267,-59.8935203552,0.019999999553,1.0,0.0,0.0,0.0,1.0,0.0,0.0,0.0,1.0,17.9268302917,18.2926826477,-2.31707310677,1.0,0.0,0.0,0.0,1.0,0.0,0.0,0.0,1.0,7.20654699707,6.19619389648,4.63996281738,1.0,0.0,0.0,0.0,1.0,0.0,0.0,0.0,1.0
1463750818352632110,328,1463750818345758754,,-1.36285507679,6.008061409,-60.0509376526,0.0200030002743,1.0,0.0,0.0,0.0,1.0,0.0,0.0,0.0,1.0,8.10975551605,89.0243911743,-3.71951246262,1.0,0.0,0.0,0.0,1.0,0.0,0.0,0.0,1.0,-5.02303508301,3.43328518066,2.69587106934,1.0,0.0,0.0,0.0,1.0,0.0,0.0,0.0,1.0
1463750818372271349,329,1463750818366054188,,-2.04715323448,8.36566829681,-59.9835090637,0.0199989993125,1.0,0.0,0.0,0.0,1.0,0.0,0.0,0.0,1.0,-31.8902454376,91.0975646973,6.34146356583,1.0,0.0,0.0,0.0,1.0,0.0,0.0,0.0,1.0,8.33182119282,0.976834277344,-13.3931640869,1.0,0.0,0.0,0.0,1.0,0.0,0.0,0.0,1.0
1463750818390906374,330,1463750818385781083,,-2.10919475555,5.93798923492,-59.8355674744,0.0200020000339,1.0,0.0,0.0,0.0,1.0,0.0,0.0,0.0,1.0,-3.29268312454,-67.8048782349,4.87804889679,1.0,0.0,0.0,0.0,1.0,0.0,0.0,0.0,1.0,-12.9239005615,0.220266552734,-4.06535441895,1.0,0.0,0.0,0.0,1.0,0.0,0.0,0.0,1.0
1463750818410898528,331,1463750818405848914,,-2.51257872581,3.78460979462,-59.8616676331,0.0199970006943,1.0,0.0,0.0,0.0,1.0,0.0,0.0,0.0,1.0,-4.45121955872,-110.67073822,-4.20731735229,1.0,0.0,0.0,0.0,1.0,0.0,0.0,0.0,1.0,1.1875240965,3.13161577148,-9.72524714355,1.0,0.0,0.0,0.0,1.0,0.0,0.0,0.0,1.0
1463750818431757813,332,1463750818425821172,,-2.01800870895,2.80393695831,-59.6445121765,0.0199989993125,1.0,0.0,0.0,0.0,1.0,0.0,0.0,0.0,1.0,2.74390244484,-71.8292694092,6.40243911743,1.0,0.0,0.0,0.0,1.0,0.0,0.0,0.0,1.0,4.58729038086,-3.85945307617,-9.31344387349,1.0,0.0,0.0,0.0,1.0,0.0,0.0,0.0,1.0
1463750818451107106,333,1463750818448702376,,-1.2344275713,-1.73987340927,-59.5265159607,0.0200379993767,1.0,0.0,0.0,0.0,1.0,0.0,0.0,0.0,1.0,19.2682914734,-189.390258789,-0.304878056049,1.0,0.0,0.0,0.0,1.0,0.0,0.0,0.0,1.0,-7.66623371582,-3.81635744629,-7.56088884277,1.0,0.0,0.0,0.0,1.0,0.0,0.0,0.0,1.0
1463750818468109533,334,1463750818466710372,,-2.79944849014,5.0077123642,-59.2743110657,0.0199699997902,1.0,0.0,0.0,0.0,1.0,0.0,0.0,0.0,1.0,-62.865852356,383.353668213,25.0,1.0,0.0,0.0,0.0,1.0,0.0,0.0,0.0,1.0,-25.7089374268,8.528146898,-13.1920511475,1.0,0.0,0.0,0.0,1.0,0.0,0.0,0.0,1.0
1463750818488007885,335,1463750818485902686,,-4.92924070358,-2.80211353302,-58.175567627,0.019991999492,1.0,0.0,0.0,0.0,1.0,0.0,0.0,0.0,1.0,-93.3536605835,-390.67074585,30.0000019073,1.0,0.0,0.0,0.0,1.0,0.0,0.0,0.0,1.0,-0.478840332031,7.12514414062,-23.2237561035,1.0,0.0,0.0,0.0,1.0,0.0,0.0,0.0,1.0
1463750818508144570,336,1463750818505925778,,-4.97915077209,6.59962034225,-59.2042770386,0.0200050007552,1.0,0.0,0.0,0.0,1.0,0.0,0.0,0.0,1.0,-17.134147644,511.951263428,-6.15853643417,1.0,0.0,0.0,0.0,1.0,0.0,0.0,0.0,1.0,-16.1273423828,-5.29118566895,-13.6469494629,1.0,0.0,0.0,0.0,1.0,0.0,0.0,0.0,1.0
1463750818527944642,337,1463750818525722933,,-4.70973491669,4.24829244614,-59.168598175,0.0199970006943,1.0,0.0,0.0,0.0,1.0,0.0,0.0,0.0,1.0,14.0853662491,-132.865859985,-9.81707286835,1.0,0.0,0.0,0.0,1.0,0.0,0.0,0.0,1.0,16.2326872559,4.09887324219,-43.502644165,1.0,0.0,0.0,0.0,1.0,0.0,0.0,0.0,1.0
1463750818548008775,338,1463750818545787951,,-3.9115486145,7.55600404739,-59.3966255188,0.0200030002743,1.0,0.0,0.0,0.0,1.0,0.0,0.0,0.0,1.0,42.2560958862,220.243911743,5.73170757294,1.0,0.0,0.0,0.0,1.0,0.0,0.0,0.0,1.0,-30.2914394043,0.478840332031,-1.13485158691,1.0,0.0,0.0,0.0,1.0,0.0,0.0,0.0,1.0
1463750818568236657,339,1463750818566060833,,-3.71861720085,10.1275548935,-59.8633880615,0.0200050007552,1.0,0.0,0.0,0.0,1.0,0.0,0.0,0.0,1.0,7.86585378647,97.6829299927,-17.4390239716,1.0,0.0,0.0,0.0,1.0,0.0,0.0,0.0,1.0,32.9729452637,-2.62883342285,-39.4755969727,1.0,0.0,0.0,0.0,1.0,0.0,0.0,0.0,1.0
1463750818588056416,340,1463750818585833613,,-4.00004863739,12.752207756,-58.7249412537,0.0199950002134,1.0,0.0,0.0,0.0,1.0,0.0,0.0,0.0,1.0,-32.7439041138,175.06098938,66.1585388184,1.0,0.0,0.0,0.0,1.0,0.0,0.0,0.0,1.0,-32.5084678035,-4.12281525879,-25.4551520508,1.0,0.0,0.0,0.0,1.0,0.0,0.0,0.0,1.0
1463750818608122789,341,1463750818605947069,,-1.48270571232,6.81104660034,-58.2795219421,0.0200009997934,1.0,0.0,0.0,0.0,1.0,0.0,0.0,0.0,1.0,130.853668213,-270.426849365,11.6463422775,1.0,0.0,0.0,0.0,1.0,0.0,0.0,0.0,1.0,-32.7814091309,20.9875717529,-89.7969274658,1.0,0.0,0.0,0.0,1.0,0.0,0.0,0.0,1.0
1463750818628159422,342,1463750818625748859,,-0.774000287056,4.809030056,-59.0133476257,0.0199979990721,1.0,0.0,0.0,0.0,1.0,0.0,0.0,0.0,1.0,24.0243911743,-109.207321167,-40.6097564697,1.0,0.0,0.0,0.0,1.0,0.0,0.0,0.0,1.0,0.368707055664,-5.31991608887,16.8072944853,1.0,0.0,0.0,0.0,1.0,0.0,0.0,0.0,1.0
1463750818648085014,343,1463750818645777523,,-1.22113394737,8.3078289032,-59.9049530029,0.019999999553,1.0,0.0,0.0,0.0,1.0,0.0,0.0,0.0,1.0,-57.6219482422,180.975616455,-44.7560997009,1.0,0.0,0.0,0.0,1.0,0.0,0.0,0.0,1.0,-2.18830031738,-22.7449157715,-22.2517102295,1.0,0.0,0.0,0.0,1.0,0.0,0.0,0.0,1.0
1463750818667656388,344,1463750818665704834,,-1.67099177837,6.06314659119,-60.102481842,0.0200089998543,1.0,0.0,0.0,0.0,1.0,0.0,0.0,0.0,1.0,-7.86585378647,-90.6707382202,-10.3048782349,1.0,0.0,0.0,0.0,1.0,0.0,0.0,0.0,1.0,-9.73003554687,3.86424147949,14.7674358398,1.0,0.0,0.0,0.0,1.0,0.0,0.0,0.0,1.0
1463750818687924739,345,1463750818685821571,,-2.9902780056,8.56484889984,-59.8267974854,0.0199939999729,1.0,0.0,0.0,0.0,1.0,0.0,0.0,0.0,1.0,-47.7439041138,99.2682952881,20.0,1.0,0.0,0.0,0.0,1.0,0.0,0.0,0.0,1.0,3.23696064453,2.42293208008,-5.12359155273,1.0,0.0,0.0,0.0,1.0,0.0,0.0,0.0,1.0
1463750818707957831,346,1463750818705849142,,-2.61369156837,9.12316799164,-59.5677680969,0.0199950002134,1.0,0.0,0.0,0.0,1.0,0.0,0.0,0.0,1.0,-5.36585378647,21.4634151459,10.3658542633,1.0,0.0,0.0,0.0,1.0,0.0,0.0,0.0,1.0,1.54665427246,-2.69587106934,-6.88572397461,1.0,0.0,0.0,0.0,1.0,0.0,0.0,0.0,1.0
1463750818728123473,347,1463750818725812285,,-3.10741257668,8.49244880676,-59.5592765808,0.0200009997934,1.0,0.0,0.0,0.0,1.0,0.0,0.0,0.0,1.0,-5.79268312454,7.19512224197,3.59756112099,1.0,0.0,0.0,0.0,1.0,0.0,0.0,0.0,1.0,-9.45230756977,5.5641246582,-10.6541973877,1.0,0.0,0.0,0.0,1.0,0.0,0.0,0.0,1.0
1463750818752984253,348,1463750818745900533,,-2.93707346916,6.98958158493,-59.6361465454,0.0200009997934,1.0,0.0,0.0,0.0,1.0,0.0,0.0,0.0,1.0,15.4268302917,-59.6341438293,-6.0365858078,1.0,0.0,0.0,0.0,1.0,0.0,0.0,0.0,1.0,-5.64073911133,5.50187541504,-33.5762817439,1.0,0.0,0.0,0.0,1.0,0.0,0.0,0.0,1.0
1463750818768002730,349,1463750818765846229,,-2.86909151077,7.5198597908,-59.7949676514,0.0200130008161,1.0,0.0,0.0,0.0,1.0,0.0,0.0,0.0,1.0,5.79268312454,42.6219520569,-5.60975599289,1.0,0.0,0.0,0.0,1.0,0.0,0.0,0.0,1.0,-3.94564433594,1.35511813965,-19.62766521,1.0,0.0,0.0,0.0,1.0,0.0,0.0,0.0,1.0
1463750818789585502,350,1463750818785810623,,-2.64460706711,8.27804088593,-59.9278335571,0.0199870001525,1.0,0.0,0.0,0.0,1.0,0.0,0.0,0.0,1.0,-2.31707310677,38.1707305908,-6.7682929039,1.0,0.0,0.0,0.0,1.0,0.0,0.0,0.0,1.0,2.89698400879,-6.75643708496,-30.3010162109,1.0,0.0,0.0,0.0,1.0,0.0,0.0,0.0,1.0
1463750818808864639,351,1463750818805876474,,-1.92913389206,7.77159786224,-59.8935050964,0.0199960004538,1.0,0.0,0.0,0.0,1.0,0.0,0.0,0.0,1.0,0.426829278469,-36.1585350037,-5.06097555161,1.0,0.0,0.0,0.0,1.0,0.0,0.0,0.0,1.0,3.7493197998,-8.47547329243,-10.6829278076,1.0,0.0,0.0,0.0,1.0,0.0,0.0,0.0,1.0
1463750818828843824,352,1463750818825812535,,-1.96936690807,7.17925405502,-60.5185127258,0.0200050007552,1.0,0.0,0.0,0.0,1.0,0.0,0.0,0.0,1.0,5.0,-44.7560997009,-32.1951217651,1.0,0.0,0.0,0.0,1.0,0.0,0.0,0.0,1.0,5.64552751465,1.13485158691,-13.7858131592,1.0,0.0,0.0,0.0,1.0,0.0,0.0,0.0,1.0
1463750818848651500,353,1463750818845810731,,-1.71928071976,7.20492839813,-61.3861045837,0.0199970006943,1.0,0.0,0.0,0.0,1.0,0.0,0.0,0.0,1.0,57.1951217651,-38.9024391174,-39.5121955872,1.0,0.0,0.0,0.0,1.0,0.0,0.0,0.0,1.0,8.73404765625,8.48505126812,-1.13485158691,1.0,0.0,0.0,0.0,1.0,0.0,0.0,0.0,1.0
1463750818870774478,354,1463750818865884499,,-1.61565828323,6.10580635071,-62.0624885559,0.019999999553,1.0,0.0,0.0,0.0,1.0,0.0,0.0,0.0,1.0,25.182926178,-42.682926178,-32.865852356,1.0,0.0,0.0,0.0,1.0,0.0,0.0,0.0,1.0,-1.25456166992,3.25132585449,-10.0221281494,1.0,0.0,0.0,0.0,1.0,0.0,0.0,0.0,1.0
1463750818888498934,355,1463750818885818685,,-3.08271074295,9.99560928345,-63.0582199097,0.0200040005147,1.0,0.0,0.0,0.0,1.0,0.0,0.0,0.0,1.0,-51.2195129395,139.817077637,-41.4024391174,1.0,0.0,0.0,0.0,1.0,0.0,0.0,0.0,1.0,75.149201709,20.2836764648,4.5489831543,1.0,0.0,0.0,0.0,1.0,0.0,0.0,0.0,1.0
1463750818908263589,356,1463750818905914328,,-1.66423070431,4.54363965988,-62.6695137024,0.0200050007552,1.0,0.0,0.0,0.0,1.0,0.0,0.0,0.0,1.0,70.4878082275,-220.304870605,11.1585359573,1.0,0.0,0.0,0.0,1.0,0.0,0.0,0.0,1.0,-47.0412742187,1.23540805664,1.65199914551,1.0,0.0,0.0,0.0,1.0,0.0,0.0,0.0,1.0
1463750818929591570,357,1463750818925973305,,-2.4171602726,3.55657625198,-63.1974983215,0.0199880003929,1.0,0.0,0.0,0.0,1.0,0.0,0.0,0.0,1.0,-40.6707344055,-106.829269409,-30.2439022064,1.0,0.0,0.0,0.0,1.0,0.0,0.0,0.0,1.0,28.20848396,-2.64319863281,-0.0430956298828,1.0,0.0,0.0,0.0,1.0,0.0,0.0,0.0,1.0
1463750818948066179,358,1463750818945890824,,-2.01831293106,2.05660605431,-63.4019851685,0.0200030002743,1.0,0.0,0.0,0.0,1.0,0.0,0.0,0.0,1.0,18.475610733,-44.5121955872,-12.0121955872,1.0,0.0,0.0,0.0,1.0,0.0,0.0,0.0,1.0,-4.95599743652,-0.60812722168,6.26323154297,1.0,0.0,0.0,0.0,1.0,0.0,0.0,0.0,1.0
1463750818967747136,359,1463750818965978342,,-1.4261469841,3.89737129211,-63.6035614014,0.0200030002743,1.0,0.0,0.0,0.0,1.0,0.0,0.0,0.0,1.0,35.8536605835,53.4146347046,-8.5365858078,1.0,0.0,0.0,0.0,1.0,0.0,0.0,0.0,1.0,21.7393510742,2.28406838379,27.2843221191,1.0,0.0,0.0,0.0,1.0,0.0,0.0,0.0,1.0
1463750818993906608,360,1463750818988587152,,-2.93929314613,4.83404302597,-63.8619728088,0.0199570003897,1.0,0.0,0.0,0.0,1.0,0.0,0.0,0.0,1.0,-27.9878063202,76.9512252808,-7.25609779358,1.0,0.0,0.0,0.0,1.0,0.0,0.0,0.0,1.0,-4.3622354248,6.32548078613,0.665588061523,1.0,0.0,0.0,0.0,1.0,0.0,0.0,0.0,1.0
1463750819007362853,361,1463750819005894109,,-3.64345741272,8.83661556244,-63.9475898743,0.0200430005789,1.0,0.0,0.0,0.0,1.0,0.0,0.0,0.0,1.0,-41.5243911743,147.317077637,3.84146332741,1.0,0.0,0.0,0.0,1.0,0.0,0.0,0.0,1.0,6.03338818359,-0.723048901367,-2.37025978969,1.0,0.0,0.0,0.0,1.0,0.0,0.0,0.0,1.0
1463750819028029431,362,1463750819026079023,,-4.32868051529,8.80999469757,-63.83385849,0.0200449991971,1.0,0.0,0.0,0.0,1.0,0.0,0.0,0.0,1.0,-27.9268302917,51.9512214661,10.0,1.0,0.0,0.0,0.0,1.0,0.0,0.0,0.0,1.0,-9.59117243511,1.19231249982,-0.435744702148,1.0,0.0,0.0,0.0,1.0,0.0,0.0,0.0,1.0
1463750819048243303,363,1463750819045866177,,-3.90629386902,10.9887828827,-63.8420372009,0.0199519991875,1.0,0.0,0.0,0.0,1.0,0.0,0.0,0.0,1.0,12.6829271317,54.7560997009,1.8902438879,1.0,0.0,0.0,0.0,1.0,0.0,0.0,0.0,1.0,6.44519086914,-1.47482822266,3.50511123047,1.0,0.0,0.0,0.0,1.0,0.0,0.0,0.0,1.0
1463750819070392010,364,1463750819068600039,,-4.74420833588,12.4001016617,-64.1435317993,0.0200500003994,1.0,0.0,0.0,0.0,1.0,0.0,0.0,0.0,1.0,-15.2439022064,46.8902435303,-6.52439069748,1.0,0.0,0.0,0.0,1.0,0.0,0.0,0.0,1.0,6.23450112305,5.35343491211,-8.09719001465,1.0,0.0,0.0,0.0,1.0,0.0,0.0,0.0,1.0
1463750819088990368,365,1463750819086488452,,-4.47607326508,10.2638845444,-63.985912323,0.0199989993125,1.0,0.0,0.0,0.0,1.0,0.0,0.0,0.0,1.0,14.2073173523,-62.317073822,3.35365867615,1.0,0.0,0.0,0.0,1.0,0.0,0.0,0.0,1.0,-8.29351396626,1.13006318359,-8.54730051128,1.0,0.0,0.0,0.0,1.0,0.0,0.0,0.0,1.0
1463750819110413402,366,1463750819106194670,,-4.2167429924,10.7757835388,-64.2927780151,0.0200079996139,1.0,0.0,0.0,0.0,1.0,0.0,0.0,0.0,1.0,16.0365848541,-31.7073192596,-17.6829280853,1.0,0.0,0.0,0.0,1.0,0.0,0.0,0.0,1.0,9.61032604839,-0.244208569336,2.70065947266,1.0,0.0,0.0,0.0,1.0,0.0,0.0,0.0,1.0
1463750819129461758,367,1463750819126018647,,-4.25937271118,15.8053770065,-64.2489852905,0.0199410002679,1.0,0.0,0.0,0.0,1.0,0.0,0.0,0.0,1.0,0.0609756112099,193.17074585,16.7682933807,1.0,0.0,0.0,0.0,1.0,0.0,0.0,0.0,1.0,40.8738107422,1.24498486328,5.68383474121,1.0,0.0,0.0,0.0,1.0,0.0,0.0,0.0,1.0
1463750819148970580,368,1463750819146005801,,-3.70545387268,16.6363182068,-63.3856887817,0.0200030002743,1.0,0.0,0.0,0.0,1.0,0.0,0.0,0.0,1.0,2.25609779358,85.0609817505,43.7195129395,1.0,0.0,0.0,0.0,1.0,0.0,0.0,0.0,1.0,-35.9896393555,-10.1897222656,6.93839641113,1.0,0.0,0.0,0.0,1.0,0.0,0.0,0.0,1.0
1463750819169156796,369,1463750819167033576,,-3.8919198513,17.7151508331,-63.8449478149,0.0200709998608,1.0,0.0,0.0,0.0,1.0,0.0,0.0,0.0,1.0,6.28048801422,46.7073173523,-16.2804889679,1.0,0.0,0.0,0.0,1.0,0.0,0.0,0.0,1.0,8.26478413086,4.53940634766,-19.1488248779,1.0,0.0,0.0,0.0,1.0,0.0,0.0,0.0,1.0
1463750819189615927,370,1463750819186010318,,-2.0899515152,15.5959367752,-63.8429718018,0.0199299994856,1.0,0.0,0.0,0.0,1.0,0.0,0.0,0.0,1.0,67.8048782349,-58.9634132385,-9.5731716156,1.0,0.0,0.0,0.0,1.0,0.0,0.0,0.0,1.0,-24.53099021,-12.8999585449,-17.8032835449,1.0,0.0,0.0,0.0,1.0,0.0,0.0,0.0,1.0
1463750819208201473,371,1463750819205812056,,-1.08349883556,14.4904098511,-63.8538856506,0.0200050007552,1.0,0.0,0.0,0.0,1.0,0.0,0.0,0.0,1.0,23.3536586761,-101.524391174,-11.5243911743,1.0,0.0,0.0,0.0,1.0,0.0,0.0,0.0,1.0,15.3037370117,-8.9591026123,-2.82036955566,1.0,0.0,0.0,0.0,1.0,0.0,0.0,0.0,1.0
1463750819230399086,372,1463750819227990191,,-1.99716866016,15.819560051,-63.5349273682,0.0200539994985,1.0,0.0,0.0,0.0,1.0,0.0,0.0,0.0,1.0,-54.7560997009,14.5121955872,14.5731706619,1.0,0.0,0.0,0.0,1.0,0.0,0.0,0.0,1.0,34.7781709773,-3.39976635742,-9.10754311523,1.0,0.0,0.0,0.0,1.0,0.0,0.0,0.0,1.0
1463750819258925006,373,1463750819245823656,,-3.26285028458,14.1477222443,-63.2008323669,0.0199480000883,1.0,0.0,0.0,0.0,1.0,0.0,0.0,0.0,1.0,-65.4878082275,-43.9024391174,14.2682924271,1.0,0.0,0.0,0.0,1.0,0.0,0.0,0.0,1.0,-22.1559421631,0.507570751953,10.3429511719,1.0,0.0,0.0,0.0,1.0,0.0,0.0,0.0,1.0
1463750819269214702,374,1463750819265870393,,-4.2440237999,13.876750946,-64.5441436768,0.0200030002743,1.0,0.0,0.0,0.0,1.0,0.0,0.0,0.0,1.0,-10.0,-62.0731735229,-63.1707305908,1.0,0.0,0.0,0.0,1.0,0.0,0.0,0.0,1.0,21.2557223389,9.42836555317,0.986411083984,1.0,0.0,0.0,0.0,1.0,0.0,0.0,0.0,1.0
1463750819288039621,375,1463750819285824943,,-3.99152135849,14.4563331604,-64.8559036255,0.0199900008738,1.0,0.0,0.0,0.0,1.0,0.0,0.0,0.0,1.0,15.7317075729,84.2682952881,-9.20731735229,1.0,0.0,0.0,0.0,1.0,0.0,0.0,0.0,1.0,-6.66545742187,0.0239420166016,-2.33674067418,1.0,0.0,0.0,0.0,1.0,0.0,0.0,0.0,1.0
1463750819308370680,376,1463750819305827462,,-3.58011054993,16.4740428925,-65.2934646606,0.019999999553,1.0,0.0,0.0,0.0,1.0,0.0,0.0,0.0,1.0,30.7317066193,72.3780517578,-15.4878053665,1.0,0.0,0.0,0.0,1.0,0.0,0.0,0.0,1.0,21.3754324219,3.72058937988,-22.0218668701,1.0,0.0,0.0,0.0,1.0,0.0,0.0,0.0,1.0
1463750819328746947,377,1463750819325829772,,-4.22655248642,14.5928697586,-64.6652679443,0.0200040005147,1.0,0.0,0.0,0.0,1.0,0.0,0.0,0.0,1.0,-22.5609760284,-78.9024429321,30.1829280853,1.0,0.0,0.0,0.0,1.0,0.0,0.0,0.0,1.0,-0.550666381836,2.67671745605,-6.37815322266,1.0,0.0,0.0,0.0,1.0,0.0,0.0,0.0,1.0
1463750819347989157,378,1463750819345819166,,-4.89973068237,14.5952320099,-64.4359970093,0.0199960004538,1.0,0.0,0.0,0.0,1.0,0.0,0.0,0.0,1.0,-36.4024391174,-17.6829280853,9.75609779358,1.0,0.0,0.0,0.0,1.0,0.0,0.0,0.0,1.0,0.0430956298828,-0.407014282227,5.15711037598,1.0,0.0,0.0,0.0,1.0,0.0,0.0,0.0,1.0
1463750819369930938,379,1463750819365847153,,-5.81112957001,17.2060203552,-64.6675949097,0.0200009997934,1.0,0.0,0.0,0.0,1.0,0.0,0.0,0.0,1.0,-19.8780498505,122.439033508,6.15853643417,1.0,0.0,0.0,0.0,1.0,0.0,0.0,0.0,1.0,-1.96324536133,5.05655390625,14.6525141602,1.0,0.0,0.0,0.0,1.0,0.0,0.0,0.0,1.0
1463750819388995492,380,1463750819385854880,,-7.71477174759,22.943977356,-66.1565475464,0.0200009997934,1.0,0.0,0.0,0.0,1.0,0.0,0.0,0.0,1.0,-93.2926864624,280.54876709,-44.6341438293,1.0,0.0,0.0,0.0,1.0,0.0,0.0,0.0,1.0,24.9284276855,-19.8287781494,-43.8426208008,1.0,0.0,0.0,0.0,1.0,0.0,0.0,0.0,1.0
1463750819407591975,381,1463750819405840055,,-9.13576030731,24.2155685425,-66.7078018188,0.0200009997934,1.0,0.0,0.0,0.0,1.0,0.0,0.0,0.0,1.0,-52.5609779358,73.0487823486,-11.5853662491,1.0,0.0,0.0,0.0,1.0,0.0,0.0,0.0,1.0,5.67425793457,6.28717355957,-22.2469218262,1.0,0.0,0.0,0.0,1.0,0.0,0.0,0.0,1.0
1463750819429072716,382,1463750819425850438,,-9.11036014557,26.9408111572,-67.5358047485,0.0200009997934,1.0,0.0,0.0,0.0,1.0,0.0,0.0,0.0,1.0,-13.9024391174,165.243896484,-26.5243911743,1.0,0.0,0.0,0.0,1.0,0.0,0.0,0.0,1.0,-3.0885201416,-11.8896054443,-19.1871321045,1.0,0.0,0.0,0.0,1.0,0.0,0.0,0.0,1.0
1463750819449659399,383,1463750819445984311,,-8.83501243591,28.0357837677,-67.4414291382,0.0200319997966,1.0,0.0,0.0,0.0,1.0,0.0,0.0,0.0,1.0,-7.92682981491,60.9146347046,3.65853667259,1.0,0.0,0.0,0.0,1.0,0.0,0.0,0.0,1.0,5.81312163086,-5.08049592285,-18.6987149658,1.0,0.0,0.0,0.0,1.0,0.0,0.0,0.0,1.0
1463750819467919373,384,1463750819465942506,,-8.63340473175,28.5993366241,-67.7771911621,0.0199699997902,1.0,0.0,0.0,0.0,1.0,0.0,0.0,0.0,1.0,-8.41463470459,75.1829299927,-17.7439022064,1.0,0.0,0.0,0.0,1.0,0.0,0.0,0.0,1.0,-21.1120702393,-13.0005150146,-5.91367810059,1.0,0.0,0.0,0.0,1.0,0.0,0.0,0.0,1.0
1463750819488531108,385,1463750819486181326,,-9.25322532654,30.4442138672,-68.3889160156,0.0199909992516,1.0,0.0,0.0,0.0,1.0,0.0,0.0,0.0,1.0,-14.6951217651,97.7439041138,-11.0365858078,1.0,0.0,0.0,0.0,1.0,0.0,0.0,0.0,1.0,10.0652237793,3.73495458984,-22.0027132568,1.0,0.0,0.0,0.0,1.0,0.0,0.0,0.0,1.0
1463750819511249865,386,1463750819505790826,,-10.9784908295,32.8436965942,-69.9297714233,0.0200020000339,1.0,0.0,0.0,0.0,1.0,0.0,0.0,0.0,1.0,-77.7439041138,163.475601196,-57.1951217651,1.0,0.0,0.0,0.0,1.0,0.0,0.0,0.0,1.0,-19.0961536105,-17.3819040527,-0.0622492431641,1.0,0.0,0.0,0.0,1.0,0.0,0.0,0.0,1.0
1463750819529761088,387,1463750819525817459,,-12.2822294235,34.2209815979,-70.7363128662,0.0199960004538,1.0,0.0,0.0,0.0,1.0,0.0,0.0,0.0,1.0,-22.5609760284,35.3048782349,-13.1707324982,1.0,0.0,0.0,0.0,1.0,0.0,0.0,0.0,1.0,4.11802685547,6.25365473633,25.0337725586,1.0,0.0,0.0,0.0,1.0,0.0,0.0,0.0,1.0
1463750819549105068,388,1463750819545894300,,-10.1166286469,29.1827220917,-69.6749801636,0.0200009997934,1.0,0.0,0.0,0.0,1.0,0.0,0.0,0.0,1.0,80.9146347046,-215.548782349,4.93902444839,1.0,0.0,0.0,0.0,1.0,0.0,0.0,0.0,1.0,-17.1807922823,12.4785790527,-55.521536499,1.0,0.0,0.0,0.0,1.0,0.0,0.0,0.0,1.0
1463750819569119045,389,1463750819565900673,,-9.01714038849,27.3432655334,-68.6298141479,0.0200020000339,1.0,0.0,0.0,0.0,1.0,0.0,0.0,0.0,1.0,12.5609760284,-128.719512939,14.5731706619,1.0,0.0,0.0,0.0,1.0,0.0,0.0,0.0,1.0,11.2192289795,-3.84987626953,-6.13873305664,1.0,0.0,0.0,0.0,1.0,0.0,0.0,0.0,1.0
1463750819589514062,390,1463750819586471158,,-10.6754102707,30.9005317688,-69.615524292,0.0200020000339,1.0,0.0,0.0,0.0,1.0,0.0,0.0,0.0,1.0,-74.2682952881,233.231704712,-12.1951217651,1.0,0.0,0.0,0.0,1.0,0.0,0.0,0.0,1.0,-16.0219975098,-4.8554409668,-3.97437475586,1.0,0.0,0.0,0.0,1.0,0.0,0.0,0.0,1.0
1463750819609469341,391,1463750819605819721,,-10.2761297226,29.3115100861,-69.2565994263,0.0200009997934,1.0,0.0,0.0,0.0,1.0,0.0,0.0,0.0,1.0,6.52439069748,-68.5365905762,0.548780500889,1.0,0.0,0.0,0.0,1.0,0.0,0.0,0.0,1.0,3.0166940918,0.871489404297,-10.3046439453,1.0,0.0,0.0,0.0,1.0,0.0,0.0,0.0,1.0
1463750819629372224,392,1463750819625787917,,-10.6741294861,30.8007202148,-70.7161254883,0.019991999492,1.0,0.0,0.0,0.0,1.0,0.0,0.0,0.0,1.0,15.8536596298,138.597564697,-39.2073173523,1.0,0.0,0.0,0.0,1.0,0.0,0.0,0.0,1.0,-19.7808941162,1.07739082014,-9.193734375,1.0,0.0,0.0,0.0,1.0,0.0,0.0,0.0,1.0
1463750819648300060,393,1463750819645724655,,-11.7435941696,32.1966056824,-70.8815078735,0.0200009997934,1.0,0.0,0.0,0.0,1.0,0.0,0.0,0.0,1.0,-37.9268302917,50.9756088257,9.87804889679,1.0,0.0,0.0,0.0,1.0,0.0,0.0,0.0,1.0,6.09563742676,2.87304199219,-5.08049592285,1.0,0.0,0.0,0.0,1.0,0.0,0.0,0.0,1.0
1463750819668335860,394,1463750819665945089,,-13.2380714417,34.8757514954,-71.47290802,0.0200100000948,1.0,0.0,0.0,0.0,1.0,0.0,0.0,0.0,1.0,-61.4634132385,94.8780517578,-5.85365867615,1.0,0.0,0.0,0.0,1.0,0.0,0.0,0.0,1.0,7.28794985352,-0.244208569336,-1.56101948242,1.0,0.0,0.0,0.0,1.0,0.0,0.0,0.0,1.0
1463750819688369472,395,1463750819685900785,,-13.1230010986,32.0534667969,-70.4590682983,0.0199950002134,1.0,0.0,0.0,0.0,1.0,0.0,0.0,0.0,1.0,-27.0121955872,-97.3780517578,17.5609760284,1.0,0.0,0.0,0.0,1.0,0.0,0.0,0.0,1.0,-13.2543003906,-0.675164868164,-3.66312854004,1.0,0.0,0.0,0.0,1.0,0.0,0.0,0.0,1.0
1463750819708994280,396,1463750819705883772,,-14.0710039139,32.5474662781,-72.1962509155,0.0200050007552,1.0,0.0,0.0,0.0,1.0,0.0,0.0,0.0,1.0,35.3048782349,-1.03658533096,-51.7073173523,1.0,0.0,0.0,0.0,1.0,0.0,0.0,0.0,1.0,19.5271087402,27.7057016113,30.2291901611,1.0,0.0,0.0,0.0,1.0,0.0,0.0,0.0,1.0
1463750819729544713,397,1463750819725881656,,-15.1911716461,35.179485321,-73.1240692139,0.019991999492,1.0,0.0,0.0,0.0,1.0,0.0,0.0,0.0,1.0,-30.975610733,187.987808228,8.29268264771,1.0,0.0,0.0,0.0,1.0,0.0,0.0,0.0,1.0,-26.0297604492,0.995987890625,-7.0006456543,1.0,0.0,0.0,0.0,1.0,0.0,0.0,0.0,1.0
1463750819749591190,398,1463750819745808289,,-15.4858074188,34.7241668701,-73.6139984131,0.0200030002743,1.0,0.0,0.0,0.0,1.0,0.0,0.0,0.0,1.0,-12.8048782349,-22.0121955872,-35.5487823486,1.0,0.0,0.0,0.0,1.0,0.0,0.0,0.0,1.0,14.2263462646,-1.57538469238,-17.1185418701,1.0,0.0,0.0,0.0,1.0,0.0,0.0,0.0,1.0
1463750819768649389,399,1463750819766131275,,-15.1935682297,34.1606636047,-73.8399810791,0.0200009997934,1.0,0.0,0.0,0.0,1.0,0.0,0.0,0.0,1.0,9.32926845551,24.0243911743,-11.0975618362,1.0,0.0,0.0,0.0,1.0,0.0,0.0,0.0,1.0,-21.0402441895,-1.25456166992,-35.1660339844,1.0,0.0,0.0,0.0,1.0,0.0,0.0,0.0,1.0
1463750819789687268,400,1463750819785828951,,-14.2589263916,36.1410293579,-73.5593948364,0.0200030002743,1.0,0.0,0.0,0.0,1.0,0.0,0.0,0.0,1.0,0.365853667259,69.2682952881,2.5,1.0,0.0,0.0,0.0,1.0,0.0,0.0,0.0,1.0,2.92092602539,-8.28872556294,1.98718737793,1.0,0.0,0.0,0.0,1.0,0.0,0.0,0.0,1.0
1463750819808903436,401,1463750819805883189,,-13.9404201508,35.8651008606,-73.8497772217,0.0199970006943,1.0,0.0,0.0,0.0,1.0,0.0,0.0,0.0,1.0,0.12195122242,26.7682933807,-23.5975627899,1.0,0.0,0.0,0.0,1.0,0.0,0.0,0.0,1.0,-21.092916626,-13.6661030762,-1.8148048584,1.0,0.0,0.0,0.0,1.0,0.0,0.0,0.0,1.0
1463750819828299291,402,1463750819825867895,,-12.8488302231,32.1308441162,-73.1716995239,0.0199939999729,1.0,0.0,0.0,0.0,1.0,0.0,0.0,0.0,1.0,24.5731716156,-135.60975647,-10.7317075729,1.0,0.0,0.0,0.0,1.0,0.0,0.0,0.0,1.0,-0.799663354492,-0.0957680664062,-0.718260498047,1.0,0.0,0.0,0.0,1.0,0.0,0.0,0.0,1.0
1463750819848269361,403,1463750819845854997,,-16.1123104095,34.973815918,-73.7652435303,0.0200020000339,1.0,0.0,0.0,0.0,1.0,0.0,0.0,0.0,1.0,-116.768287659,98.3536605835,20.6707324982,1.0,0.0,0.0,0.0,1.0,0.0,0.0,0.0,1.0,23.0561619873,17.14727229,7.26879624023,1.0,0.0,0.0,0.0,1.0,0.0,0.0,0.0,1.0
1463750819868951721,404,1463750819866332774,,-19.1002693176,37.9709091187,-75.3951644897,0.0200040005147,1.0,0.0,0.0,0.0,1.0,0.0,0.0,0.0,1.0,-100.609764099,180.670730591,-11.4634151459,1.0,0.0,0.0,0.0,1.0,0.0,0.0,0.0,1.0,11.9757967041,13.2255699707,-45.8968458252,1.0,0.0,0.0,0.0,1.0,0.0,0.0,0.0,1.0
1463750819888485231,405,1463750819885786284,,-19.7506542206,39.3070220947,-75.4289550781,0.0199960004538,1.0,0.0,0.0,0.0,1.0,0.0,0.0,0.0,1.0,-27.5,41.6463432312,16.8292694092,1.0,0.0,0.0,0.0,1.0,0.0,0.0,0.0,1.0,32.4893141902,9.25598361816,-17.3819040527,1.0,0.0,0.0,0.0,1.0,0.0,0.0,0.0,1.0
1463750819908464573,406,1463750819905869324,,-19.1751327515,38.5470466614,-76.4487609863,0.0200040005147,1.0,0.0,0.0,0.0,1.0,0.0,0.0,0.0,1.0,37.5,19.5121955872,-54.8780517578,1.0,0.0,0.0,0.0,1.0,0.0,0.0,0.0,1.0,-16.5439334717,-9.48582756206,-5.54497104492,1.0,0.0,0.0,0.0,1.0,0.0,0.0,0.0,1.0
1463750819928285634,407,1463750819925837780,,-18.8219738007,35.0104789734,-74.9102249146,0.0199979990721,1.0,0.0,0.0,0.0,1.0,0.0,0.0,0.0,1.0,-7.01219511032,-173.475616455,24.2073173523,1.0,0.0,0.0,0.0,1.0,0.0,0.0,0.0,1.0,5.7748144043,25.9196271729,-23.037008374,1.0,0.0,0.0,0.0,1.0,0.0,0.0,0.0,1.0
1463750819948306590,408,1463750819945826236,,-17.4892082214,32.1634712219,-74.140045166,0.0200110003352,1.0,0.0,0.0,0.0,1.0,0.0,0.0,0.0,1.0,24.4512195587,-109.329269409,-16.7682933807,1.0,0.0,0.0,0.0,1.0,0.0,0.0,0.0,1.0,-10.5823713379,-10.9367131836,-72.3671440561,1.0,0.0,0.0,0.0,1.0,0.0,0.0,0.0,1.0
1463750819968520462,409,1463750819966062243,,-16.2460975647,29.5698814392,-74.0864639282,0.0199960004538,1.0,0.0,0.0,0.0,1.0,0.0,0.0,0.0,1.0,41.7682952881,-164.146347046,-60.2439041138,1.0,0.0,0.0,0.0,1.0,0.0,0.0,0.0,1.0,47.2232335449,-84.6398170898,89.4234320068,1.0,0.0,0.0,0.0,1.0,0.0,0.0,0.0,1.0
1463750819988094701,410,1463750819985896013,,-16.6512966156,27.6058635712,-75.503326416,0.0200110003352,1.0,0.0,0.0,0.0,1.0,0.0,0.0,0.0,1.0,33.1097564697,-116.646339417,-87.134147644,1.0,0.0,0.0,0.0,1.0,0.0,0.0,0.0,1.0,6.56011254883,3.47638081055,28.2946752197,1.0,0.0,0.0,0.0,1.0,0.0,0.0,0.0,1.0
1463750820008807321,411,1463750820005862750,,-13.2705144882,21.116235733,-73.8576812744,0.0199870001525,1.0,0.0,0.0,0.0,1.0,0.0,0.0,0.0,1.0,156.524398804,-333.780517578,0.670731723309,1.0,0.0,0.0,0.0,1.0,0.0,0.0,0.0,1.0,-27.3130525391,9.7348239502,44.8098782715,1.0,0.0,0.0,0.0,1.0,0.0,0.0,0.0,1.0
1463750820028371248,412,1463750820025763394,,-12.5791740417,13.8005590439,-72.5268783569,0.019991999492,1.0,0.0,0.0,0.0,1.0,0.0,0.0,0.0,1.0,26.0365848541,-387.195129395,-18.9024391174,1.0,0.0,0.0,0.0,1.0,0.0,0.0,0.0,1.0,-1.93930334473,-0.282515795898,13.9246768555,1.0,0.0,0.0,0.0,1.0,0.0,0.0,0.0,1.0
1463750820048401162,413,1463750820045761798,,-16.1382846832,18.5388240814,-75.1526641846,0.0200020000339,1.0,0.0,0.0,0.0,1.0,0.0,0.0,0.0,1.0,-104.939025879,254.695129395,-55.3048820496,1.0,0.0,0.0,0.0,1.0,0.0,0.0,0.0,1.0,7.48427438965,26.3888906982,-18.521544043,1.0,0.0,0.0,0.0,1.0,0.0,0.0,0.0,1.0
1463750820069134146,414,1463750820065981087,,-16.5741996765,18.640378952,-74.9522781372,0.019999999553,1.0,0.0,0.0,0.0,1.0,0.0,0.0,0.0,1.0,-21.9512195587,41.0975646973,23.2926845551,1.0,0.0,0.0,0.0,1.0,0.0,0.0,0.0,1.0,-25.6610533936,-1.6041151123,10.3429511719,1.0,0.0,0.0,0.0,1.0,0.0,0.0,0.0,1.0
1463750820088130315,415,1463750820085833502,,-17.1630172729,22.3908691406,-76.3759536743,0.0200020000339,1.0,0.0,0.0,0.0,1.0,0.0,0.0,0.0,1.0,-8.5365858078,210.548797607,-6.89024400711,1.0,0.0,0.0,0.0,1.0,0.0,0.0,0.0,1.0,0.46447512207,1.14921679688,-5.47793339844,1.0,0.0,0.0,0.0,1.0,0.0,0.0,0.0,1.0
1463750820107601586,416,1463750820105860656,,-18.4323654175,25.5128669739,-77.3555450439,0.0200020000339,1.0,0.0,0.0,0.0,1.0,0.0,0.0,0.0,1.0,-14.0243902206,173.963409424,21.9512195587,1.0,0.0,0.0,0.0,1.0,0.0,0.0,0.0,1.0,-7.24964262695,4.40054265137,8.99740983887,1.0,0.0,0.0,0.0,1.0,0.0,0.0,0.0,1.0
1463750820128564049,417,1463750820125830779,,-22.7951793671,31.4677448273,-82.3556671143,0.0199979990721,1.0,0.0,0.0,0.0,1.0,0.0,0.0,0.0,1.0,-90.8536605835,399.573181152,-81.6463394165,1.0,0.0,0.0,0.0,1.0,0.0,0.0,0.0,1.0,-26.2548154053,18.9237687528,-34.7973245906,1.0,0.0,0.0,0.0,1.0,0.0,0.0,0.0,1.0
1463750820149070836,418,1463750820145830016,,-20.4502506256,30.914680481,-79.4761276245,0.0199950002134,1.0,0.0,0.0,0.0,1.0,0.0,0.0,0.0,1.0,-1.2195122242,-42.3780517578,87.0121994019,1.0,0.0,0.0,0.0,1.0,0.0,0.0,0.0,1.0,-15.9118642334,-33.5140348389,-19.5845695801,1.0,0.0,0.0,0.0,1.0,0.0,0.0,0.0,1.0
1463750820170405797,419,1463750820166186804,,-19.0018348694,28.0491943359,-79.1841583252,0.0200120005757,1.0,0.0,0.0,0.0,1.0,0.0,0.0,0.0,1.0,76.8292694092,-157.804885864,-35.4878044128,1.0,0.0,0.0,0.0,1.0,0.0,0.0,0.0,1.0,19.2014984835,12.1912748535,-14.7051865967,1.0,0.0,0.0,0.0,1.0,0.0,0.0,0.0,1.0
1463750820189802328,420,1463750820185875158,,-15.8092803955,25.1195793152,-78.0000839233,0.0199929997325,1.0,0.0,0.0,0.0,1.0,0.0,0.0,0.0,1.0,111.341468811,-110.67073822,10.1829271317,1.0,0.0,0.0,0.0,1.0,0.0,0.0,0.0,1.0,-17.4968257324,-7.93917270508,-3.88818349609,1.0,0.0,0.0,0.0,1.0,0.0,0.0,0.0,1.0
1463750820208998705,421,1463750820205866531,,-15.1646060944,21.4792060852,-76.2150878906,0.0199970006943,1.0,0.0,0.0,0.0,1.0,0.0,0.0,0.0,1.0,-18.3536586761,-146.036590576,37.7439041138,1.0,0.0,0.0,0.0,1.0,0.0,0.0,0.0,1.0,-17.2621939697,-3.9121255127,-7.79073220215,1.0,0.0,0.0,0.0,1.0,0.0,0.0,0.0,1.0
1463750820228396122,422,1463750820225747748,,-13.7892045975,22.6372661591,-75.2514953613,0.0199950002134,1.0,0.0,0.0,0.0,1.0,0.0,0.0,0.0,1.0,16.5243911743,26.0365848541,38.6585388184,1.0,0.0,0.0,0.0,1.0,0.0,0.0,0.0,1.0,8.45631967915,-7.31668027344,-9.01656345215,1.0,0.0,0.0,0.0,1.0,0.0,0.0,0.0,1.0
1463750820249054106,423,1463750820245917453,,-12.7667856216,18.2532920837,-75.3198165894,0.0200089998543,1.0,0.0,0.0,0.0,1.0,0.0,0.0,0.0,1.0,44.2073173523,-175.243911743,-47.4390258789,1.0,0.0,0.0,0.0,1.0,0.0,0.0,0.0,1.0,-28.2228491699,4.41011945801,-67.7990026123,1.0,0.0,0.0,0.0,1.0,0.0,0.0,0.0,1.0
1463750820270342765,424,1463750820266018200,,-13.2760715485,18.6384830475,-76.1778030396,0.019999999553,1.0,0.0,0.0,0.0,1.0,0.0,0.0,0.0,1.0,-20.9146347046,-5.54878091812,-45.7317085266,1.0,0.0,0.0,0.0,1.0,0.0,0.0,0.0,1.0,27.7248552246,-1.52271225586,-20.6380183105,1.0,0.0,0.0,0.0,1.0,0.0,0.0,0.0,1.0
1463750820288847061,425,1463750820286075302,,-13.4126014709,16.3606987,-76.7087783813,0.0199960004538,1.0,0.0,0.0,0.0,1.0,0.0,0.0,0.0,1.0,8.47560977936,-57.3780479431,-36.7682952881,1.0,0.0,0.0,0.0,1.0,0.0,0.0,0.0,1.0,-22.4623999756,2.44687409668,2.29364519043,1.0,0.0,0.0,0.0,1.0,0.0,0.0,0.0,1.0
1463750820308553071,426,1463750820305912457,,-13.113161087,14.5292730331,-77.0479812622,0.0200040005147,1.0,0.0,0.0,0.0,1.0,0.0,0.0,0.0,1.0,33.7804870605,-122.560974121,-41.2195129395,1.0,0.0,0.0,0.0,1.0,0.0,0.0,0.0,1.0,9.92636008301,1.04387185076,24.0521498779,1.0,0.0,0.0,0.0,1.0,0.0,0.0,0.0,1.0
1463750820327888873,427,1463750820325882840,,-15.3361024857,20.7244625092,-79.766494751,0.0199970006943,1.0,0.0,0.0,0.0,1.0,0.0,0.0,0.0,1.0,-59.7560997009,355.487823486,-40.9756088257,1.0,0.0,0.0,0.0,1.0,0.0,0.0,0.0,1.0,-7.42202514648,13.005303418,-29.6066977295,1.0,0.0,0.0,0.0,1.0,0.0,0.0,0.0,1.0
1463750820349679978,428,1463750820345905828,,-14.1043891907,20.2560214996,-79.1646270752,0.0200040005147,1.0,0.0,0.0,0.0,1.0,0.0,0.0,0.0,1.0,31.9512214661,17.8658542633,27.1341457367,1.0,0.0,0.0,0.0,1.0,0.0,0.0,0.0,1.0,-14.7434938232,-4.0557776123,-14.2981723145,1.0,0.0,0.0,0.0,1.0,0.0,0.0,0.0,1.0
1463750820368027504,429,1463750820365761576,,-14.0793552399,20.4181251526,-79.0961608887,0.019991999492,1.0,0.0,0.0,0.0,1.0,0.0,0.0,0.0,1.0,14.8780498505,-27.1951236725,2.31707310677,1.0,0.0,0.0,0.0,1.0,0.0,0.0,0.0,1.0,35.5155874268,17.5303445557,-20.2453692383,1.0,0.0,0.0,0.0,1.0,0.0,0.0,0.0,1.0
1463750820388460750,430,1463750820386139926,,-15.4942951202,23.3345909119,-80.1845626831,0.0200079996139,1.0,0.0,0.0,0.0,1.0,0.0,0.0,0.0,1.0,-59.5731735229,206.34147644,-1.58536589146,1.0,0.0,0.0,0.0,1.0,0.0,0.0,0.0,1.0,-30.0663844482,-3.84508786621,-7.78115539551,1.0,0.0,0.0,0.0,1.0,0.0,0.0,0.0,1.0
1463750820409727638,431,1463750820406144945,,-14.6826381683,20.8308868408,-79.0939407349,0.0199979990721,1.0,0.0,0.0,0.0,1.0,0.0,0.0,0.0,1.0,-5.36585378647,-101.89024353,13.9024391174,1.0,0.0,0.0,0.0,1.0,0.0,0.0,0.0,1.0,-3.41413156738,-3.26090266113,-11.765106958,1.0,0.0,0.0,0.0,1.0,0.0,0.0,0.0,1.0
1463750820429612709,432,1463750820425845903,,-15.6925926208,21.6048927307,-79.6595306396,0.019991999492,1.0,0.0,0.0,0.0,1.0,0.0,0.0,0.0,1.0,-72.1951293945,82.9268341064,-17.4390239716,1.0,0.0,0.0,0.0,1.0,0.0,0.0,0.0,1.0,-8.50899328472,-7.41244833984,-12.9095353516,1.0,0.0,0.0,0.0,1.0,0.0,0.0,0.0,1.0
1463750820452413758,433,1463750820446520658,,-13.8556003571,17.8265552521,-78.9755783081,0.0200389996171,1.0,0.0,0.0,0.0,1.0,0.0,0.0,0.0,1.0,70.9146347046,-142.987808228,-7.13414621353,1.0,0.0,0.0,0.0,1.0,0.0,0.0,0.0,1.0,-23.4631762695,0.536301208408,-25.1870014648,1.0,0.0,0.0,0.0,1.0,0.0,0.0,0.0,1.0
1463750820469247019,434,1463750820466132605,,-12.2175188065,19.8878078461,-79.2700881958,0.020005999133,1.0,0.0,0.0,0.0,1.0,0.0,0.0,0.0,1.0,109.695121765,58.2926826477,6.34146356583,1.0,0.0,0.0,0.0,1.0,0.0,0.0,0.0,1.0,12.2870429199,6.55053574219,-2.01112939453,1.0,0.0,0.0,0.0,1.0,0.0,0.0,0.0,1.0
1463750820489446985,435,1463750820486020854,,-12.6619253159,18.8316707611,-80.0021209717,0.0199590008706,1.0,0.0,0.0,0.0,1.0,0.0,0.0,0.0,1.0,-36.8292694092,-26.8902454376,-51.0975608826,1.0,0.0,0.0,0.0,1.0,0.0,0.0,0.0,1.0,-11.03248125,-12.3157733398,10.1083194092,1.0,0.0,0.0,0.0,1.0,0.0,0.0,0.0,1.0
1463750820508927422,436,1463750820506379881,,-14.324429512,21.9912853241,-81.1979980469,0.0200040005147,1.0,0.0,0.0,0.0,1.0,0.0,0.0,0.0,1.0,-33.0487823486,129.573165894,-15.4878053665,1.0,0.0,0.0,0.0,1.0,0.0,0.0,0.0,1.0,38.8435277344,30.9713926758,-12.3253501465,1.0,0.0,0.0,0.0,1.0,0.0,0.0,0.0,1.0
1463750820532087844,437,1463750820525813913,,-16.5721588135,22.8254508972,-81.9561538696,0.0199960004538,1.0,0.0,0.0,0.0,1.0,0.0,0.0,0.0,1.0,-113.292678833,94.0853652954,-17.317073822,1.0,0.0,0.0,0.0,1.0,0.0,0.0,0.0,1.0,-35.4437590389,-12.2247936768,2.4756045166,1.0,0.0,0.0,0.0,1.0,0.0,0.0,0.0,1.0
1463750820549920372,438,1463750820546301065,,-17.9795722961,19.4777412415,-80.716217041,0.0200479999185,1.0,0.0,0.0,0.0,1.0,0.0,0.0,0.0,1.0,-89.634147644,-135.975616455,19.2073173523,1.0,0.0,0.0,0.0,1.0,0.0,0.0,0.0,1.0,-25.5700737305,15.1217776855,-41.6591088867,1.0,0.0,0.0,0.0,1.0,0.0,0.0,0.0,1.0
1463750820568361699,439,1463750820565811294,,-17.3651275635,16.1983299255,-80.8874359131,0.0199459996074,1.0,0.0,0.0,0.0,1.0,0.0,0.0,0.0,1.0,8.35365867615,-195.243911743,-80.1219482422,1.0,0.0,0.0,0.0,1.0,0.0,0.0,0.0,1.0,16.7019496122,-18.7849062256,13.5463929932,1.0,0.0,0.0,0.0,1.0,0.0,0.0,0.0,1.0
1463750820588696560,440,1463750820586357716,,-18.6257381439,17.7839813232,-82.7467422485,0.0200619995594,1.0,0.0,0.0,0.0,1.0,0.0,0.0,0.0,1.0,-11.5853662491,123.10975647,-45.365852356,1.0,0.0,0.0,0.0,1.0,0.0,0.0,0.0,1.0,-32.2882035889,11.3820346924,35.4341845703,1.0,0.0,0.0,0.0,1.0,0.0,0.0,0.0,1.0
1463750820613281664,441,1463750820605898987,,-19.595998764,18.6539535522,-84.735168457,0.0199529994279,1.0,0.0,0.0,0.0,1.0,0.0,0.0,0.0,1.0,15.0000009537,98.7195129395,-54.390247345,1.0,0.0,0.0,0.0,1.0,0.0,0.0,0.0,1.0,-16.0315743164,9.93593688965,11.1330377197,1.0,0.0,0.0,0.0,1.0,0.0,0.0,0.0,1.0
1463750820628878889,442,1463750820625750673,,-20.0382385254,18.4560317993,-86.3165740967,0.019991999492,1.0,0.0,0.0,0.0,1.0,0.0,0.0,0.0,1.0,20.4268302917,61.8292655945,-50.5487785339,1.0,0.0,0.0,0.0,1.0,0.0,0.0,0.0,1.0,-29.8748483154,16.5678754883,-12.3109849365,1.0,0.0,0.0,0.0,1.0,0.0,0.0,0.0,1.0
1463750820649208281,443,1463750820645803816,,-18.5500392914,17.8445072174,-86.7293014526,0.0199960004538,1.0,0.0,0.0,0.0,1.0,0.0,0.0,0.0,1.0,105.304878235,-13.7195129395,-16.158536911,1.0,0.0,0.0,0.0,1.0,0.0,0.0,0.0,1.0,-42.2863897217,13.5655466064,69.0439921518,1.0,0.0,0.0,0.0,1.0,0.0,0.0,0.0,1.0
1463750820670429440,444,1463750820665965084,,-15.3971290588,15.0178442001,-86.4635925293,0.0200040005147,1.0,0.0,0.0,0.0,1.0,0.0,0.0,0.0,1.0,124.024383545,-113.719512939,-30.4268321991,1.0,0.0,0.0,0.0,1.0,0.0,0.0,0.0,1.0,-21.8734263672,-23.783999292,10.5440641113,1.0,0.0,0.0,0.0,1.0,0.0,0.0,0.0,1.0
1463750820693241322,445,1463750820687051140,,-9.77999687195,15.0898504257,-88.1651077271,0.0199979990721,1.0,0.0,0.0,0.0,1.0,0.0,0.0,0.0,1.0,304.146331787,-22.0121955872,-90.8536605835,1.0,0.0,0.0,0.0,1.0,0.0,0.0,0.0,1.0,23.9132861816,3.17471140137,-11.0564232666,1.0,0.0,0.0,0.0,1.0,0.0,0.0,0.0,1.0
1463750820708294799,446,1463750820705773560,,-9.46628761292,17.0616111755,-86.9840545654,0.0200030002743,1.0,0.0,0.0,0.0,1.0,0.0,0.0,0.0,1.0,12.5,115.365859985,80.792678833,1.0,0.0,0.0,0.0,1.0,0.0,0.0,0.0,1.0,-31.124621582,5.08049592285,28.3377708496,1.0,0.0,0.0,0.0,1.0,0.0,0.0,0.0,1.0
1463750820728080548,447,1463750820725709308,,-9.86769485474,15.0175352097,-86.1724853516,0.0199939999729,1.0,0.0,0.0,0.0,1.0,0.0,0.0,0.0,1.0,2.74390244484,-70.5487823486,38.1707305908,1.0,0.0,0.0,0.0,1.0,0.0,0.0,0.0,1.0,-12.8377093018,9.90241806641,2.66235224609,1.0,0.0,0.0,0.0,1.0,0.0,0.0,0.0,1.0
1463750820748484888,448,1463750820745766358,,-7.7036857605,13.7860660553,-85.6069107056,0.020005999133,1.0,0.0,0.0,0.0,1.0,0.0,0.0,0.0,1.0,53.8414649963,-65.2439041138,4.69512224197,1.0,0.0,0.0,0.0,1.0,0.0,0.0,0.0,1.0,-6.26801994629,-48.3245663086,16.0603047363,1.0,0.0,0.0,0.0,1.0,0.0,0.0,0.0,1.0
1463750820768152356,449,1463750820765796220,,-8.43180656433,10.8009719849,-84.6489562988,0.0199970006943,1.0,0.0,0.0,0.0,1.0,0.0,0.0,0.0,1.0,-49.207321167,-163.170730591,23.5365848541,1.0,0.0,0.0,0.0,1.0,0.0,0.0,0.0,1.0,20.0059490723,4.12281525879,-53.0267783691,1.0,0.0,0.0,0.0,1.0,0.0,0.0,0.0,1.0
1463750820789042475,450,1463750820786012279,,-6.15252971649,5.53315591812,-83.1413040161,0.0200040005147,1.0,0.0,0.0,0.0,1.0,0.0,0.0,0.0,1.0,93.2926864624,-252.256088257,41.4024391174,1.0,0.0,0.0,0.0,1.0,0.0,0.0,0.0,1.0,-19.1871321045,-4.35744702148,-98.6602620117,1.0,0.0,0.0,0.0,1.0,0.0,0.0,0.0,1.0
1463750820808536818,451,1463750820805816101,,-6.70465803146,4.82388114929,-82.5999221802,0.0199939999729,1.0,0.0,0.0,0.0,1.0,0.0,0.0,0.0,1.0,-71.8292694092,-73.2926864624,14.9390249252,1.0,0.0,0.0,0.0,1.0,0.0,0.0,0.0,1.0,5.17626398926,-7.24485422363,2.57616098633,1.0,0.0,0.0,0.0,1.0,0.0,0.0,0.0,1.0
1463750820828159755,452,1463750820825726068,,-7.3072309494,1.21276652813,-82.256439209,0.019999999553,1.0,0.0,0.0,0.0,1.0,0.0,0.0,0.0,1.0,-20.9146347046,-128.841461182,2.07317066193,1.0,0.0,0.0,0.0,1.0,0.0,0.0,0.0,1.0,-16.6780087646,3.44765039062,-3.67749375,1.0,0.0,0.0,0.0,1.0,0.0,0.0,0.0,1.0
1463750820848516804,453,1463750820845769055,,-8.19090843201,8.40239238739,-82.3552703857,0.0200050007552,1.0,0.0,0.0,0.0,1.0,0.0,0.0,0.0,1.0,-47.0731697083,340.304870605,41.6463432312,1.0,0.0,0.0,0.0,1.0,0.0,0.0,0.0,1.0,19.9293346191,3.9600095459,-65.9937745605,1.0,0.0,0.0,0.0,1.0,0.0,0.0,0.0,1.0
1463750820867919065,454,1463750820866024437,,-8.43360996246,0.384825140238,-81.6649551392,0.019999999553,1.0,0.0,0.0,0.0,1.0,0.0,0.0,0.0,1.0,-19.8780498505,-386.463409424,-22.3170719147,1.0,0.0,0.0,0.0,1.0,0.0,0.0,0.0,1.0,-28.9219560547,6.83305153809,-156.901611597,1.0,0.0,0.0,0.0,1.0,0.0,0.0,0.0,1.0
1463750820887888458,455,1463750820885981487,,-6.75956821442,4.27874040604,-82.7335662842,0.0200020000339,1.0,0.0,0.0,0.0,1.0,0.0,0.0,0.0,1.0,53.9024391174,153.597564697,-34.2073173523,1.0,0.0,0.0,0.0,1.0,0.0,0.0,0.0,1.0,4.683058155,-3.51468803711,0.694318481445,1.0,0.0,0.0,0.0,1.0,0.0,0.0,0.0,1.0
1463750820909166076,456,1463750820905946037,,-6.01655864716,2.99592781067,-83.1840286255,0.019999999553,1.0,0.0,0.0,0.0,1.0,0.0,0.0,0.0,1.0,25.3048782349,-15.9146347046,-24.9390239716,1.0,0.0,0.0,0.0,1.0,0.0,0.0,0.0,1.0,-39.4133477295,-8.68137521973,-27.9259681641,1.0,0.0,0.0,0.0,1.0,0.0,0.0,0.0,1.0
1463750820928750627,457,1463750820925895067,,-6.32138252258,1.76456177235,-83.6248168945,0.0199929997325,1.0,0.0,0.0,0.0,1.0,0.0,0.0,0.0,1.0,-1.15853655338,-114.268295288,-33.5975608826,1.0,0.0,0.0,0.0,1.0,0.0,0.0,0.0,1.0,7.0724717041,1.81001645508,-1.2497732666,1.0,0.0,0.0,0.0,1.0,0.0,0.0,0.0,1.0
1463750820948953614,458,1463750820945896335,,-5.4629034996,-0.307928621769,-84.3971099854,0.0200050007552,1.0,0.0,0.0,0.0,1.0,0.0,0.0,0.0,1.0,51.5853691101,-71.8902435303,-45.6097564697,1.0,0.0,0.0,0.0,1.0,0.0,0.0,0.0,1.0,-22.9843359375,1.83395847168,35.0989963379,1.0,0.0,0.0,0.0,1.0,0.0,0.0,0.0,1.0
1463750820967820565,459,1463750820965784271,,-7.09397172928,2.25913977623,-85.4291915894,0.0199970006943,1.0,0.0,0.0,0.0,1.0,0.0,0.0,0.0,1.0,-34.1463432312,155.182937622,-35.1829299927,1.0,0.0,0.0,0.0,1.0,0.0,0.0,0.0,1.0,-7.57525405273,15.1074124756,-5.65031591797,1.0,0.0,0.0,0.0,1.0,0.0,0.0,0.0,1.0
1463750820987946156,460,1463750820985996424,,-6.78297567368,4.91309070587,-85.2334136963,0.0200110003352,1.0,0.0,0.0,0.0,1.0,0.0,0.0,0.0,1.0,8.47560977936,85.9756088257,20.0,1.0,0.0,0.0,0.0,1.0,0.0,0.0,0.0,1.0,12.4594254395,-0.713472094727,-9.92157167969,1.0,0.0,0.0,0.0,1.0,0.0,0.0,0.0,1.0
1463750821009548563,461,1463750821007517322,,-9.1878786087,9.39274787903,-84.7797546387,0.0200159996748,1.0,0.0,0.0,0.0,1.0,0.0,0.0,0.0,1.0,-102.621948242,257.073181152,59.8170700073,1.0,0.0,0.0,0.0,1.0,0.0,0.0,0.0,1.0,-34.6249420711,22.3474782959,-31.6417691406,1.0,0.0,0.0,0.0,1.0,0.0,0.0,0.0,1.0
1463750821029339260,462,1463750821026975416,,-10.1720333099,3.94280958176,-83.7442474365,0.0199730005115,1.0,0.0,0.0,0.0,1.0,0.0,0.0,0.0,1.0,-43.4756126404,-276.585388184,7.07317113876,1.0,0.0,0.0,0.0,1.0,0.0,0.0,0.0,1.0,4.02225878906,15.7059628906,-40.7397354492,1.0,0.0,0.0,0.0,1.0,0.0,0.0,0.0,1.0
1463750821050371149,463,1463750821046720071,,-10.9221954346,0.116244353354,-83.1519088745,0.0200020000339,1.0,0.0,0.0,0.0,1.0,0.0,0.0,0.0,1.0,-47.1951255798,-185.792678833,-5.06097555161,1.0,0.0,0.0,0.0,1.0,0.0,0.0,0.0,1.0,-7.88650026855,-10.5727945312,29.4534688232,1.0,0.0,0.0,0.0,1.0,0.0,0.0,0.0,1.0
1463750821068476697,464,1463750821065989676,,-11.3213634491,1.22281575203,-83.746963501,0.0199970006943,1.0,0.0,0.0,0.0,1.0,0.0,0.0,0.0,1.0,-16.6463413239,102.500007629,-9.87804889679,1.0,0.0,0.0,0.0,1.0,0.0,0.0,0.0,1.0,-35.4389729736,-3.09330854492,26.3314298584,1.0,0.0,0.0,0.0,1.0,0.0,0.0,0.0,1.0
1463750821089552492,465,1463750821086463859,,-11.0598449707,-1.50980877876,-84.9482727051,0.0200069993734,1.0,0.0,0.0,0.0,1.0,0.0,0.0,0.0,1.0,20.4268302917,-147.743911743,-90.0609741211,1.0,0.0,0.0,0.0,1.0,0.0,0.0,0.0,1.0,12.4642138428,-1.79565124512,28.6777474854,1.0,0.0,0.0,0.0,1.0,0.0,0.0,0.0,1.0
1463750821110419122,466,1463750821105954297,,-12.2244272232,4.51901626587,-87.5926132202,0.0199989993125,1.0,0.0,0.0,0.0,1.0,0.0,0.0,0.0,1.0,-67.9878082275,350.182952881,-62.134147644,1.0,0.0,0.0,0.0,1.0,0.0,0.0,0.0,1.0,-24.4208569336,-3.59609089355,-36.1189262451,1.0,0.0,0.0,0.0,1.0,0.0,0.0,0.0,1.0
1463750821130097475,467,1463750821126019419,,-12.1186285019,2.2742702961,-88.0319290161,0.0200120005757,1.0,0.0,0.0,0.0,1.0,0.0,0.0,0.0,1.0,10.4268293381,-100.0,-43.3536567688,1.0,0.0,0.0,0.0,1.0,0.0,0.0,0.0,1.0,-2.95444484863,15.2845833984,-54.1807835693,1.0,0.0,0.0,0.0,1.0,0.0,0.0,0.0,1.0
1463750821150635252,468,1463750821146302822,,-12.2529659271,4.29158639908,-88.8379669189,0.0199839994311,1.0,0.0,0.0,0.0,1.0,0.0,0.0,0.0,1.0,-60.6707382202,107.256103516,-19.8780498505,1.0,0.0,0.0,0.0,1.0,0.0,0.0,0.0,1.0,-0.641646044922,-20.9013804932,-4.22337143625,1.0,0.0,0.0,0.0,1.0,0.0,0.0,0.0,1.0
1463750821170188397,469,1463750821166690027,,-13.8588285446,4.13958597183,-89.7089233398,0.0200219992548,1.0,0.0,0.0,0.0,1.0,0.0,0.0,0.0,1.0,-63.2317123413,49.817073822,-32.134147644,1.0,0.0,0.0,0.0,1.0,0.0,0.0,0.0,1.0,-27.7823160645,5.02782348633,10.3812583984,1.0,0.0,0.0,0.0,1.0,0.0,0.0,0.0,1.0
1463750821190463831,470,1463750821186762597,,-14.2132577896,0.811489880085,-90.1328048706,0.0200709998608,1.0,0.0,0.0,0.0,1.0,0.0,0.0,0.0,1.0,0.365853667259,-162.743896484,-60.8536643982,1.0,0.0,0.0,0.0,1.0,0.0,0.0,0.0,1.0,0.373495458984,1.77649763184,31.5603662842,1.0,0.0,0.0,0.0,1.0,0.0,0.0,0.0,1.0
1463750821209158179,471,1463750821205972515,,-15.560760498,1.66070020199,-91.9477157593,0.0199270006269,1.0,0.0,0.0,0.0,1.0,0.0,0.0,0.0,1.0,-62.134147644,109.207321167,-64.9390258789,1.0,0.0,0.0,0.0,1.0,0.0,0.0,0.0,1.0,-65.1270735596,-5.51145222168,38.5849539551,1.0,0.0,0.0,0.0,1.0,0.0,0.0,0.0,1.0
1463750821228044817,472,1463750821225903732,,-14.9246692657,0.75100505352,-93.6643676758,0.0200779996812,1.0,0.0,0.0,0.0,1.0,0.0,0.0,0.0,1.0,68.7804870605,-48.4756126404,-100.304885864,1.0,0.0,0.0,0.0,1.0,0.0,0.0,0.0,1.0,14.456189624,13.7475059326,26.475081958,1.0,0.0,0.0,0.0,1.0,0.0,0.0,0.0,1.0
1463750821249726911,473,1463750821245810782,,-15.436211586,3.91922235489,-93.9861984253,0.0199059993029,1.0,0.0,0.0,0.0,1.0,0.0,0.0,0.0,1.0,-27.317073822,210.548797607,40.7926826477,1.0,0.0,0.0,0.0,1.0,0.0,0.0,0.0,1.0,-43.3781456787,-1.28808049316,-3.15555778809,1.0,0.0,0.0,0.0,1.0,0.0,0.0,0.0,1.0
1463750821269065475,474,1463750821265835436,,-16.1168632507,1.28027355671,-92.8894119263,0.0200009997934,1.0,0.0,0.0,0.0,1.0,0.0,0.0,0.0,1.0,-81.4024429321,-137.560974121,15.0000009537,1.0,0.0,0.0,0.0,1.0,0.0,0.0,0.0,1.0,-0.861912597656,-8.37012841938,-10.8026378906,1.0,0.0,0.0,0.0,1.0,0.0,0.0,0.0,1.0
1463750821287647114,475,1463750821285860455,,-15.452753067,2.06419658661,-93.7055130005,0.0200020000339,1.0,0.0,0.0,0.0,1.0,0.0,0.0,0.0,1.0,70.4268264771,33.2317085266,-31.6463413239,1.0,0.0,0.0,0.0,1.0,0.0,0.0,0.0,1.0,8.93994899902,15.5479455811,35.0463262395,1.0,0.0,0.0,0.0,1.0,0.0,0.0,0.0,1.0
1463750821307893173,476,1463750821305818078,,-16.9957885742,5.6309132576,-95.0377731323,0.0199989993125,1.0,0.0,0.0,0.0,1.0,0.0,0.0,0.0,1.0,-73.7804870605,241.768295288,1.15853655338,1.0,0.0,0.0,0.0,1.0,0.0,0.0,0.0,1.0,-39.3367332764,-2.3415290775,4.56813676758,1.0,0.0,0.0,0.0,1.0,0.0,0.0,0.0,1.0
1463750821327495954,477,1463750821325919606,,-17.3443393707,3.22068881989,-95.2181625366,0.0199979990721,1.0,0.0,0.0,0.0,1.0,0.0,0.0,0.0,1.0,-27.0121955872,-85.9146347046,-36.6463432312,1.0,0.0,0.0,0.0,1.0,0.0,0.0,0.0,1.0,-15.6197716309,2.7341782959,-31.7614792236,1.0,0.0,0.0,0.0,1.0,0.0,0.0,0.0,1.0
1463750821347471493,478,1463750821345852490,,-16.0562458038,-0.138611137867,-95.2348251343,0.0200040005147,1.0,0.0,0.0,0.0,1.0,0.0,0.0,0.0,1.0,59.207321167,-127.865852356,-38.7195129395,1.0,0.0,0.0,0.0,1.0,0.0,0.0,0.0,1.0,-18.7370221924,4.42448466797,-24.4926829834,1.0,0.0,0.0,0.0,1.0,0.0,0.0,0.0,1.0
1463750821367195992,479,1463750821365831936,,-15.9160766602,-5.69624853134,-95.522895813,0.0199989993125,1.0,0.0,0.0,0.0,1.0,0.0,0.0,0.0,1.0,7.07317113876,-251.585372925,-86.8292694092,1.0,0.0,0.0,0.0,1.0,0.0,0.0,0.0,1.0,-9.47146118306,-9.7587659668,34.5674812312,1.0,0.0,0.0,0.0,1.0,0.0,0.0,0.0,1.0
1463750821387629082,480,1463750821385814767,,-17.7877845764,0.0388646349311,-98.3929519653,0.019999999553,1.0,0.0,0.0,0.0,1.0,0.0,0.0,0.0,1.0,-86.2804946899,261.890258789,-70.0000076294,1.0,0.0,0.0,0.0,1.0,0.0,0.0,0.0,1.0,53.3763318115,14.456189624,-0.60812722168,1.0,0.0,0.0,0.0,1.0,0.0,0.0,0.0,1.0
1463750821407445091,481,1463750821405803379,,-21.6929111481,-4.78661108017,-97.7664260864,0.019999999553,1.0,0.0,0.0,0.0,1.0,0.0,0.0,0.0,1.0,-200.487808228,-188.780502319,-36.0975646973,1.0,0.0,0.0,0.0,1.0,0.0,0.0,0.0,1.0,-49.5503975586,-10.4387192383,12.0811415771,1.0,0.0,0.0,0.0,1.0,0.0,0.0,0.0,1.0
1463750821428416460,482,1463750821425926783,,-21.772102356,-1.35014772415,-99.311882019,0.0200009997934,1.0,0.0,0.0,0.0,1.0,0.0,0.0,0.0,1.0,2.25609779358,164.573181152,-17.1951217651,1.0,0.0,0.0,0.0,1.0,0.0,0.0,0.0,1.0,15.8879222168,-5.03261188965,27.8637189209,1.0,0.0,0.0,0.0,1.0,0.0,0.0,0.0,1.0
1463750821448255438,483,1463750821446055082,,-22.4041118622,1.45263457298,-101.229225159,0.0200369991362,1.0,0.0,0.0,0.0,1.0,0.0,0.0,0.0,1.0,-35.2439041138,215.304885864,-14.7560987473,1.0,0.0,0.0,0.0,1.0,0.0,0.0,0.0,1.0,-31.6513459473,-4.37660063477,4.46279189453,1.0,0.0,0.0,0.0,1.0,0.0,0.0,0.0,1.0
1463750821467615459,484,1463750821465829165,,-23.470746994,-0.343963563442,-101.94379425,0.0199699997902,1.0,0.0,0.0,0.0,1.0,0.0,0.0,0.0,1.0,-44.817073822,-19.3292694092,-46.4634170532,1.0,0.0,0.0,0.0,1.0,0.0,0.0,0.0,1.0,-19.5558391602,2.3415290775,1.4844050293,1.0,0.0,0.0,0.0,1.0,0.0,0.0,0.0,1.0
1463750821487973862,485,1463750821485886787,,-24.6451053619,-2.82525730133,-101.427680969,0.0199909992516,1.0,0.0,0.0,0.0,1.0,0.0,0.0,0.0,1.0,-69.634147644,-108.963417053,-19.9390239716,1.0,0.0,0.0,0.0,1.0,0.0,0.0,0.0,1.0,-16.4912610352,8.59039614116,-45.7196749023,1.0,0.0,0.0,0.0,1.0,0.0,0.0,0.0,1.0
1463750821508067942,486,1463750821505920191,,-24.4418735504,-6.3446559906,-101.540664673,0.0199979990721,1.0,0.0,0.0,0.0,1.0,0.0,0.0,0.0,1.0,7.07317113876,-126.951217651,-63.2926826477,1.0,0.0,0.0,0.0,1.0,0.0,0.0,0.0,1.0,-9.8305920166,-6.24407792969,11.4155535156,1.0,0.0,0.0,0.0,1.0,0.0,0.0,0.0,1.0
1463750821528093221,487,1463750821526023803,,-24.7673988342,-5.00973081589,-103.065101624,0.0199989993125,1.0,0.0,0.0,0.0,1.0,0.0,0.0,0.0,1.0,-24.1463432312,88.7195129395,-41.4634170532,1.0,0.0,0.0,0.0,1.0,0.0,0.0,0.0,1.0,-3.10288535156,14.815319873,-33.5571281307,1.0,0.0,0.0,0.0,1.0,0.0,0.0,0.0,1.0
1463750821547591888,488,1463750821545838250,,-24.3596191406,-6.70446205139,-103.716636658,0.0199900008738,1.0,0.0,0.0,0.0,1.0,0.0,0.0,0.0,1.0,-4.02439022064,-52.0731697083,-56.4634132385,1.0,0.0,0.0,0.0,1.0,0.0,0.0,0.0,1.0,-12.3301385498,0.488417138672,-32.202009991,1.0,0.0,0.0,0.0,1.0,0.0,0.0,0.0,1.0
1463750821567862270,489,1463750821565808945,,-25.0282421112,-10.3164663315,-103.838508606,0.0200139991939,1.0,0.0,0.0,0.0,1.0,0.0,0.0,0.0,1.0,-26.4024391174,-142.500015259,-72.7439041138,1.0,0.0,0.0,0.0,1.0,0.0,0.0,0.0,1.0,-7.76200178223,-7.19218178711,24.3298772705,1.0,0.0,0.0,0.0,1.0,0.0,0.0,0.0,1.0
1463750821588079475,490,1463750821585837141,,-24.3032531738,-9.21379852295,-106.736572266,0.019999999553,1.0,0.0,0.0,0.0,1.0,0.0,0.0,0.0,1.0,11.6463422775,139.817077637,-90.9756164551,1.0,0.0,0.0,0.0,1.0,0.0,0.0,0.0,1.0,-12.5887123291,4.46279189453,-9.8305920166,1.0,0.0,0.0,0.0,1.0,0.0,0.0,0.0,1.0
1463750821607928817,491,1463750821605821483,,-24.2193756104,-10.7396659851,-107.255249023,0.0199970006943,1.0,0.0,0.0,0.0,1.0,0.0,0.0,0.0,1.0,-29.8780498505,-23.7804889679,-32.4390220642,1.0,0.0,0.0,0.0,1.0,0.0,0.0,0.0,1.0,-12.7179992187,-6.14830986328,-6.76122548828,1.0,0.0,0.0,0.0,1.0,0.0,0.0,0.0,1.0
1463750821628057846,492,1463750821625924365,,-24.2472915649,-13.0316953659,-108.319450378,0.0199979990721,1.0,0.0,0.0,0.0,1.0,0.0,0.0,0.0,1.0,8.96341514587,-116.402435303,-113.231712341,1.0,0.0,0.0,0.0,1.0,0.0,0.0,0.0,1.0,16.6971623779,2.60967980957,14.5040736572,1.0,0.0,0.0,0.0,1.0,0.0,0.0,0.0,1.0
1463750821647565315,493,1463750821645820635,,-26.5253982544,-10.8593006134,-111.870811462,0.0200009997934,1.0,0.0,0.0,0.0,1.0,0.0,0.0,0.0,1.0,-112.743904114,209.817077637,-101.402442932,1.0,0.0,0.0,0.0,1.0,0.0,0.0,0.0,1.0,-3.08373173828,2.26970317383,3.21780703125,1.0,0.0,0.0,0.0,1.0,0.0,0.0,0.0,1.0
1463750821667292366,494,1463750821665814664,,-26.237783432,-10.6105031967,-113.915550232,0.0200040005147,1.0,0.0,0.0,0.0,1.0,0.0,0.0,0.0,1.0,-21.2804889679,50.6707344055,-81.8902435303,1.0,0.0,0.0,0.0,1.0,0.0,0.0,0.0,1.0,-5.04697709961,4.91290180664,-32.4126997371,1.0,0.0,0.0,0.0,1.0,0.0,0.0,0.0,1.0
1463750821688605295,495,1463750821685851609,,-25.7032756805,-13.799038887,-114.762268066,0.0200009997934,1.0,0.0,0.0,0.0,1.0,0.0,0.0,0.0,1.0,14.2073173523,-102.621948242,-94.2682952881,1.0,0.0,0.0,0.0,1.0,0.0,0.0,0.0,1.0,-6.19140549316,-9.22725319824,15.5431571777,1.0,0.0,0.0,0.0,1.0,0.0,0.0,0.0,1.0
1463750821709255520,496,1463750821705839076,,-26.5123596191,-11.1634302139,-117.832695007,0.0200009997934,1.0,0.0,0.0,0.0,1.0,0.0,0.0,0.0,1.0,-66.4024353027,181.707321167,-77.865852356,1.0,0.0,0.0,0.0,1.0,0.0,0.0,0.0,1.0,5.10922634277,-6.04296499023,17.9708788302,1.0,0.0,0.0,0.0,1.0,0.0,0.0,0.0,1.0
1463750821729008977,497,1463750821725820918,,-26.9757156372,-5.42462253571,-122.347335815,0.0199970006943,1.0,0.0,0.0,0.0,1.0,0.0,0.0,0.0,1.0,-79.4512176514,373.048797607,-54.5121955872,1.0,0.0,0.0,0.0,1.0,0.0,0.0,0.0,1.0,-26.5516964111,-3.35667072754,-40.1363966309,1.0,0.0,0.0,0.0,1.0,0.0,0.0,0.0,1.0
1463750821748489623,498,1463750821745830415,,-30.2321910858,-6.84761238098,-124.055114746,0.0199989993125,1.0,0.0,0.0,0.0,1.0,0.0,0.0,0.0,1.0,-117.439025879,-29.9390258789,-117.500007629,1.0,0.0,0.0,0.0,1.0,0.0,0.0,0.0,1.0,1.8866309082,12.6653267822,2.98796367187,1.0,0.0,0.0,0.0,1.0,0.0,0.0,0.0,1.0
1463750821768989535,499,1463750821765825590,,-32.2705802917,-3.8967525959,-128.775604248,0.0200050007552,1.0,0.0,0.0,0.0,1.0,0.0,0.0,0.0,1.0,-102.073173523,242.621963501,-128.048782349,1.0,0.0,0.0,0.0,1.0,0.0,0.0,0.0,1.0,-0.488417138672,20.1543895752,-15.2510645752,1.0,0.0,0.0,0.0,1.0,0.0,0.0,0.0,1.0
1463750821788319713,500,1463750821785834984,,-33.3243522644,3.99246883392,-135.751220703,0.0199989993125,1.0,0.0,0.0,0.0,1.0,0.0,0.0,0.0,1.0,-84.5731735229,493.475616455,-90.9146347046,1.0,0.0,0.0,0.0,1.0,0.0,0.0,0.0,1.0,30.8085869629,-8.79629689941,-58.9643984863,1.0,0.0,0.0,0.0,1.0,0.0,0.0,0.0,1.0
1463750821809114936,501,1463750821805810523,,-36.2838249207,4.44507884979,-140.268447876,0.019999999553,1.0,0.0,0.0,0.0,1.0,0.0,0.0,0.0,1.0,-121.646347046,186.158554077,-143.414642334,1.0,0.0,0.0,0.0,1.0,0.0,0.0,0.0,1.0,-31.2108128418,-2.52827695312,14.4897084473,1.0,0.0,0.0,0.0,1.0,0.0,0.0,0.0,1.0
1463750821828270792,502,1463750821825912000,,-39.5879249573,8.06170654297,-146.148498535,0.0199939999729,1.0,0.0,0.0,0.0,1.0,0.0,0.0,0.0,1.0,-138.414642334,296.036590576,-136.097564697,1.0,0.0,0.0,0.0,1.0,0.0,0.0,0.0,1.0,9.10754311523,-11.8177793945,12.7036340088,1.0,0.0,0.0,0.0,1.0,0.0,0.0,0.0,1.0
1463750821847716698,503,1463750821845840352,,-40.9057998657,13.0773620605,-154.177444458,0.0200069993734,1.0,0.0,0.0,0.0,1.0,0.0,0.0,0.0,1.0,-11.1585359573,472.378082275,-116.829269409,1.0,0.0,0.0,0.0,1.0,0.0,0.0,0.0,1.0,-30.1765177246,14.0779057617,-48.8369254639,1.0,0.0,0.0,0.0,1.0,0.0,0.0,0.0,1.0
1463750821867403125,504,1463750821865860319,,-41.9043197632,13.1288909912,-160.690536499,0.020027000457,1.0,0.0,0.0,0.0,1.0,0.0,0.0,0.0,1.0,-3.96341490746,224.207321167,-229.756088257,1.0,0.0,0.0,0.0,1.0,0.0,0.0,0.0,1.0,-4.66869294504,14.0731173584,-74.1101135123,1.0,0.0,0.0,0.0,1.0,0.0,0.0,0.0,1.0
1463750821887926370,505,1463750821885817629,,-42.0123519897,12.7939662933,-166.727416992,0.0199699997902,1.0,0.0,0.0,0.0,1.0,0.0,0.0,0.0,1.0,82.0121994019,193.292678833,-212.378051758,1.0,0.0,0.0,0.0,1.0,0.0,0.0,0.0,1.0,-3.73495458984,24.2819932373,-12.4833674561,1.0,0.0,0.0,0.0,1.0,0.0,0.0,0.0,1.0
1463750821909348414,506,1463750821905825252,,-42.97423172,14.2513570786,-173.355804443,0.0199989993125,1.0,0.0,0.0,0.0,1.0,0.0,0.0,0.0,1.0,-0.426829278469,298.841461182,-168.475616455,1.0,0.0,0.0,0.0,1.0,0.0,0.0,0.0,1.0,-18.2486062228,-17.4441532959,-1.26892687988,1.0,0.0,0.0,0.0,1.0,0.0,0.0,0.0,1.0
1463750821927372035,507,1463750821925911156,,-43.7866516113,14.0476179123,179.876846313,0.019999999553,1.0,0.0,0.0,0.0,1.0,0.0,0.0,0.0,1.0,49.5731735229,234.695114136,-222.987808228,1.0,0.0,0.0,0.0,1.0,0.0,0.0,0.0,1.0,-6.22492431641,17.0084097628,-13.7522943359,1.0,0.0,0.0,0.0,1.0,0.0,0.0,0.0,1.0
1463750821947800073,508,1463750821945844716,,-44.2151908875,14.6862230301,173.113586426,0.019999999553,1.0,0.0,0.0,0.0,1.0,0.0,0.0,0.0,1.0,71.5853652954,261.219512939,-195.60975647,1.0,0.0,0.0,0.0,1.0,0.0,0.0,0.0,1.0,-1.63763393555,9.76834277344,-7.25921943359,1.0,0.0,0.0,0.0,1.0,0.0,0.0,0.0,1.0
1463750821968041653,509,1463750821965868120,,-48.1019439697,14.186372757,170.436325073,0.0200030002743,1.0,0.0,0.0,0.0,1.0,0.0,0.0,0.0,1.0,-165.182937622,98.1707305908,-85.0,1.0,0.0,0.0,0.0,1.0,0.0,0.0,0.0,1.0,-16.6444887724,27.6961248047,-33.8109158447,1.0,0.0,0.0,0.0,1.0,0.0,0.0,0.0,1.0
1463750821988023703,510,1463750821985838348,,-51.520275116,12.3799295425,165.313171387,0.0200030002743,1.0,0.0,0.0,0.0,1.0,0.0,0.0,0.0,1.0,-57.5000038147,114.268295288,-225.365859985,1.0,0.0,0.0,0.0,1.0,0.0,0.0,0.0,1.0,7.88171186523,42.770018457,65.3808589355,1.0,0.0,0.0,0.0,1.0,0.0,0.0,0.0,1.0
1463750822008111013,511,1463750822005832793,,-43.15883255,5.34895563126,171.198608398,0.0199979990721,1.0,0.0,0.0,0.0,1.0,0.0,0.0,0.0,1.0,366.463439941,-481.40246582,-101.036590576,1.0,0.0,0.0,0.0,1.0,0.0,0.0,0.0,1.0,50.1058523437,12.378022583,-19.7713173096,1.0,0.0,0.0,0.0,1.0,0.0,0.0,0.0,1.0
1463750822028240406,512,1463750822025852395,,-31.5235157013,7.16350603104,167.358322144,0.0200190003961,1.0,0.0,0.0,0.0,1.0,0.0,0.0,0.0,1.0,656.280456543,176.158538818,-99.0853652954,1.0,0.0,0.0,0.0,1.0,0.0,0.0,0.0,1.0,3.19865341797,9.82580361328,22.6156288818,1.0,0.0,0.0,0.0,1.0,0.0,0.0,0.0,1.0
1463750822048274904,513,1463750822046029444,,-19.8642349243,2.70826649666,166.192062378,0.0199810005724,1.0,0.0,0.0,0.0,1.0,0.0,0.0,0.0,1.0,549.756103516,-162.195129395,-145.914642334,1.0,0.0,0.0,0.0,1.0,0.0,0.0,0.0,1.0,-17.4106344727,-23.6786544189,-78.3239131104,1.0,0.0,0.0,0.0,1.0,0.0,0.0,0.0,1.0
1463750822069131221,514,1463750822066100713,,-12.2772417068,3.31103587151,163.979187012,0.0199970006943,1.0,0.0,0.0,0.0,1.0,0.0,0.0,0.0,1.0,433.658569336,56.0365867615,-95.4268341064,1.0,0.0,0.0,0.0,1.0,0.0,0.0,0.0,1.0,-0.263362164351,12.0859299805,15.9932670898,1.0,0.0,0.0,0.0,1.0,0.0,0.0,0.0,1.0
1463750822091194408,515,1463750822085896930,,-4.04247617722,3.70440578461,164.344482422,0.019999999553,1.0,0.0,0.0,0.0,1.0,0.0,0.0,0.0,1.0,463.048797607,9.87804889679,22.6219520569,1.0,0.0,0.0,0.0,1.0,0.0,0.0,0.0,1.0,1.67115275879,24.7895639893,19.1919216769,1.0,0.0,0.0,0.0,1.0,0.0,0.0,0.0,1.0
1463750822109832609,516,1463750822105793981,,3.31000113487,-1.82765877247,170.263076782,0.0199890006334,1.0,0.0,0.0,0.0,1.0,0.0,0.0,0.0,1.0,309.817077637,-293.902435303,289.085388184,1.0,0.0,0.0,0.0,1.0,0.0,0.0,0.0,1.0,17.4728837158,-71.4908615723,-17.1185418701,1.0,0.0,0.0,0.0,1.0,0.0,0.0,0.0,1.0
1463750822129880440,517,1463750822125754729,,1.95873510838,-4.53795528412,173.890991211,0.0200089998543,1.0,0.0,0.0,0.0,1.0,0.0,0.0,0.0,1.0,-112.012199402,-130.0,187.926834106,1.0,0.0,0.0,0.0,1.0,0.0,0.0,0.0,1.0,0.837970581055,-35.0750543213,11.1809217529,1.0,0.0,0.0,0.0,1.0,0.0,0.0,0.0,1.0
1463750822148740516,518,1463750822145786987,,-4.4208650589,-1.49943315983,174.497512817,0.0199979990721,1.0,0.0,0.0,0.0,1.0,0.0,0.0,0.0,1.0,-281.219512939,153.841461182,30.2439022064,1.0,0.0,0.0,0.0,1.0,0.0,0.0,0.0,1.0,-17.8559548124,79.5784747803,-100.001014941,1.0,0.0,0.0,0.0,1.0,0.0,0.0,0.0,1.0
1463750822168287307,519,1463750822166633512,,2.25002646446,-3.62406921387,171.920730591,0.0208930000663,1.0,0.0,0.0,0.0,1.0,0.0,0.0,0.0,1.0,287.743896484,-99.0243911743,-123.841461182,1.0,0.0,0.0,0.0,1.0,0.0,0.0,0.0,1.0,-1.89141931152,-10.8026378906,-24.1191875244,1.0,0.0,0.0,0.0,1.0,0.0,0.0,0.0,1.0
1463750822187503787,520,1463750822185781503,,6.35113620758,-6.13188838959,171.28843689,0.019109999761,1.0,0.0,0.0,0.0,1.0,0.0,0.0,0.0,1.0,248.231719971,-107.073173523,-26.3414649963,1.0,0.0,0.0,0.0,1.0,0.0,0.0,0.0,1.0,-4.67826975168,5.2576668457,-4.99909306641,1.0,0.0,0.0,0.0,1.0,0.0,0.0,0.0,1.0
1463750822207685472,521,1463750822205736782,,12.2023773193,-8.07658195496,169.893081665,0.0199970006943,1.0,0.0,0.0,0.0,1.0,0.0,0.0,0.0,1.0,325.487792969,-71.0365905762,-61.0975608826,1.0,0.0,0.0,0.0,1.0,0.0,0.0,0.0,1.0,-11.2814782227,11.6837041016,-1.10133276367,1.0,0.0,0.0,0.0,1.0,0.0,0.0,0.0,1.0
1463750822227985177,522,1463750822225767322,,20.0086574554,-7.86797857285,168.893890381,0.0200009997934,1.0,0.0,0.0,0.0,1.0,0.0,0.0,0.0,1.0,335.243927002,-12.9268293381,-41.6463432312,1.0,0.0,0.0,0.0,1.0,0.0,0.0,0.0,1.0,1.01035310059,-10.673351001,-3.03105930176,1.0,0.0,0.0,0.0,1.0,0.0,0.0,0.0,1.0
1463750822248345923,523,1463750822245783174,,24.3331222534,-1.15807449818,170.168167114,0.0199989993125,1.0,0.0,0.0,0.0,1.0,0.0,0.0,0.0,1.0,273.597564697,347.012207031,-81.6463394165,1.0,0.0,0.0,0.0,1.0,0.0,0.0,0.0,1.0,-10.4961800781,25.0194073486,-15.5192151611,1.0,0.0,0.0,0.0,1.0,0.0,0.0,0.0,1.0
1463750822269499895,524,1463750822265863036,,30.7075881958,-5.85638904572,166.731170654,0.0200020000339,1.0,0.0,0.0,0.0,1.0,0.0,0.0,0.0,1.0,336.280487061,-272.560974121,-51.0365867615,1.0,0.0,0.0,0.0,1.0,0.0,0.0,0.0,1.0,-10.046070166,2.95923325195,-25.9579343994,1.0,0.0,0.0,0.0,1.0,0.0,0.0,0.0,1.0
1463750822289701371,525,1463750822285849773,,40.6448478699,-4.38407468796,166.882415771,0.0200009997934,1.0,0.0,0.0,0.0,1.0,0.0,0.0,0.0,1.0,471.95123291,46.6463432312,-24.7560977936,1.0,0.0,0.0,0.0,1.0,0.0,0.0,0.0,1.0,7.39329472656,-0.31124621582,15.4952731445,1.0,0.0,0.0,0.0,1.0,0.0,0.0,0.0,1.0
1463750822309647171,526,1463750822305835834,,50.4039154053,-3.53200888634,169.531616211,0.0199979990721,1.0,0.0,0.0,0.0,1.0,0.0,0.0,0.0,1.0,466.341461182,131.341461182,56.7682952881,1.0,0.0,0.0,0.0,1.0,0.0,0.0,0.0,1.0,-4.56334836426,-18.1241077364,-4.26167924734,1.0,0.0,0.0,0.0,1.0,0.0,0.0,0.0,1.0
1463750822328534591,527,1463750822325748613,,61.81092453,-3.81213450432,174.500549316,0.019999999553,1.0,0.0,0.0,0.0,1.0,0.0,0.0,0.0,1.0,558.963439941,225.426834106,116.402435303,1.0,0.0,0.0,0.0,1.0,0.0,0.0,0.0,1.0,-31.5412126709,-22.8742026611,7.26879624023,1.0,0.0,0.0,0.0,1.0,0.0,0.0,0.0,1.0
1463750822348819816,528,1463750822346017224,,74.1390457153,-6.53720569611,178.579986572,0.019991999492,1.0,0.0,0.0,0.0,1.0,0.0,0.0,0.0,1.0,607.621948242,142.682937622,193.780502319,1.0,0.0,0.0,0.0,1.0,0.0,0.0,0.0,1.0,-19.4888015137,-73.2290519775,5.67904633789,1.0,0.0,0.0,0.0,1.0,0.0,0.0,0.0,1.0
1463750822370230923,529,1463750822369003428,,80.6159973145,-9.59459590912,-175.21862793,0.0200200006366,1.0,0.0,0.0,0.0,1.0,0.0,0.0,0.0,1.0,370.182922363,263.658538818,214.268295288,1.0,0.0,0.0,0.0,1.0,0.0,0.0,0.0,1.0,-6.1530982666,-43.1387255127,-13.7762363525,1.0,0.0,0.0,0.0,1.0,0.0,0.0,0.0,1.0
1463750822389299956,530,1463750822386771685,,82.305480957,-13.5191879272,-165.383377075,0.0199870001525,1.0,0.0,0.0,0.0,1.0,0.0,0.0,0.0,1.0,221.646347046,442.5,239.146347046,1.0,0.0,0.0,0.0,1.0,0.0,0.0,0.0,1.0,-13.3021844238,-10.1514150391,-19.2062857178,1.0,0.0,0.0,0.0,1.0,0.0,0.0,0.0,1.0
1463750822408401333,531,1463750822405880093,,86.0560760498,-15.9482345581,-157.378494263,0.0199979990721,1.0,0.0,0.0,0.0,1.0,0.0,0.0,0.0,1.0,246.280487061,384.756103516,125.975608826,1.0,0.0,0.0,0.0,1.0,0.0,0.0,0.0,1.0,-44.0341569336,-5.09007272949,55.8854551514,1.0,0.0,0.0,0.0,1.0,0.0,0.0,0.0,1.0
1463750822427955520,532,1463750822425817144,,91.5082397461,-18.1149597168,-151.566894531,0.0200120005757,1.0,0.0,0.0,0.0,1.0,0.0,0.0,0.0,1.0,343.536590576,278.963409424,76.9512252808,1.0,0.0,0.0,0.0,1.0,0.0,0.0,0.0,1.0,-23.1136228271,-14.8584155029,6.4356140625,1.0,0.0,0.0,0.0,1.0,0.0,0.0,0.0,1.0
1463750822451293024,533,1463750822448661056,,94.3157958984,-19.7295589447,-145.912017822,0.0199989993125,1.0,0.0,0.0,0.0,1.0,0.0,0.0,0.0,1.0,271.158538818,254.207321167,34.6951217651,1.0,0.0,0.0,0.0,1.0,0.0,0.0,0.0,1.0,-4.34787021484,-1.57538469238,-4.63517441406,1.0,0.0,0.0,0.0,1.0,0.0,0.0,0.0,1.0
1463750822471778301,534,1463750822466803166,,97.0870666504,-20.6064510345,-140.241836548,0.0199909992516,1.0,0.0,0.0,0.0,1.0,0.0,0.0,0.0,1.0,212.439041138,273.841461182,5.85365867615,1.0,0.0,0.0,0.0,1.0,0.0,0.0,0.0,1.0,-4.96078583984,-7.86734665527,5.52102902832,1.0,0.0,0.0,0.0,1.0,0.0,0.0,0.0,1.0
1463750822488102294,535,1463750822485877824,,98.8749542236,-21.3448085785,-134.75541687,0.020005999133,1.0,0.0,0.0,0.0,1.0,0.0,0.0,0.0,1.0,156.341461182,261.097564697,-46.8902435303,1.0,0.0,0.0,0.0,1.0,0.0,0.0,0.0,1.0,-9.41400034321,4.31435168386,6.79953271484,1.0,0.0,0.0,0.0,1.0,0.0,0.0,0.0,1.0
1463750822508163094,536,1463750822505816958,,98.4252166748,-20.1117610931,-128.748092651,0.0199769996107,1.0,0.0,0.0,0.0,1.0,0.0,0.0,0.0,1.0,79.8780517578,267.865844727,-97.6829299927,1.0,0.0,0.0,0.0,1.0,0.0,0.0,0.0,1.0,-7.22091220703,-27.4950118652,6.95755002441,1.0,0.0,0.0,0.0,1.0,0.0,0.0,0.0,1.0
1463750822528405299,537,1463750822525819841,,97.2168960571,-19.3862857819,-122.612556458,0.020021000877,1.0,0.0,0.0,0.0,1.0,0.0,0.0,0.0,1.0,21.8902435303,277.256103516,-128.17074585,1.0,0.0,0.0,0.0,1.0,0.0,0.0,0.0,1.0,-10.0077629395,2.72460148926,4.20421782297,1.0,0.0,0.0,0.0,1.0,0.0,0.0,0.0,1.0
1463750822547574904,538,1463750822545825537,,95.8764038086,-17.9536628723,-116.566429138,0.0199890006334,1.0,0.0,0.0,0.0,1.0,0.0,0.0,0.0,1.0,-8.04878044128,281.280487061,-145.0,1.0,0.0,0.0,0.0,1.0,0.0,0.0,0.0,1.0,-4.86501777344,3.96479794922,5.48272180176,1.0,0.0,0.0,0.0,1.0,0.0,0.0,0.0,1.0
1463750822567717526,539,1463750822565806701,,92.3482284546,-16.2976264954,-110.54624939,0.0200169999152,1.0,0.0,0.0,0.0,1.0,0.0,0.0,0.0,1.0,-90.0,279.32925415,-95.9756088257,1.0,0.0,0.0,0.0,1.0,0.0,0.0,0.0,1.0,-4.57771357422,-27.1789772461,4.65432773508,1.0,0.0,0.0,0.0,1.0,0.0,0.0,0.0,1.0
1463750822591561956,540,1463750822585798126,,87.2393112183,-15.3082513809,-104.612937927,0.0199950002134,1.0,0.0,0.0,0.0,1.0,0.0,0.0,0.0,1.0,-213.048782349,294.634155273,-42.134147644,1.0,0.0,0.0,0.0,1.0,0.0,0.0,0.0,1.0,-0.76614453125,-9.22246479492,10.6111017578,1.0,0.0,0.0,0.0,1.0,0.0,0.0,0.0,1.0
1463750822608938392,541,1463750822605824239,,72.9963607788,-15.4842796326,-93.9315490723,0.0199939999729,1.0,0.0,0.0,0.0,1.0,0.0,0.0,0.0,1.0,-569.573181152,508.841491699,64.4512252808,1.0,0.0,0.0,0.0,1.0,0.0,0.0,0.0,1.0,-42.8945169434,-37.7757137939,-3.53384165039,1.0,0.0,0.0,0.0,1.0,0.0,0.0,0.0,1.0
1463750822630583612,542,1463750822625874622,,65.2834014893,-11.5908813477,-88.4607925415,0.0200020000339,1.0,0.0,0.0,0.0,1.0,0.0,0.0,0.0,1.0,-268.231689453,302.378051758,-99.0243911743,1.0,0.0,0.0,0.0,1.0,0.0,0.0,0.0,1.0,-1.00077629395,25.981876416,-35.4341845703,1.0,0.0,0.0,0.0,1.0,0.0,0.0,0.0,1.0
1463750822649484104,543,1463750822645787245,,54.7472267151,-10.8980121613,-81.5973892212,0.0199989993125,1.0,0.0,0.0,0.0,1.0,0.0,0.0,0.0,1.0,-415.243927002,312.865844727,104.756103516,1.0,0.0,0.0,0.0,1.0,0.0,0.0,0.0,1.0,-13.5799118164,6.03338818359,-17.6883618652,1.0,0.0,0.0,0.0,1.0,0.0,0.0,0.0,1.0
1463750822669801361,544,1463750822665885023,,47.6215057373,-7.1783823967,-76.9993591309,0.020005999133,1.0,0.0,0.0,0.0,1.0,0.0,0.0,0.0,1.0,-299.939025879,268.048797607,22.682926178,1.0,0.0,0.0,0.0,1.0,0.0,0.0,0.0,1.0,6.89530078125,6.23928952637,0.402225878906,1.0,0.0,0.0,0.0,1.0,0.0,0.0,0.0,1.0
1463750822687921335,545,1463750822685925042,,44.3423652649,-6.34470129013,-77.294090271,0.0200020000339,1.0,0.0,0.0,0.0,1.0,0.0,0.0,0.0,1.0,-155.426834106,-21.8902435303,-0.365853667259,1.0,0.0,0.0,0.0,1.0,0.0,0.0,0.0,1.0,25.4982476807,-2.5234885498,-8.48983967144,1.0,0.0,0.0,0.0,1.0,0.0,0.0,0.0,1.0
1463750822710498270,546,1463750822705849332,,44.5818786621,-5.34866762161,-78.5380477905,0.0199950002134,1.0,0.0,0.0,0.0,1.0,0.0,0.0,0.0,1.0,-6.21951246262,4.51219558716,-91.4634170532,1.0,0.0,0.0,0.0,1.0,0.0,0.0,0.0,1.0,-5.03261188965,-8.90643017578,-5.43962617188,1.0,0.0,0.0,0.0,1.0,0.0,0.0,0.0,1.0
1463750822730965058,547,1463750822725819559,,43.9015388489,-3.88609671593,-78.4143753052,0.0199970006943,1.0,0.0,0.0,0.0,1.0,0.0,0.0,0.0,1.0,-29.8780498505,69.3292694092,-62.0731735229,1.0,0.0,0.0,0.0,1.0,0.0,0.0,0.0,1.0,-6.34942280273,-8.11155522461,-9.27034882812,1.0,0.0,0.0,0.0,1.0,0.0,0.0,0.0,1.0
1463750822750547682,548,1463750822745808692,,43.3958282471,-3.46902751923,-78.1065826416,0.019999999553,1.0,0.0,0.0,0.0,1.0,0.0,0.0,0.0,1.0,6.58536624908,43.9634170532,-26.2195129395,1.0,0.0,0.0,0.0,1.0,0.0,0.0,0.0,1.0,-18.3587383301,-1.26892687988,-25.7472446533,1.0,0.0,0.0,0.0,1.0,0.0,0.0,0.0,1.0
1463750822770147338,549,1463750822765835273,,43.6839904785,-4.67540216446,-78.8069000244,0.020005999133,1.0,0.0,0.0,0.0,1.0,0.0,0.0,0.0,1.0,51.2804870605,-59.9390258789,3.59756112099,1.0,0.0,0.0,0.0,1.0,0.0,0.0,0.0,1.0,-4.91769020996,0.732625708008,-14.4753432373,1.0,0.0,0.0,0.0,1.0,0.0,0.0,0.0,1.0
1463750822788476010,550,1463750822785884250,,44.3053970337,-5.36293649673,-79.0908966064,0.0199950002134,1.0,0.0,0.0,0.0,1.0,0.0,0.0,0.0,1.0,59.2682914734,-43.5365867615,17.0121955872,1.0,0.0,0.0,0.0,1.0,0.0,0.0,0.0,1.0,0.708683691406,-2.74375510254,-11.8560866211,1.0,0.0,0.0,0.0,1.0,0.0,0.0,0.0,1.0
1463750822807687750,551,1463750822805894321,,46.1848526001,-5.59289741516,-79.2997741699,0.0200030002743,1.0,0.0,0.0,0.0,1.0,0.0,0.0,0.0,1.0,147.378051758,-16.9512195587,-7.01219511032,1.0,0.0,0.0,0.0,1.0,0.0,0.0,0.0,1.0,-0.847547387695,3.24653745117,-5.62158549805,1.0,0.0,0.0,0.0,1.0,0.0,0.0,0.0,1.0
1463750822827664592,552,1463750822825804808,,49.9519004822,-5.18758869171,-79.6004943848,0.0199970006943,1.0,0.0,0.0,0.0,1.0,0.0,0.0,0.0,1.0,180.487808228,-5.73170757294,-17.9268302917,1.0,0.0,0.0,0.0,1.0,0.0,0.0,0.0,1.0,0.718260498047,-8.3270327895,-6.16267507324,1.0,0.0,0.0,0.0,1.0,0.0,0.0,0.0,1.0
1463750822847639611,553,1463750822845825660,,53.0578613281,-5.505443573,-79.1575393677,0.0199989993125,1.0,0.0,0.0,0.0,1.0,0.0,0.0,0.0,1.0,158.597564697,1.70731711388,30.1829280853,1.0,0.0,0.0,0.0,1.0,0.0,0.0,0.0,1.0,0.0909796630859,-11.3580926758,-9.7348239502,1.0,0.0,0.0,0.0,1.0,0.0,0.0,0.0,1.0
1463750822867776452,554,1463750822865859846,,56.5531272888,-6.14668321609,-78.8156967163,0.0200050007552,1.0,0.0,0.0,0.0,1.0,0.0,0.0,0.0,1.0,145.365844727,-5.36585378647,39.2682914734,1.0,0.0,0.0,0.0,1.0,0.0,0.0,0.0,1.0,-1.11569797363,-24.3250888672,-1.16358193377,1.0,0.0,0.0,0.0,1.0,0.0,0.0,0.0,1.0
1463750822888058969,555,1463750822885872208,,57.5021629333,-6.93395328522,-77.9177474976,0.0199970006943,1.0,0.0,0.0,0.0,1.0,0.0,0.0,0.0,1.0,42.8658561707,20.8536586761,48.5365867615,1.0,0.0,0.0,0.0,1.0,0.0,0.0,0.0,1.0,-5.52581743164,-16.534356665,-6.78516750488,1.0,0.0,0.0,0.0,1.0,0.0,0.0,0.0,1.0
1463750822910499863,556,1463750822908080082,,57.3492698669,-7.35682201385,-76.6907653809,0.0200030002743,1.0,0.0,0.0,0.0,1.0,0.0,0.0,0.0,1.0,7.80487823486,42.1951255798,41.6463432312,1.0,0.0,0.0,0.0,1.0,0.0,0.0,0.0,1.0,-2.63841022949,-6.75164868164,-5.66468112793,1.0,0.0,0.0,0.0,1.0,0.0,0.0,0.0,1.0
1463750822929285772,557,1463750822925840891,,57.4610977173,-7.0623664856,-75.6898880005,0.0199510008097,1.0,0.0,0.0,0.0,1.0,0.0,0.0,0.0,1.0,7.86585378647,46.7073173523,16.7682933807,1.0,0.0,0.0,0.0,1.0,0.0,0.0,0.0,1.0,-0.76135612793,-8.59039614116,-4.52025273438,1.0,0.0,0.0,0.0,1.0,0.0,0.0,0.0,1.0
1463750822948229389,558,1463750822945883878,,57.3629264832,-6.74164390564,-74.4833755493,0.0200449991971,1.0,0.0,0.0,0.0,1.0,0.0,0.0,0.0,1.0,-17.8658542633,60.8536643982,16.7682933807,1.0,0.0,0.0,0.0,1.0,0.0,0.0,0.0,1.0,-2.24097275391,-12.3732341797,-2.26012636719,1.0,0.0,0.0,0.0,1.0,0.0,0.0,0.0,1.0
1463750822968724458,559,1463750822966105094,,56.4944915771,-6.38274765015,-73.416343689,0.0200040005147,1.0,0.0,0.0,0.0,1.0,0.0,0.0,0.0,1.0,-53.4756126404,63.9634170532,-1.58536589146,1.0,0.0,0.0,0.0,1.0,0.0,0.0,0.0,1.0,-5.35822331543,-10.6398321777,-2.48039291992,1.0,0.0,0.0,0.0,1.0,0.0,0.0,0.0,1.0
1463750822988813226,560,1463750822986456622,,56.8609619141,-6.05724430084,-73.7663803101,0.0200030002743,1.0,0.0,0.0,0.0,1.0,0.0,0.0,0.0,1.0,2.31707310677,-13.658536911,-11.2195119858,1.0,0.0,0.0,0.0,1.0,0.0,0.0,0.0,1.0,2.39420180629,-17.5878042265,-5.76523759766,1.0,0.0,0.0,0.0,1.0,0.0,0.0,0.0,1.0
1463750823007952832,561,1463750823005800497,,56.5924034119,-5.68443250656,-73.5883178711,0.019991999492,1.0,0.0,0.0,0.0,1.0,0.0,0.0,0.0,1.0,-22.1341457367,17.1951217651,-11.5853662491,1.0,0.0,0.0,0.0,1.0,0.0,0.0,0.0,1.0,-1.18273554705,-8.33182119282,-3.44765039062,1.0,0.0,0.0,0.0,1.0,0.0,0.0,0.0,1.0
1463750823029818311,562,1463750823026047025,,56.0216178894,-5.45285511017,-73.2711029053,0.0199960004538,1.0,0.0,0.0,0.0,1.0,0.0,0.0,0.0,1.0,-16.7682933807,15.1219511032,0.670731723309,1.0,0.0,0.0,0.0,1.0,0.0,0.0,0.0,1.0,-0.387860668945,-5.65989272461,-5.29118566895,1.0,0.0,0.0,0.0,1.0,0.0,0.0,0.0,1.0
1463750823051008169,563,1463750823045977305,,56.2262458801,-5.23415470123,-73.4458847046,0.020035000518,1.0,0.0,0.0,0.0,1.0,0.0,0.0,0.0,1.0,4.14634132385,-6.95121955872,-7.50000047684,1.0,0.0,0.0,0.0,1.0,0.0,0.0,0.0,1.0,0.402225878906,-9.63426806499,-5.09964953613,1.0,0.0,0.0,0.0,1.0,0.0,0.0,0.0,1.0
1463750823069046008,564,1463750823066053885,,56.1020317078,-5.19890975952,-73.7007369995,0.0199890006334,1.0,0.0,0.0,0.0,1.0,0.0,0.0,0.0,1.0,-3.04878044128,-11.6463422775,-9.32926845551,1.0,0.0,0.0,0.0,1.0,0.0,0.0,0.0,1.0,-0.881066210937,-6.82347473145,-5.21935961914,1.0,0.0,0.0,0.0,1.0,0.0,0.0,0.0,1.0
1463750823089185401,565,1463750823086088644,,56.1282920837,-5.16688203812,-73.7267913818,0.019980000332,1.0,0.0,0.0,0.0,1.0,0.0,0.0,0.0,1.0,-0.18292683363,-1.8902438879,-2.5,1.0,0.0,0.0,0.0,1.0,0.0,0.0,0.0,1.0,-1.07739082014,-9.16021555176,-5.66468112793,1.0,0.0,0.0,0.0,1.0,0.0,0.0,0.0,1.0
1463750823108653235,566,1463750823106030225,,55.8790473938,-5.04446363449,-73.7448577881,0.020005999133,1.0,0.0,0.0,0.0,1.0,0.0,0.0,0.0,1.0,-5.73170757294,-1.95121955872,-2.98780488968,1.0,0.0,0.0,0.0,1.0,0.0,0.0,0.0,1.0,-0.253785375977,-7.60877287598,-6.3877300293,1.0,0.0,0.0,0.0,1.0,0.0,0.0,0.0,1.0
1463750823128159766,567,1463750823125991546,,55.7897796631,-4.97006893158,-73.7375183105,0.0199939999729,1.0,0.0,0.0,0.0,1.0,0.0,0.0,0.0,1.0,0.670731723309,-0.975609779358,-1.8902438879,1.0,0.0,0.0,0.0,1.0,0.0,0.0,0.0,1.0,-0.555454785156,-7.29752666016,-5.81312163086,1.0,0.0,0.0,0.0,1.0,0.0,0.0,0.0,1.0
1463750823149178582,568,1463750823146019794,,55.7922782898,-4.87796354294,-73.7232666016,0.0200100000948,1.0,0.0,0.0,0.0,1.0,0.0,0.0,0.0,1.0,4.08536577225,-0.670731723309,-1.52439022064,1.0,0.0,0.0,0.0,1.0,0.0,0.0,0.0,1.0,-0.407014282227,-7.99663354492,-6.11479104004,1.0,0.0,0.0,0.0,1.0,0.0,0.0,0.0,1.0
1463750823169430318,569,1463750823165957625,,55.7850379944,-4.86398124695,-73.6371307373,0.0199960004538,1.0,0.0,0.0,0.0,1.0,0.0,0.0,0.0,1.0,2.5,1.76829278469,1.46341466904,1.0,0.0,0.0,0.0,1.0,0.0,0.0,0.0,1.0,-0.885854614258,-8.11155522461,-5.88973608398,1.0,0.0,0.0,0.0,1.0,0.0,0.0,0.0,1.0
