%time,field.header.seq,field.header.stamp,field.header.frame_id,field.orientation.x,field.orientation.y,field.orientation.z,field.orientation.w,field.orientation_covariance0,field.orientation_covariance1,field.orientation_covariance2,field.orientation_covariance3,field.orientation_covariance4,field.orientation_covariance5,field.orientation_covariance6,field.orientation_covariance7,field.orientation_covariance8,field.angular_velocity.x,field.angular_velocity.y,field.angular_velocity.z,field.angular_velocity_covariance0,field.angular_velocity_covariance1,field.angular_velocity_covariance2,field.angular_velocity_covariance3,field.angular_velocity_covariance4,field.angular_velocity_covariance5,field.angular_velocity_covariance6,field.angular_velocity_covariance7,field.angular_velocity_covariance8,field.linear_acceleration.x,field.linear_acceleration.y,field.linear_acceleration.z,field.linear_acceleration_covariance0,field.linear_acceleration_covariance1,field.linear_acceleration_covariance2,field.linear_acceleration_covariance3,field.linear_acceleration_covariance4,field.linear_acceleration_covariance5,field.linear_acceleration_covariance6,field.linear_acceleration_covariance7,field.linear_acceleration_covariance8
1463662605738587994,467,1463662605721939076,,-3.13536953926,-4.61395692825,-159.672851562,0.0100800003856,1.0,0.0,0.0,0.0,1.0,0.0,0.0,0.0,1.0,2.25609779358,-0.792682945728,-5.24390268326,1.0,0.0,0.0,0.0,1.0,0.0,0.0,0.0,1.0,-1.23540805664,-0.181959326172,-10.0700121826,1.0,0.0,0.0,0.0,1.0,0.0,0.0,0.0,1.0
1463662605739575174,468,1463662605735220299,,-3.14426708221,-4.61766958237,-159.710266113,0.0101229995489,1.0,0.0,0.0,0.0,1.0,0.0,0.0,0.0,1.0,2.07317066193,-1.03658533096,-5.18292713165,1.0,0.0,0.0,0.0,1.0,0.0,0.0,0.0,1.0,-1.33117612305,-0.0526724365234,-10.2615483154,1.0,0.0,0.0,0.0,1.0,0.0,0.0,0.0,1.0
1463662605744729077,469,1463662605742258861,,-3.15271282196,-4.63193464279,-159.743484497,0.0101899998263,1.0,0.0,0.0,0.0,1.0,0.0,0.0,0.0,1.0,2.43902444839,-1.8292683363,-4.81707286835,1.0,0.0,0.0,0.0,1.0,0.0,0.0,0.0,1.0,-1.35990654297,0.0,-10.1083194092,1.0,0.0,0.0,0.0,1.0,0.0,0.0,0.0,1.0
1463662605757776671,470,1463662605751956834,,-3.15873479843,-4.64783525467,-159.776107788,0.00998899992555,1.0,0.0,0.0,0.0,1.0,0.0,0.0,0.0,1.0,2.68292689323,-1.70731711388,-4.81707286835,1.0,0.0,0.0,0.0,1.0,0.0,0.0,0.0,1.0,-1.45088620605,0.00478840332031,-10.3333743652,1.0,0.0,0.0,0.0,1.0,0.0,0.0,0.0,1.0
1463662605765372088,471,1463662605762333713,,-3.15752577782,-4.66485452652,-159.807342529,0.0101279998198,1.0,0.0,0.0,0.0,1.0,0.0,0.0,0.0,1.0,2.98780488968,-2.31707310677,-4.63414621353,1.0,0.0,0.0,0.0,1.0,0.0,0.0,0.0,1.0,-1.33117612305,-0.0718260498047,-10.1226846191,1.0,0.0,0.0,0.0,1.0,0.0,0.0,0.0,1.0
1463662605776114386,472,1463662605772331732,,-3.16033673286,-4.68367385864,-159.837081909,0.0101009998471,1.0,0.0,0.0,0.0,1.0,0.0,0.0,0.0,1.0,3.10975623131,-1.8902438879,-4.51219558716,1.0,0.0,0.0,0.0,1.0,0.0,0.0,0.0,1.0,-1.44130939941,0.0191536132812,-10.0843773926,1.0,0.0,0.0,0.0,1.0,0.0,0.0,0.0,1.0
1463662605785129027,473,1463662605782295735,,-3.15548491478,-4.70609521866,-159.859817505,0.0100720003247,1.0,0.0,0.0,0.0,1.0,0.0,0.0,0.0,1.0,3.29268312454,-1.95121955872,-3.7804877758,1.0,0.0,0.0,0.0,1.0,0.0,0.0,0.0,1.0,-1.51792385254,-0.0957680664062,-10.1609918457,1.0,0.0,0.0,0.0,1.0,0.0,0.0,0.0,1.0
1463662605795335359,474,1463662605792358764,,-3.15336585045,-4.72532272339,-159.885009766,0.0101009998471,1.0,0.0,0.0,0.0,1.0,0.0,0.0,0.0,1.0,3.29268312454,-1.70731711388,-4.02439022064,1.0,0.0,0.0,0.0,1.0,0.0,0.0,0.0,1.0,-1.49398183594,-0.0430956298828,-10.0843773926,1.0,0.0,0.0,0.0,1.0,0.0,0.0,0.0,1.0
1463662605805350412,475,1463662605802494304,,-3.1485350132,-4.73808479309,-159.902877808,0.0101009998471,1.0,0.0,0.0,0.0,1.0,0.0,0.0,0.0,1.0,3.35365867615,-1.8902438879,-3.29268312454,1.0,0.0,0.0,0.0,1.0,0.0,0.0,0.0,1.0,-1.36469494629,-0.0909796630859,-10.1562034424,1.0,0.0,0.0,0.0,1.0,0.0,0.0,0.0,1.0
1463662605815965086,476,1463662605812598380,,-3.14801716805,-4.74872350693,-159.923690796,0.010108999908,1.0,0.0,0.0,0.0,1.0,0.0,0.0,0.0,1.0,3.17073178291,-1.8292683363,-3.59756112099,1.0,0.0,0.0,0.0,1.0,0.0,0.0,0.0,1.0,-1.34554133301,-0.0430956298828,-10.2232410889,1.0,0.0,0.0,0.0,1.0,0.0,0.0,0.0,1.0
1463662605825931590,477,1463662605822782625,,-3.1480884552,-4.77060508728,-159.933685303,0.0101199997589,1.0,0.0,0.0,0.0,1.0,0.0,0.0,0.0,1.0,3.23170733452,-2.25609779358,-2.56097555161,1.0,0.0,0.0,0.0,1.0,0.0,0.0,0.0,1.0,-1.47003981934,-0.0383072265625,-10.1274730225,1.0,0.0,0.0,0.0,1.0,0.0,0.0,0.0,1.0
1463662605839087950,478,1463662605832848102,,-3.1503276825,-4.7747836113,-159.946273804,0.0100929997861,1.0,0.0,0.0,0.0,1.0,0.0,0.0,0.0,1.0,3.17073178291,-1.76829278469,-2.80487799644,1.0,0.0,0.0,0.0,1.0,0.0,0.0,0.0,1.0,-1.24498486328,-0.00478840332031,-10.1514150391,1.0,0.0,0.0,0.0,1.0,0.0,0.0,0.0,1.0
1463662605846790831,479,1463662605843522005,,-3.15005922318,-4.79662847519,-159.957015991,0.0107349995524,1.0,0.0,0.0,0.0,1.0,0.0,0.0,0.0,1.0,3.04878044128,-2.37804889679,-2.56097555161,1.0,0.0,0.0,0.0,1.0,0.0,0.0,0.0,1.0,-1.43652099609,-0.076614453125,-10.180145459,1.0,0.0,0.0,0.0,1.0,0.0,0.0,0.0,1.0
1463662605855897466,480,1463662605852920662,,-3.14740228653,-4.80998420715,-159.967071533,0.00945100001991,1.0,0.0,0.0,0.0,1.0,0.0,0.0,0.0,1.0,3.53658556938,-2.01219511032,-2.62195134163,1.0,0.0,0.0,0.0,1.0,0.0,0.0,0.0,1.0,-1.41257897949,-0.0335188255255,-10.3237975586,1.0,0.0,0.0,0.0,1.0,0.0,0.0,0.0,1.0
1463662605872873777,481,1463662605863204714,,-3.14121627808,-4.83590269089,-159.974227905,0.0101079996675,1.0,0.0,0.0,0.0,1.0,0.0,0.0,0.0,1.0,3.47560977936,-2.43902444839,-2.25609779358,1.0,0.0,0.0,0.0,1.0,0.0,0.0,0.0,1.0,-1.5083470459,-0.110133276367,-10.0221281494,1.0,0.0,0.0,0.0,1.0,0.0,0.0,0.0,1.0
1463662605875569184,482,1463662605873201848,,-3.13652443886,-4.85293054581,-159.987518311,0.0100999996066,1.0,0.0,0.0,0.0,1.0,0.0,0.0,0.0,1.0,3.65853667259,-2.01219511032,-2.86585378647,1.0,0.0,0.0,0.0,1.0,0.0,0.0,0.0,1.0,-1.47482822266,-0.0430956298828,-10.3716815918,1.0,0.0,0.0,0.0,1.0,0.0,0.0,0.0,1.0
1463662605887749303,483,1463662605883343117,,-3.13028407097,-4.86909723282,-159.995498657,0.0101229995489,1.0,0.0,0.0,0.0,1.0,0.0,0.0,0.0,1.0,3.59756112099,-1.95121955872,-2.31707310677,1.0,0.0,0.0,0.0,1.0,0.0,0.0,0.0,1.0,-1.46525141602,-0.0909796630859,-10.2807019287,1.0,0.0,0.0,0.0,1.0,0.0,0.0,0.0,1.0
1463662605897885624,484,1463662605893494493,,-3.12435531616,-4.87578439713,-160.00402832,0.010108999908,1.0,0.0,0.0,0.0,1.0,0.0,0.0,0.0,1.0,3.71951246262,-1.8292683363,-2.37804889679,1.0,0.0,0.0,0.0,1.0,0.0,0.0,0.0,1.0,-1.32159931641,-0.0622492431641,-10.314220752,1.0,0.0,0.0,0.0,1.0,0.0,0.0,0.0,1.0
1463662605908530772,485,1463662605903477874,,-3.11637210846,-4.89075756073,-160.01133728,0.0100929997861,1.0,0.0,0.0,0.0,1.0,0.0,0.0,0.0,1.0,3.47560977936,-2.5,-2.25609779358,1.0,0.0,0.0,0.0,1.0,0.0,0.0,0.0,1.0,-1.35511813965,-0.148440512063,-10.3381627686,1.0,0.0,0.0,0.0,1.0,0.0,0.0,0.0,1.0
1463662605917979437,486,1463662605913686081,,-3.11839437485,-4.90225553513,-160.019897461,0.0100880004466,1.0,0.0,0.0,0.0,1.0,0.0,0.0,0.0,1.0,3.41463422775,-2.13414645195,-2.43902444839,1.0,0.0,0.0,0.0,1.0,0.0,0.0,0.0,1.0,-1.35511813965,0.0239420166016,-10.2950671387,1.0,0.0,0.0,0.0,1.0,0.0,0.0,0.0,1.0
1463662605927786594,487,1463662605923731138,,-3.11591815948,-4.91451835632,-160.027023315,0.0101049998775,1.0,0.0,0.0,0.0,1.0,0.0,0.0,0.0,1.0,3.35365867615,-2.19512200356,-2.25609779358,1.0,0.0,0.0,0.0,1.0,0.0,0.0,0.0,1.0,-1.37427175293,-0.0718260498047,-10.3956236084,1.0,0.0,0.0,0.0,1.0,0.0,0.0,0.0,1.0
1463662605936705961,488,1463662605933856729,,-3.11700701714,-4.92301511765,-160.035049438,0.0100969998166,1.0,0.0,0.0,0.0,1.0,0.0,0.0,0.0,1.0,3.53658556938,-1.95121955872,-2.37804889679,1.0,0.0,0.0,0.0,1.0,0.0,0.0,0.0,1.0,-1.34554133301,0.0287304199219,-10.3477395752,1.0,0.0,0.0,0.0,1.0,0.0,0.0,0.0,1.0
1463662605946197445,489,1463662605943915851,,-3.10931110382,-4.93782091141,-160.044647217,0.0101039996371,1.0,0.0,0.0,0.0,1.0,0.0,0.0,0.0,1.0,3.65853667259,-2.56097555161,-2.5,1.0,0.0,0.0,0.0,1.0,0.0,0.0,0.0,1.0,-1.32638771973,-0.105344873047,-10.180145459,1.0,0.0,0.0,0.0,1.0,0.0,0.0,0.0,1.0
1463662605956475975,490,1463662605953917516,,-3.10501408577,-4.95266437531,-160.057128906,0.0100830001757,1.0,0.0,0.0,0.0,1.0,0.0,0.0,0.0,1.0,3.59756112099,-2.43902444839,-2.80487799644,1.0,0.0,0.0,0.0,1.0,0.0,0.0,0.0,1.0,-1.35990654297,-0.0526724365234,-10.2567599121,1.0,0.0,0.0,0.0,1.0,0.0,0.0,0.0,1.0
1463662605976993238,491,1463662605964491716,,-3.09943509102,-4.97702789307,-160.063461304,0.0101039996371,1.0,0.0,0.0,0.0,1.0,0.0,0.0,0.0,1.0,3.59756112099,-2.68292689323,-2.19512200356,1.0,0.0,0.0,0.0,1.0,0.0,0.0,0.0,1.0,-1.47482822266,-0.0861912597656,-10.1035310059,1.0,0.0,0.0,0.0,1.0,0.0,0.0,0.0,1.0
1463662605977978178,492,1463662605974339816,,-3.0962562561,-4.99239969254,-160.073852539,0.0101100001484,1.0,0.0,0.0,0.0,1.0,0.0,0.0,0.0,1.0,3.17073178291,-2.37804889679,-2.56097555161,1.0,0.0,0.0,0.0,1.0,0.0,0.0,0.0,1.0,-1.37906015625,-0.114921679688,-10.180145459,1.0,0.0,0.0,0.0,1.0,0.0,0.0,0.0,1.0
1463662605991297115,493,1463662605985461026,,-3.09177899361,-5.0100851059,-160.082794189,0.0100929997861,1.0,0.0,0.0,0.0,1.0,0.0,0.0,0.0,1.0,3.29268312454,-2.74390244484,-2.43902444839,1.0,0.0,0.0,0.0,1.0,0.0,0.0,0.0,1.0,-1.36948334961,-0.119710083008,-10.2615483154,1.0,0.0,0.0,0.0,1.0,0.0,0.0,0.0,1.0
1463662606008462621,494,1463662605994375860,,-3.08618712425,-5.02337551117,-160.095611572,0.0100889997557,1.0,0.0,0.0,0.0,1.0,0.0,0.0,0.0,1.0,3.47560977936,-2.31707310677,-2.80487799644,1.0,0.0,0.0,0.0,1.0,0.0,0.0,0.0,1.0,-1.35990654297,-0.100556469727,-10.2040874756,1.0,0.0,0.0,0.0,1.0,0.0,0.0,0.0,1.0
1463662606008738027,495,1463662606004439879,,-3.07934308052,-5.03846168518,-160.105651855,0.0101159997284,1.0,0.0,0.0,0.0,1.0,0.0,0.0,0.0,1.0,3.23170733452,-2.43902444839,-2.5,1.0,0.0,0.0,0.0,1.0,0.0,0.0,0.0,1.0,-1.36948334961,-0.172382519531,-10.165780249,1.0,0.0,0.0,0.0,1.0,0.0,0.0,0.0,1.0
1463662606023002055,496,1463662606014608705,,-3.08072400093,-5.0522403717,-160.115646362,0.0101039996371,1.0,0.0,0.0,0.0,1.0,0.0,0.0,0.0,1.0,3.10975623131,-2.5,-2.56097555161,1.0,0.0,0.0,0.0,1.0,0.0,0.0,0.0,1.0,-1.35032973633,-0.0478840332031,-10.2615483154,1.0,0.0,0.0,0.0,1.0,0.0,0.0,0.0,1.0
1463662606030232156,497,1463662606024785761,,-3.08214354515,-5.06889295578,-160.125427246,0.0100969998166,1.0,0.0,0.0,0.0,1.0,0.0,0.0,0.0,1.0,2.74390244484,-2.37804889679,-2.5,1.0,0.0,0.0,0.0,1.0,0.0,0.0,0.0,1.0,-1.42694418945,-0.114921679688,-10.2519715088,1.0,0.0,0.0,0.0,1.0,0.0,0.0,0.0,1.0
1463662606039414323,498,1463662606034840091,,-3.08372044563,-5.0758690834,-160.134048462,0.0101009998471,1.0,0.0,0.0,0.0,1.0,0.0,0.0,0.0,1.0,2.86585378647,-2.01219511032,-2.37804889679,1.0,0.0,0.0,0.0,1.0,0.0,0.0,0.0,1.0,-1.33117612305,-0.0909796630859,-10.3237975586,1.0,0.0,0.0,0.0,1.0,0.0,0.0,0.0,1.0
1463662606047534558,499,1463662606044932708,,-3.08544850349,-5.08989334106,-160.143310547,0.0101169999689,1.0,0.0,0.0,0.0,1.0,0.0,0.0,0.0,1.0,2.25609779358,-1.8902438879,-2.37804889679,1.0,0.0,0.0,0.0,1.0,0.0,0.0,0.0,1.0,-1.4844050293,-0.201112939453,-10.3285859619,1.0,0.0,0.0,0.0,1.0,0.0,0.0,0.0,1.0
1463662606070029567,500,1463662606055106691,,-3.09437298775,-5.09268569946,-160.149246216,0.0100830001757,1.0,0.0,0.0,0.0,1.0,0.0,0.0,0.0,1.0,2.13414645195,-1.34146344662,-2.07317066193,1.0,0.0,0.0,0.0,1.0,0.0,0.0,0.0,1.0,-1.38863696289,-0.0957680664062,-10.3477395752,1.0,0.0,0.0,0.0,1.0,0.0,0.0,0.0,1.0
1463662606070324091,501,1463662606065129036,,-3.106985569,-5.09580993652,-160.154495239,0.0100959995762,1.0,0.0,0.0,0.0,1.0,0.0,0.0,0.0,1.0,1.95121955872,-1.15853655338,-2.01219511032,1.0,0.0,0.0,0.0,1.0,0.0,0.0,0.0,1.0,-1.43652099609,-0.0622492431641,-10.3956236084,1.0,0.0,0.0,0.0,1.0,0.0,0.0,0.0,1.0
1463662606077907631,502,1463662606075329169,,-3.11580753326,-5.0871720314,-160.160171509,0.0101209999993,1.0,0.0,0.0,0.0,1.0,0.0,0.0,0.0,1.0,2.07317066193,-0.853658556938,-2.01219511032,1.0,0.0,0.0,0.0,1.0,0.0,0.0,0.0,1.0,-1.2737152832,-0.105344873047,-10.3716815918,1.0,0.0,0.0,0.0,1.0,0.0,0.0,0.0,1.0
1463662606087653164,503,1463662606085498099,,-3.12575912476,-5.08454179764,-160.162063599,0.0100910002366,1.0,0.0,0.0,0.0,1.0,0.0,0.0,0.0,1.0,1.8292683363,-1.2195122242,-1.64634156227,1.0,0.0,0.0,0.0,1.0,0.0,0.0,0.0,1.0,-1.31681091309,-0.134075302102,-10.3621047852,1.0,0.0,0.0,0.0,1.0,0.0,0.0,0.0,1.0
1463662606112760181,504,1463662606102877440,,-3.13883328438,-5.07479143143,-160.159103394,0.0101279998198,1.0,0.0,0.0,0.0,1.0,0.0,0.0,0.0,1.0,2.43902444839,-0.670731723309,-1.2195122242,1.0,0.0,0.0,0.0,1.0,0.0,0.0,0.0,1.0,-1.26892687988,0.0287304199219,-10.1705686523,1.0,0.0,0.0,0.0,1.0,0.0,0.0,0.0,1.0
1463662606112803834,505,1463662606107025514,,-3.1411716938,-5.06532096863,-160.159225464,0.0100689996034,1.0,0.0,0.0,0.0,1.0,0.0,0.0,0.0,1.0,2.25609779358,-0.487804889679,-1.40243899822,1.0,0.0,0.0,0.0,1.0,0.0,0.0,0.0,1.0,-1.31202250977,-0.191536132812,-10.2519715088,1.0,0.0,0.0,0.0,1.0,0.0,0.0,0.0,1.0
1463662606127846104,506,1463662606115641658,,-3.14822411537,-5.06131696701,-160.157104492,0.0101199997589,1.0,0.0,0.0,0.0,1.0,0.0,0.0,0.0,1.0,2.43902444839,-0.12195122242,-1.2195122242,1.0,0.0,0.0,0.0,1.0,0.0,0.0,0.0,1.0,-1.46525141602,-0.076614453125,-10.1466266357,1.0,0.0,0.0,0.0,1.0,0.0,0.0,0.0,1.0
1463662606128107289,507,1463662606126236173,,-3.15100002289,-5.05503320694,-160.1537323,0.0100999996066,1.0,0.0,0.0,0.0,1.0,0.0,0.0,0.0,1.0,2.19512200356,-0.18292683363,-1.03658533096,1.0,0.0,0.0,0.0,1.0,0.0,0.0,0.0,1.0,-1.43652099609,-0.201112939453,-10.314220752,1.0,0.0,0.0,0.0,1.0,0.0,0.0,0.0,1.0
1463662606173387402,508,1463662606135810170,,-3.15117383003,-5.04632329941,-160.146697998,0.0101020000875,1.0,0.0,0.0,0.0,1.0,0.0,0.0,0.0,1.0,2.68292689323,0.304878056049,-0.670731723309,1.0,0.0,0.0,0.0,1.0,0.0,0.0,0.0,1.0,-1.47003981934,-0.162805712891,-10.2088758789,1.0,0.0,0.0,0.0,1.0,0.0,0.0,0.0,1.0
1463662606173703179,509,1463662606146101046,,-3.15672636032,-5.03035593033,-160.136611938,0.0100800003856,1.0,0.0,0.0,0.0,1.0,0.0,0.0,0.0,1.0,2.37804889679,0.670731723309,-0.365853667259,1.0,0.0,0.0,0.0,1.0,0.0,0.0,0.0,1.0,-1.39821376953,-0.124498486328,-10.1514150391,1.0,0.0,0.0,0.0,1.0,0.0,0.0,0.0,1.0
1463662606173971918,510,1463662606156006134,,-3.15541911125,-5.01052570343,-160.128921509,0.0101260002702,1.0,0.0,0.0,0.0,1.0,0.0,0.0,0.0,1.0,2.62195134163,1.03658533096,-0.548780500889,1.0,0.0,0.0,0.0,1.0,0.0,0.0,0.0,1.0,-1.40779057617,-0.201112939453,-10.2711251221,1.0,0.0,0.0,0.0,1.0,0.0,0.0,0.0,1.0
1463662606174236593,511,1463662606166151206,,-3.15644884109,-4.99063539505,-160.118011475,0.0100849997252,1.0,0.0,0.0,0.0,1.0,0.0,0.0,0.0,1.0,2.68292689323,1.2195122242,-0.243902444839,1.0,0.0,0.0,0.0,1.0,0.0,0.0,0.0,1.0,-1.44130939941,-0.15322890625,-10.2902787354,1.0,0.0,0.0,0.0,1.0,0.0,0.0,0.0,1.0
1463662606231449080,512,1463662606176228560,,-3.15709590912,-4.97215890884,-160.107330322,0.010098000057,1.0,0.0,0.0,0.0,1.0,0.0,0.0,0.0,1.0,2.62195134163,1.52439022064,-0.243902444839,1.0,0.0,0.0,0.0,1.0,0.0,0.0,0.0,1.0,-1.52750065918,-0.172382519531,-10.3381627686,1.0,0.0,0.0,0.0,1.0,0.0,0.0,0.0,1.0
1463662606231710161,513,1463662606186342013,,-3.15025901794,-4.94436836243,-160.098480225,0.0101039996371,1.0,0.0,0.0,0.0,1.0,0.0,0.0,0.0,1.0,2.74390244484,1.64634156227,-0.365853667259,1.0,0.0,0.0,0.0,1.0,0.0,0.0,0.0,1.0,-1.37427175293,-0.282515795898,-10.3429511719,1.0,0.0,0.0,0.0,1.0,0.0,0.0,0.0,1.0
1463662606232071726,514,1463662606196466197,,-3.14561319351,-4.91466474533,-160.089630127,0.0100880004466,1.0,0.0,0.0,0.0,1.0,0.0,0.0,0.0,1.0,2.74390244484,2.01219511032,-0.365853667259,1.0,0.0,0.0,0.0,1.0,0.0,0.0,0.0,1.0,-1.40300217285,-0.244208569336,-10.3573163818,1.0,0.0,0.0,0.0,1.0,0.0,0.0,0.0,1.0
1463662606232347653,515,1463662606206515578,,-3.14650249481,-4.88406896591,-160.078720093,0.0101070003584,1.0,0.0,0.0,0.0,1.0,0.0,0.0,0.0,1.0,2.25609779358,1.8292683363,-0.18292683363,1.0,0.0,0.0,0.0,1.0,0.0,0.0,0.0,1.0,-1.34075292969,-0.234631762695,-10.285490332,1.0,0.0,0.0,0.0,1.0,0.0,0.0,0.0,1.0
1463662606232638843,516,1463662606216626374,,-3.14928245544,-4.85558414459,-160.067642212,0.0100919995457,1.0,0.0,0.0,0.0,1.0,0.0,0.0,0.0,1.0,2.19512200356,1.70731711388,-0.18292683363,1.0,0.0,0.0,0.0,1.0,0.0,0.0,0.0,1.0,-1.34554133301,-0.210689746094,-10.2471831055,1.0,0.0,0.0,0.0,1.0,0.0,0.0,0.0,1.0
1463662606232968788,517,1463662606226733368,,-3.15071773529,-4.82596158981,-160.054580688,0.010108999908,1.0,0.0,0.0,0.0,1.0,0.0,0.0,0.0,1.0,1.95121955872,2.07317066193,0.0609756112099,1.0,0.0,0.0,0.0,1.0,0.0,0.0,0.0,1.0,-1.38863696289,-0.282515795898,-10.2376062988,1.0,0.0,0.0,0.0,1.0,0.0,0.0,0.0,1.0
1463662606289879563,518,1463662606236860105,,-3.15756773949,-4.79226875305,-160.041183472,0.010106000118,1.0,0.0,0.0,0.0,1.0,0.0,0.0,0.0,1.0,1.70731711388,1.95121955872,0.0609756112099,1.0,0.0,0.0,0.0,1.0,0.0,0.0,0.0,1.0,-1.2976572998,-0.229843359375,-10.3237975586,1.0,0.0,0.0,0.0,1.0,0.0,0.0,0.0,1.0
1463662606290138769,519,1463662606247340071,,-3.17578864098,-4.76934957504,-160.030105591,0.0102350004017,1.0,0.0,0.0,0.0,1.0,0.0,0.0,0.0,1.0,0.914634168148,1.34146344662,-0.243902444839,1.0,0.0,0.0,0.0,1.0,0.0,0.0,0.0,1.0,-1.37427175293,-0.167594116211,-10.2902787354,1.0,0.0,0.0,0.0,1.0,0.0,0.0,0.0,1.0
1463662606290463818,520,1463662606259403089,,-3.18257212639,-4.74914264679,-160.018386841,0.00996499974281,1.0,0.0,0.0,0.0,1.0,0.0,0.0,0.0,1.0,1.58536589146,1.2195122242,-0.12195122242,1.0,0.0,0.0,0.0,1.0,0.0,0.0,0.0,1.0,-1.38384855957,-0.244208569336,-10.2615483154,1.0,0.0,0.0,0.0,1.0,0.0,0.0,0.0,1.0
1463662606292235856,521,1463662606267309386,,-3.19502735138,-4.72800827026,-160.010528564,0.0102270003408,1.0,0.0,0.0,0.0,1.0,0.0,0.0,0.0,1.0,1.40243899822,1.40243899822,-0.548780500889,1.0,0.0,0.0,0.0,1.0,0.0,0.0,0.0,1.0,-1.40779057617,-0.172382519531,-10.299855542,1.0,0.0,0.0,0.0,1.0,0.0,0.0,0.0,1.0
1463662606292512148,522,1463662606277819410,,-3.20542359352,-4.7045545578,-159.999160767,0.0105280000716,1.0,0.0,0.0,0.0,1.0,0.0,0.0,0.0,1.0,1.58536589146,1.2195122242,-0.243902444839,1.0,0.0,0.0,0.0,1.0,0.0,0.0,0.0,1.0,-1.33596452637,-0.181959326172,-10.2423947021,1.0,0.0,0.0,0.0,1.0,0.0,0.0,0.0,1.0
1463662606292791252,523,1463662606287360902,,-3.21252775192,-4.68575620651,-159.991210938,0.00953999999911,1.0,0.0,0.0,0.0,1.0,0.0,0.0,0.0,1.0,1.76829278469,1.2195122242,-0.487804889679,1.0,0.0,0.0,0.0,1.0,0.0,0.0,0.0,1.0,-1.36948334961,-0.186747729492,-10.1897222656,1.0,0.0,0.0,0.0,1.0,0.0,0.0,0.0,1.0
1463662606313335758,524,1463662606298665889,,-3.21471214294,-4.66393566132,-159.982437134,0.0112770004198,1.0,0.0,0.0,0.0,1.0,0.0,0.0,0.0,1.0,2.31707310677,1.09756100178,-0.548780500889,1.0,0.0,0.0,0.0,1.0,0.0,0.0,0.0,1.0,-1.32638771973,-0.181959326172,-10.0125513428,1.0,0.0,0.0,0.0,1.0,0.0,0.0,0.0,1.0
1463662606313610071,525,1463662606307592444,,-3.22113633156,-4.64888715744,-159.973236084,0.00892200041562,1.0,0.0,0.0,0.0,1.0,0.0,0.0,0.0,1.0,2.37804889679,0.731707334518,-0.365853667259,1.0,0.0,0.0,0.0,1.0,0.0,0.0,0.0,1.0,-1.33596452637,-0.0814028564453,-10.2615483154,1.0,0.0,0.0,0.0,1.0,0.0,0.0,0.0,1.0
1463662606333199901,526,1463662606317996826,,-3.2129342556,-4.63404655457,-159.95892334,0.0104000000283,1.0,0.0,0.0,0.0,1.0,0.0,0.0,0.0,1.0,3.04878044128,-0.0609756112099,-0.0,1.0,0.0,0.0,0.0,1.0,0.0,0.0,0.0,1.0,-1.24498486328,-0.239420166016,-10.314220752,1.0,0.0,0.0,0.0,1.0,0.0,0.0,0.0,1.0
1463662606333568134,527,1463662606328506902,,-3.21728610992,-4.62915563583,-159.946151733,0.00980599969625,1.0,0.0,0.0,0.0,1.0,0.0,0.0,0.0,1.0,2.31707310677,-0.18292683363,-0.12195122242,1.0,0.0,0.0,0.0,1.0,0.0,0.0,0.0,1.0,-1.38863696289,-0.148440512063,-10.299855542,1.0,0.0,0.0,0.0,1.0,0.0,0.0,0.0,1.0
1463662606343530523,528,1463662606338797725,,-3.21313285828,-4.61779594421,-159.93157959,0.0109510002658,1.0,0.0,0.0,0.0,1.0,0.0,0.0,0.0,1.0,2.74390244484,-0.18292683363,-0.0609756112099,1.0,0.0,0.0,0.0,1.0,0.0,0.0,0.0,1.0,-1.25935007324,-0.215478149414,-10.0652237793,1.0,0.0,0.0,0.0,1.0,0.0,0.0,0.0,1.0
1463662606362691695,529,1463662606348173619,,-3.22038006783,-4.61653470993,-159.919281006,0.00926300045103,1.0,0.0,0.0,0.0,1.0,0.0,0.0,0.0,1.0,2.13414645195,-0.365853667259,-0.12195122242,1.0,0.0,0.0,0.0,1.0,0.0,0.0,0.0,1.0,-1.41257897949,-0.119710083008,-10.2519715088,1.0,0.0,0.0,0.0,1.0,0.0,0.0,0.0,1.0
1463662606362957412,530,1463662606358368491,,-3.21711087227,-4.60867023468,-159.902053833,0.0100880004466,1.0,0.0,0.0,0.0,1.0,0.0,0.0,0.0,1.0,2.25609779358,-0.975609779358,0.304878056049,1.0,0.0,0.0,0.0,1.0,0.0,0.0,0.0,1.0,-1.20188930646,-0.3064578125,-10.3908352051,1.0,0.0,0.0,0.0,1.0,0.0,0.0,0.0,1.0
1463662606451280114,531,1463662606368665044,,-3.23410511017,-4.60849046707,-159.884414673,0.010216999799,1.0,0.0,0.0,0.0,1.0,0.0,0.0,0.0,1.0,1.40243899822,-0.731707334518,0.243902444839,1.0,0.0,0.0,0.0,1.0,0.0,0.0,0.0,1.0,-1.35032973633,-0.0957680664062,-10.1083194092,1.0,0.0,0.0,0.0,1.0,0.0,0.0,0.0,1.0
1463662606451556614,532,1463662606378379427,,-3.23630285263,-4.6102399826,-159.864685059,0.00999800022691,1.0,0.0,0.0,0.0,1.0,0.0,0.0,0.0,1.0,2.07317066193,-0.853658556938,0.548780500889,1.0,0.0,0.0,0.0,1.0,0.0,0.0,0.0,1.0,-1.38384855957,-0.239420166016,-10.2423947021,1.0,0.0,0.0,0.0,1.0,0.0,0.0,0.0,1.0
1463662606451833114,533,1463662606388322333,,-3.25536322594,-4.60800743103,-159.842071533,0.0100969998166,1.0,0.0,0.0,0.0,1.0,0.0,0.0,0.0,1.0,1.15853655338,-0.12195122242,0.792682945728,1.0,0.0,0.0,0.0,1.0,0.0,0.0,0.0,1.0,-1.45088620605,-0.105344873047,-10.2567599121,1.0,0.0,0.0,0.0,1.0,0.0,0.0,0.0,1.0
1463662606452142796,534,1463662606398444590,,-3.26145172119,-4.60554075241,-159.816757202,0.0101030003279,1.0,0.0,0.0,0.0,1.0,0.0,0.0,0.0,1.0,1.70731711388,-0.548780500889,1.09756100178,1.0,0.0,0.0,0.0,1.0,0.0,0.0,0.0,1.0,-1.36469494629,-0.239420166016,-10.2136642822,1.0,0.0,0.0,0.0,1.0,0.0,0.0,0.0,1.0
1463662606454689483,535,1463662606409066870,,-3.28089928627,-4.60610771179,-159.790847778,0.0101260002702,1.0,0.0,0.0,0.0,1.0,0.0,0.0,0.0,1.0,1.2804877758,-0.18292683363,1.09756100178,1.0,0.0,0.0,0.0,1.0,0.0,0.0,0.0,1.0,-1.47482822266,-0.076614453125,-10.1274730225,1.0,0.0,0.0,0.0,1.0,0.0,0.0,0.0,1.0
1463662606455267174,536,1463662606418669517,,-3.29080605507,-4.60601711273,-159.76361084,0.0100819999352,1.0,0.0,0.0,0.0,1.0,0.0,0.0,0.0,1.0,1.70731711388,-0.243902444839,1.2804877758,1.0,0.0,0.0,0.0,1.0,0.0,0.0,0.0,1.0,-1.45088620605,-0.167594116211,-10.1083194092,1.0,0.0,0.0,0.0,1.0,0.0,0.0,0.0,1.0
1463662606455323016,537,1463662606429657685,,-3.30489850044,-4.60317182541,-159.735839844,0.010095000267,1.0,0.0,0.0,0.0,1.0,0.0,0.0,0.0,1.0,1.40243899822,0.12195122242,1.34146344662,1.0,0.0,0.0,0.0,1.0,0.0,0.0,0.0,1.0,-1.4844050293,-0.148440512063,-10.2184526855,1.0,0.0,0.0,0.0,1.0,0.0,0.0,0.0,1.0
1463662606455643116,538,1463662606439079575,,-3.31024456024,-4.59541940689,-159.705795288,0.0101009998471,1.0,0.0,0.0,0.0,1.0,0.0,0.0,0.0,1.0,1.8292683363,-0.18292683363,1.58536589146,1.0,0.0,0.0,0.0,1.0,0.0,0.0,0.0,1.0,-1.35032973633,-0.229843359375,-10.2902787354,1.0,0.0,0.0,0.0,1.0,0.0,0.0,0.0,1.0
1463662606456085787,539,1463662606448955493,,-3.32269096375,-4.58427762985,-159.679901123,0.0100959995762,1.0,0.0,0.0,0.0,1.0,0.0,0.0,0.0,1.0,1.76829278469,0.426829278469,1.15853655338,1.0,0.0,0.0,0.0,1.0,0.0,0.0,0.0,1.0,-1.40300217285,-0.105344873047,-10.3477395752,1.0,0.0,0.0,0.0,1.0,0.0,0.0,0.0,1.0
1463662607014137959,540,1463662606459428427,,-3.32199954987,-4.57549953461,-159.646850586,0.0101209999993,1.0,0.0,0.0,0.0,1.0,0.0,0.0,0.0,1.0,2.5,0.18292683363,1.8902438879,1.0,0.0,0.0,0.0,1.0,0.0,0.0,0.0,1.0,-1.38384855957,-0.215478149414,-10.1753570557,1.0,0.0,0.0,0.0,1.0,0.0,0.0,0.0,1.0
1463662607014463269,541,1463662606469218342,,-3.3277888298,-4.5592455864,-159.615036011,0.0100990002975,1.0,0.0,0.0,0.0,1.0,0.0,0.0,0.0,1.0,2.19512200356,0.548780500889,1.76829278469,1.0,0.0,0.0,0.0,1.0,0.0,0.0,0.0,1.0,-1.32638771973,-0.15322890625,-10.285490332,1.0,0.0,0.0,0.0,1.0,0.0,0.0,0.0,1.0
1463662607015580937,542,1463662606479264858,,-3.32459950447,-4.55454206467,-159.582946777,0.0100910002366,1.0,0.0,0.0,0.0,1.0,0.0,0.0,0.0,1.0,2.86585378647,-0.243902444839,1.76829278469,1.0,0.0,0.0,0.0,1.0,0.0,0.0,0.0,1.0,-1.37427175293,-0.191536132812,-10.180145459,1.0,0.0,0.0,0.0,1.0,0.0,0.0,0.0,1.0
1463662607015954744,543,1463662606489296632,,-3.328820467,-4.53825473785,-159.555282593,0.0100880004466,1.0,0.0,0.0,0.0,1.0,0.0,0.0,0.0,1.0,2.68292689323,0.670731723309,1.34146344662,1.0,0.0,0.0,0.0,1.0,0.0,0.0,0.0,1.0,-1.35032973633,-0.0861912597656,-10.3668931885,1.0,0.0,0.0,0.0,1.0,0.0,0.0,0.0,1.0
1463662607016513005,544,1463662606499508277,,-3.32082343102,-4.52773141861,-159.52532959,0.0101309996098,1.0,0.0,0.0,0.0,1.0,0.0,0.0,0.0,1.0,3.17073178291,0.243902444839,1.58536589146,1.0,0.0,0.0,0.0,1.0,0.0,0.0,0.0,1.0,-1.36469494629,-0.220266552734,-10.2711251221,1.0,0.0,0.0,0.0,1.0,0.0,0.0,0.0,1.0
1463662607016962604,545,1463662606510187701,,-3.31897068024,-4.51372528076,-159.498825073,0.0100840004161,1.0,0.0,0.0,0.0,1.0,0.0,0.0,0.0,1.0,2.98780488968,0.18292683363,1.2195122242,1.0,0.0,0.0,0.0,1.0,0.0,0.0,0.0,1.0,-1.28808049316,-0.138863696289,-10.3094323486,1.0,0.0,0.0,0.0,1.0,0.0,0.0,0.0,1.0
1463662607017246501,546,1463662606519674705,,-3.31201815605,-4.50222301483,-159.469390869,0.0101009998471,1.0,0.0,0.0,0.0,1.0,0.0,0.0,0.0,1.0,2.92682933807,-0.243902444839,1.52439022064,1.0,0.0,0.0,0.0,1.0,0.0,0.0,0.0,1.0,-1.24019645996,-0.244208569336,-10.180145459,1.0,0.0,0.0,0.0,1.0,0.0,0.0,0.0,1.0
1463662607017515708,547,1463662606529785345,,-3.31383109093,-4.49320888519,-159.444549561,0.0100990002975,1.0,0.0,0.0,0.0,1.0,0.0,0.0,0.0,1.0,2.37804889679,-0.365853667259,1.03658533096,1.0,0.0,0.0,0.0,1.0,0.0,0.0,0.0,1.0,-1.26413847656,-0.181959326172,-10.2471831055,1.0,0.0,0.0,0.0,1.0,0.0,0.0,0.0,1.0
1463662607017789656,548,1463662606539928386,,-3.31278014183,-4.48925542831,-159.416442871,0.0100919995457,1.0,0.0,0.0,0.0,1.0,0.0,0.0,0.0,1.0,2.43902444839,-0.975609779358,1.34146344662,1.0,0.0,0.0,0.0,1.0,0.0,0.0,0.0,1.0,-1.23540805664,-0.225054956055,-10.1609918457,1.0,0.0,0.0,0.0,1.0,0.0,0.0,0.0,1.0
1463662607018050216,549,1463662606549982195,,-3.32254719734,-4.48709630966,-159.391601562,0.0101159997284,1.0,0.0,0.0,0.0,1.0,0.0,0.0,0.0,1.0,1.76829278469,-1.09756100178,0.975609779358,1.0,0.0,0.0,0.0,1.0,0.0,0.0,0.0,1.0,-1.24498486328,-0.148440512063,-10.1897222656,1.0,0.0,0.0,0.0,1.0,0.0,0.0,0.0,1.0
1463662607018289263,550,1463662606560728712,,-3.32693386078,-4.49031066895,-159.364028931,0.0100990002975,1.0,0.0,0.0,0.0,1.0,0.0,0.0,0.0,1.0,1.64634156227,-1.46341466904,1.2804877758,1.0,0.0,0.0,0.0,1.0,0.0,0.0,0.0,1.0,-1.26892687988,-0.268150604204,-10.1178962158,1.0,0.0,0.0,0.0,1.0,0.0,0.0,0.0,1.0
1463662607018525653,551,1463662606570554413,,-3.3412027359,-4.4900431633,-159.338806152,0.0100969998166,1.0,0.0,0.0,0.0,1.0,0.0,0.0,0.0,1.0,1.03658533096,-1.15853655338,1.03658533096,1.0,0.0,0.0,0.0,1.0,0.0,0.0,0.0,1.0,-1.25456166992,-0.196324536133,-10.0748005859,1.0,0.0,0.0,0.0,1.0,0.0,0.0,0.0,1.0
1463662607024574482,552,1463662606580269473,,-3.34976434708,-4.49743652344,-159.310684204,0.0101039996371,1.0,0.0,0.0,0.0,1.0,0.0,0.0,0.0,1.0,1.52439022064,-1.95121955872,1.2804877758,1.0,0.0,0.0,0.0,1.0,0.0,0.0,0.0,1.0,-1.2737152832,-0.215478149414,-10.2567599121,1.0,0.0,0.0,0.0,1.0,0.0,0.0,0.0,1.0
1463662607024950632,553,1463662606590496016,,-3.36341404915,-4.49609851837,-159.287078857,0.0101070003584,1.0,0.0,0.0,0.0,1.0,0.0,0.0,0.0,1.0,1.34146344662,-1.2195122242,0.853658556938,1.0,0.0,0.0,0.0,1.0,0.0,0.0,0.0,1.0,-1.24498486328,-0.148440512063,-10.2471831055,1.0,0.0,0.0,0.0,1.0,0.0,0.0,0.0,1.0
1463662607025241822,554,1463662606600936133,,-3.37575936317,-4.50275659561,-159.260971069,0.010098000057,1.0,0.0,0.0,0.0,1.0,0.0,0.0,0.0,1.0,1.76829278469,-1.95121955872,1.03658533096,1.0,0.0,0.0,0.0,1.0,0.0,0.0,0.0,1.0,-1.26892687988,-0.0957680664062,-10.3333743652,1.0,0.0,0.0,0.0,1.0,0.0,0.0,0.0,1.0
1463662607025561141,555,1463662606610692293,,-3.38421940804,-4.50854969025,-159.242416382,0.0100919995457,1.0,0.0,0.0,0.0,1.0,0.0,0.0,0.0,1.0,1.58536589146,-1.46341466904,0.365853667259,1.0,0.0,0.0,0.0,1.0,0.0,0.0,0.0,1.0,-1.32638771973,-0.186747729492,-10.2519715088,1.0,0.0,0.0,0.0,1.0,0.0,0.0,0.0,1.0
1463662607025830036,556,1463662606620731203,,-3.38873291016,-4.51819849014,-159.220169067,0.0100990002975,1.0,0.0,0.0,0.0,1.0,0.0,0.0,0.0,1.0,2.25609779358,-2.07317066193,0.670731723309,1.0,0.0,0.0,0.0,1.0,0.0,0.0,0.0,1.0,-1.28808049316,-0.138863696289,-10.2423947021,1.0,0.0,0.0,0.0,1.0,0.0,0.0,0.0,1.0
1463662607026097628,557,1463662606630815641,,-3.39277362823,-4.51987504959,-159.205307007,0.0101110003889,1.0,0.0,0.0,0.0,1.0,0.0,0.0,0.0,1.0,2.13414645195,-1.2804877758,-0.0,1.0,0.0,0.0,0.0,1.0,0.0,0.0,0.0,1.0,-1.27850368652,-0.15801730957,-10.2088758789,1.0,0.0,0.0,0.0,1.0,0.0,0.0,0.0,1.0
1463662607026351729,558,1463662606641072710,,-3.39505505562,-4.52574777603,-159.183288574,0.010106000118,1.0,0.0,0.0,0.0,1.0,0.0,0.0,0.0,1.0,2.43902444839,-1.76829278469,0.670731723309,1.0,0.0,0.0,0.0,1.0,0.0,0.0,0.0,1.0,-1.2737152832,-0.143652099609,-10.2136642822,1.0,0.0,0.0,0.0,1.0,0.0,0.0,0.0,1.0
1463662607026620468,559,1463662606651118236,,-3.39932823181,-4.53200387955,-159.168182373,0.0100919995457,1.0,0.0,0.0,0.0,1.0,0.0,0.0,0.0,1.0,2.19512200356,-1.64634156227,-0.0,1.0,0.0,0.0,0.0,1.0,0.0,0.0,0.0,1.0,-1.31202250977,-0.143652099609,-10.3333743652,1.0,0.0,0.0,0.0,1.0,0.0,0.0,0.0,1.0
1463662607026928639,560,1463662606661440679,,-3.3929643631,-4.53541183472,-159.145278931,0.0103620002046,1.0,0.0,0.0,0.0,1.0,0.0,0.0,0.0,1.0,2.31707310677,-1.52439022064,0.792682945728,1.0,0.0,0.0,0.0,1.0,0.0,0.0,0.0,1.0,-1.28329208984,-0.320823022461,-10.2807019287,1.0,0.0,0.0,0.0,1.0,0.0,0.0,0.0,1.0
1463662607027329846,561,1463662606671497248,,-3.39752459526,-4.53249788284,-159.125030518,0.00983600039035,1.0,0.0,0.0,0.0,1.0,0.0,0.0,0.0,1.0,2.19512200356,-0.792682945728,0.609756112099,1.0,0.0,0.0,0.0,1.0,0.0,0.0,0.0,1.0,-1.2976572998,-0.143652099609,-10.2471831055,1.0,0.0,0.0,0.0,1.0,0.0,0.0,0.0,1.0
1463662607027378603,562,1463662606681527720,,-3.39955377579,-4.53726291656,-159.097930908,0.0101020000875,1.0,0.0,0.0,0.0,1.0,0.0,0.0,0.0,1.0,2.13414645195,-1.46341466904,1.2195122242,1.0,0.0,0.0,0.0,1.0,0.0,0.0,0.0,1.0,-1.31681091309,-0.210689746094,-10.2088758789,1.0,0.0,0.0,0.0,1.0,0.0,0.0,0.0,1.0
1463662607027735428,563,1463662606691560380,,-3.40947842598,-4.53654003143,-159.076309204,0.0101020000875,1.0,0.0,0.0,0.0,1.0,0.0,0.0,0.0,1.0,2.07317066193,-0.609756112099,0.670731723309,1.0,0.0,0.0,0.0,1.0,0.0,0.0,0.0,1.0,-1.37906015625,-0.0718260498047,-10.285490332,1.0,0.0,0.0,0.0,1.0,0.0,0.0,0.0,1.0
1463662607028073031,564,1463662606701600957,,-3.40985059738,-4.52931880951,-159.047271729,0.0100940000266,1.0,0.0,0.0,0.0,1.0,0.0,0.0,0.0,1.0,2.25609779358,-0.670731723309,1.46341466904,1.0,0.0,0.0,0.0,1.0,0.0,0.0,0.0,1.0,-1.25935007324,-0.220266552734,-10.3046439453,1.0,0.0,0.0,0.0,1.0,0.0,0.0,0.0,1.0
1463662607028388495,565,1463662606712170625,,-3.41373538971,-4.52389144897,-159.021255493,0.0101030003279,1.0,0.0,0.0,0.0,1.0,0.0,0.0,0.0,1.0,2.19512200356,-0.365853667259,1.15853655338,1.0,0.0,0.0,0.0,1.0,0.0,0.0,0.0,1.0,-1.33596452637,-0.162805712891,-10.2423947021,1.0,0.0,0.0,0.0,1.0,0.0,0.0,0.0,1.0
1463662607031493703,566,1463662606722320490,,-3.40745019913,-4.5162653923,-158.989318848,0.010108999908,1.0,0.0,0.0,0.0,1.0,0.0,0.0,0.0,1.0,2.19512200356,-0.243902444839,1.8292683363,1.0,0.0,0.0,0.0,1.0,0.0,0.0,0.0,1.0,-1.32159931641,-0.354341845703,-10.2232410889,1.0,0.0,0.0,0.0,1.0,0.0,0.0,0.0,1.0
1463662607031765411,567,1463662606734288806,,-3.40756344795,-4.50006532669,-158.96333313,0.0100870002061,1.0,0.0,0.0,0.0,1.0,0.0,0.0,0.0,1.0,2.01219511032,-0.0609756112099,1.2195122242,1.0,0.0,0.0,0.0,1.0,0.0,0.0,0.0,1.0,-1.19231249982,-0.263362164351,-10.2328178955,1.0,0.0,0.0,0.0,1.0,0.0,0.0,0.0,1.0
1463662607032028940,568,1463662606741942305,,-3.41070127487,-4.49371099472,-158.930664062,0.0101690003648,1.0,0.0,0.0,0.0,1.0,0.0,0.0,0.0,1.0,1.76829278469,-0.426829278469,1.8292683363,1.0,0.0,0.0,0.0,1.0,0.0,0.0,0.0,1.0,-1.30723410645,-0.263362164351,-10.2184526855,1.0,0.0,0.0,0.0,1.0,0.0,0.0,0.0,1.0
1463662607032266945,569,1463662606757932791,,-3.40476131439,-4.47254085541,-158.884094238,0.0159109998494,1.0,0.0,0.0,0.0,1.0,0.0,0.0,0.0,1.0,2.31707310677,0.12195122242,1.58536589146,1.0,0.0,0.0,0.0,1.0,0.0,0.0,0.0,1.0,-1.2737152832,-0.282515795898,-10.2136642822,1.0,0.0,0.0,0.0,1.0,0.0,0.0,0.0,1.0
1463662607032526776,570,1463662606766925814,,-3.40546870232,-4.46992254257,-158.870925903,0.00422899983823,1.0,0.0,0.0,0.0,1.0,0.0,0.0,0.0,1.0,2.31707310677,-0.243902444839,1.70731711388,1.0,0.0,0.0,0.0,1.0,0.0,0.0,0.0,1.0,-1.32638771973,-0.186747729492,-10.1466266357,1.0,0.0,0.0,0.0,1.0,0.0,0.0,0.0,1.0
1463662607032780251,571,1463662606777963105,,-3.39830589294,-4.44738960266,-158.834442139,0.0152479996905,1.0,0.0,0.0,0.0,1.0,0.0,0.0,0.0,1.0,2.62195134163,0.18292683363,1.03658533096,1.0,0.0,0.0,0.0,1.0,0.0,0.0,0.0,1.0,-1.25935007324,-0.239420166016,-10.3094323486,1.0,0.0,0.0,0.0,1.0,0.0,0.0,0.0,1.0
1463662607033176144,572,1463662606782502279,,-3.39568901062,-4.44072294235,-158.819244385,0.00525199994445,1.0,0.0,0.0,0.0,1.0,0.0,0.0,0.0,1.0,2.86585378647,0.243902444839,1.52439022064,1.0,0.0,0.0,0.0,1.0,0.0,0.0,0.0,1.0,-1.29286889648,-0.205901342773,-10.1705686523,1.0,0.0,0.0,0.0,1.0,0.0,0.0,0.0,1.0
1463662607033579747,573,1463662606792455864,,-3.39202046394,-4.43122053146,-158.799957275,0.00981600023806,1.0,0.0,0.0,0.0,1.0,0.0,0.0,0.0,1.0,2.68292689323,0.426829278469,0.609756112099,1.0,0.0,0.0,0.0,1.0,0.0,0.0,0.0,1.0,-1.37906015625,-0.205901342773,-10.2376062988,1.0,0.0,0.0,0.0,1.0,0.0,0.0,0.0,1.0
1463662607033633192,574,1463662606802369339,,-3.38223075867,-4.42131614685,-158.77911377,0.0100859999657,1.0,0.0,0.0,0.0,1.0,0.0,0.0,0.0,1.0,2.98780488968,0.426829278469,0.731707334518,1.0,0.0,0.0,0.0,1.0,0.0,0.0,0.0,1.0,-1.35990654297,-0.258573779297,-10.1178962158,1.0,0.0,0.0,0.0,1.0,0.0,0.0,0.0,1.0
1463662607033928706,575,1463662606812655214,,-3.37660217285,-4.40631389618,-158.761962891,0.010111999698,1.0,0.0,0.0,0.0,1.0,0.0,0.0,0.0,1.0,2.74390244484,0.731707334518,0.365853667259,1.0,0.0,0.0,0.0,1.0,0.0,0.0,0.0,1.0,-1.32638771973,-0.225054956055,-10.180145459,1.0,0.0,0.0,0.0,1.0,0.0,0.0,0.0,1.0
1463662607034202810,576,1463662606822807371,,-3.37098121643,-4.3948507309,-158.745010376,0.010095000267,1.0,0.0,0.0,0.0,1.0,0.0,0.0,0.0,1.0,2.5,0.731707334518,0.365853667259,1.0,0.0,0.0,0.0,1.0,0.0,0.0,0.0,1.0,-1.39821376953,-0.272938989258,-10.2615483154,1.0,0.0,0.0,0.0,1.0,0.0,0.0,0.0,1.0
1463662607034479310,577,1463662606833045791,,-3.37100625038,-4.3736333847,-158.738861084,0.0101079996675,1.0,0.0,0.0,0.0,1.0,0.0,0.0,0.0,1.0,2.56097555161,1.09756100178,-0.731707334518,1.0,0.0,0.0,0.0,1.0,0.0,0.0,0.0,1.0,-1.2737152832,-0.143652099609,-10.2567599121,1.0,0.0,0.0,0.0,1.0,0.0,0.0,0.0,1.0
1463662607034741589,578,1463662606842933377,,-3.368278265,-4.35614109039,-158.732177734,0.0100889997557,1.0,0.0,0.0,0.0,1.0,0.0,0.0,0.0,1.0,2.5,0.792682945728,-0.670731723309,1.0,0.0,0.0,0.0,1.0,0.0,0.0,0.0,1.0,-1.28329208984,-0.205901342773,-10.2711251221,1.0,0.0,0.0,0.0,1.0,0.0,0.0,0.0,1.0
1463662607035022152,579,1463662606853051935,,-3.36426830292,-4.34208011627,-158.733703613,0.0101079996675,1.0,0.0,0.0,0.0,1.0,0.0,0.0,0.0,1.0,2.25609779358,0.670731723309,-1.46341466904,1.0,0.0,0.0,0.0,1.0,0.0,0.0,0.0,1.0,-1.31202250977,-0.263362164351,-10.2711251221,1.0,0.0,0.0,0.0,1.0,0.0,0.0,0.0,1.0
1463662607035295006,580,1463662606863106316,,-3.36402368546,-4.32746219635,-158.732803345,0.0100999996066,1.0,0.0,0.0,0.0,1.0,0.0,0.0,0.0,1.0,2.5,0.548780500889,-1.2804877758,1.0,0.0,0.0,0.0,1.0,0.0,0.0,0.0,1.0,-1.2737152832,-0.15322890625,-10.2280294922,1.0,0.0,0.0,0.0,1.0,0.0,0.0,0.0,1.0
1463662607035588488,581,1463662606873536223,,-3.35315561295,-4.30758810043,-158.738555908,0.0100999996066,1.0,0.0,0.0,0.0,1.0,0.0,0.0,0.0,1.0,2.80487799644,0.426829278469,-1.8902438879,1.0,0.0,0.0,0.0,1.0,0.0,0.0,0.0,1.0,-1.15879360352,-0.282515795898,-10.3381627686,1.0,0.0,0.0,0.0,1.0,0.0,0.0,0.0,1.0
1463662607035873739,582,1463662606883559663,,-3.35035085678,-4.30270528793,-158.742660522,0.0101009998471,1.0,0.0,0.0,0.0,1.0,0.0,0.0,0.0,1.0,2.62195134163,-0.487804889679,-1.8292683363,1.0,0.0,0.0,0.0,1.0,0.0,0.0,0.0,1.0,-1.2497732666,-0.172382519531,-10.2376062988,1.0,0.0,0.0,0.0,1.0,0.0,0.0,0.0,1.0
1463662607036162116,583,1463662606893327960,,-3.34112405777,-4.29577350616,-158.752593994,0.0100999996066,1.0,0.0,0.0,0.0,1.0,0.0,0.0,0.0,1.0,2.74390244484,-0.670731723309,-2.37804889679,1.0,0.0,0.0,0.0,1.0,0.0,0.0,0.0,1.0,-1.17315874041,-0.258573779297,-10.2471831055,1.0,0.0,0.0,0.0,1.0,0.0,0.0,0.0,1.0
1463662607039492045,584,1463662606903438131,,-3.33244585991,-4.29852676392,-158.754898071,0.010095000267,1.0,0.0,0.0,0.0,1.0,0.0,0.0,0.0,1.0,2.74390244484,-0.975609779358,-1.64634156227,1.0,0.0,0.0,0.0,1.0,0.0,0.0,0.0,1.0,-1.30723410645,-0.263362164351,-10.3046439453,1.0,0.0,0.0,0.0,1.0,0.0,0.0,0.0,1.0
1463662607039805530,585,1463662606913585287,,-3.32321739197,-4.29684114456,-158.763305664,0.0101229995489,1.0,0.0,0.0,0.0,1.0,0.0,0.0,0.0,1.0,2.80487799644,-1.09756100178,-2.25609779358,1.0,0.0,0.0,0.0,1.0,0.0,0.0,0.0,1.0,-1.19710090314,-0.253785375977,-10.299855542,1.0,0.0,0.0,0.0,1.0,0.0,0.0,0.0,1.0
1463662607040146154,586,1463662606923710929,,-3.32339763641,-4.30880594254,-158.769058228,0.0100919995457,1.0,0.0,0.0,0.0,1.0,0.0,0.0,0.0,1.0,2.5,-1.58536589146,-2.07317066193,1.0,0.0,0.0,0.0,1.0,0.0,0.0,0.0,1.0,-1.34075292969,-0.143652099609,-10.1609918457,1.0,0.0,0.0,0.0,1.0,0.0,0.0,0.0,1.0
1463662607040950130,587,1463662606933820215,,-3.31721925735,-4.31702709198,-158.775772095,0.0101030003279,1.0,0.0,0.0,0.0,1.0,0.0,0.0,0.0,1.0,2.80487799644,-1.46341466904,-2.13414645195,1.0,0.0,0.0,0.0,1.0,0.0,0.0,0.0,1.0,-1.2976572998,-0.201112939453,-10.1705686523,1.0,0.0,0.0,0.0,1.0,0.0,0.0,0.0,1.0
1463662607041278096,588,1463662606943825579,,-3.31812238693,-4.33212375641,-158.780105591,0.0100889997557,1.0,0.0,0.0,0.0,1.0,0.0,0.0,0.0,1.0,2.74390244484,-1.52439022064,-1.95121955872,1.0,0.0,0.0,0.0,1.0,0.0,0.0,0.0,1.0,-1.43173259277,-0.0909796630859,-10.2902787354,1.0,0.0,0.0,0.0,1.0,0.0,0.0,0.0,1.0
1463662607041534333,589,1463662606953955337,,-3.30883598328,-4.33233547211,-158.787033081,0.0100929997861,1.0,0.0,0.0,0.0,1.0,0.0,0.0,0.0,1.0,3.17073178291,-1.03658533096,-2.13414645195,1.0,0.0,0.0,0.0,1.0,0.0,0.0,0.0,1.0,-1.24019645996,-0.191536132812,-10.2136642822,1.0,0.0,0.0,0.0,1.0,0.0,0.0,0.0,1.0
1463662607041779109,590,1463662606964059205,,-3.30342411995,-4.3398103714,-158.787521362,0.0101220002398,1.0,0.0,0.0,0.0,1.0,0.0,0.0,0.0,1.0,3.10975623131,-1.09756100178,-1.52439022064,1.0,0.0,0.0,0.0,1.0,0.0,0.0,0.0,1.0,-1.36469494629,-0.143652099609,-10.1945106689,1.0,0.0,0.0,0.0,1.0,0.0,0.0,0.0,1.0
1463662607042026959,591,1463662606974295593,,-3.2917804718,-4.33886766434,-158.792114258,0.0101070003584,1.0,0.0,0.0,0.0,1.0,0.0,0.0,0.0,1.0,3.41463422775,-0.792682945728,-1.8902438879,1.0,0.0,0.0,0.0,1.0,0.0,0.0,0.0,1.0,-1.2737152832,-0.196324536133,-10.2615483154,1.0,0.0,0.0,0.0,1.0,0.0,0.0,0.0,1.0
1463662607042258452,592,1463662606984264389,,-3.27995872498,-4.34725522995,-158.785812378,0.0100899999961,1.0,0.0,0.0,0.0,1.0,0.0,0.0,0.0,1.0,3.65853667259,-1.2195122242,-0.853658556938,1.0,0.0,0.0,0.0,1.0,0.0,0.0,0.0,1.0,-1.36948334961,-0.172382519531,-10.2088758789,1.0,0.0,0.0,0.0,1.0,0.0,0.0,0.0,1.0
1463662607042490831,593,1463662606994463949,,-3.26366019249,-4.3398604393,-158.7837677,0.0101889995858,1.0,0.0,0.0,0.0,1.0,0.0,0.0,0.0,1.0,3.84146332741,-0.548780500889,-1.2195122242,1.0,0.0,0.0,0.0,1.0,0.0,0.0,0.0,1.0,-1.19710090314,-0.210689746094,-10.1466266357,1.0,0.0,0.0,0.0,1.0,0.0,0.0,0.0,1.0
1463662607042723887,594,1463662607004465562,,-3.25409340858,-4.34605741501,-158.774169922,0.0100130001083,1.0,0.0,0.0,0.0,1.0,0.0,0.0,0.0,1.0,3.41463422775,-0.670731723309,-0.487804889679,1.0,0.0,0.0,0.0,1.0,0.0,0.0,0.0,1.0,-1.42694418945,-0.186747729492,-10.1514150391,1.0,0.0,0.0,0.0,1.0,0.0,0.0,0.0,1.0
1463662607042992782,595,1463662607014697575,,-3.24690937996,-4.33720064163,-158.765884399,0.0101190004498,1.0,0.0,0.0,0.0,1.0,0.0,0.0,0.0,1.0,3.53658556938,0.12195122242,-0.609756112099,1.0,0.0,0.0,0.0,1.0,0.0,0.0,0.0,1.0,-1.31202250977,-0.119710083008,-10.2567599121,1.0,0.0,0.0,0.0,1.0,0.0,0.0,0.0,1.0
1463662607357721312,596,1463662607024732527,,-3.23879742622,-4.33994197845,-158.750717163,0.0100769996643,1.0,0.0,0.0,0.0,1.0,0.0,0.0,0.0,1.0,3.35365867615,-0.487804889679,0.0609756112099,1.0,0.0,0.0,0.0,1.0,0.0,0.0,0.0,1.0,-1.41257897949,-0.181959326172,-10.2280294922,1.0,0.0,0.0,0.0,1.0,0.0,0.0,0.0,1.0
1463662607357996875,597,1463662607034789148,,-3.22389221191,-4.3289065361,-158.735290527,0.0101049998775,1.0,0.0,0.0,0.0,1.0,0.0,0.0,0.0,1.0,4.02439022064,0.243902444839,0.12195122242,1.0,0.0,0.0,0.0,1.0,0.0,0.0,0.0,1.0,-1.29286889648,-0.181959326172,-10.1945106689,1.0,0.0,0.0,0.0,1.0,0.0,0.0,0.0,1.0
1463662607358267488,598,1463662607044852125,,-3.2025911808,-4.32166814804,-158.718994141,0.0100880004466,1.0,0.0,0.0,0.0,1.0,0.0,0.0,0.0,1.0,4.08536577225,0.0609756112099,0.243902444839,1.0,0.0,0.0,0.0,1.0,0.0,0.0,0.0,1.0,-1.33117612305,-0.292092584273,-10.2280294922,1.0,0.0,0.0,0.0,1.0,0.0,0.0,0.0,1.0
1463662607358552375,599,1463662607055053143,,-3.1914460659,-4.31113576889,-158.701248169,0.0101389996707,1.0,0.0,0.0,0.0,1.0,0.0,0.0,0.0,1.0,4.14634132385,0.243902444839,0.304878056049,1.0,0.0,0.0,0.0,1.0,0.0,0.0,0.0,1.0,-1.2976572998,-0.100556469727,-10.165780249,1.0,0.0,0.0,0.0,1.0,0.0,0.0,0.0,1.0
1463662607358849347,600,1463662607065063664,,-3.17382526398,-4.29882335663,-158.681976318,0.0100809996948,1.0,0.0,0.0,0.0,1.0,0.0,0.0,0.0,1.0,4.45121955872,0.18292683363,0.487804889679,1.0,0.0,0.0,0.0,1.0,0.0,0.0,0.0,1.0,-1.25935007324,-0.167594116211,-10.2184526855,1.0,0.0,0.0,0.0,1.0,0.0,0.0,0.0,1.0
1463662607359146996,601,1463662607075264474,,-3.15459823608,-4.28505468369,-158.66758728,0.0101009998471,1.0,0.0,0.0,0.0,1.0,0.0,0.0,0.0,1.0,4.57317066193,0.18292683363,-0.0,1.0,0.0,0.0,0.0,1.0,0.0,0.0,0.0,1.0,-1.24498486328,-0.172382519531,-10.3764699951,1.0,0.0,0.0,0.0,1.0,0.0,0.0,0.0,1.0
1463662607359421777,602,1463662607085369124,,-3.13257288933,-4.27663660049,-158.65272522,0.0101009998471,1.0,0.0,0.0,0.0,1.0,0.0,0.0,0.0,1.0,4.51219558716,0.0,0.0609756112099,1.0,0.0,0.0,0.0,1.0,0.0,0.0,0.0,1.0,-1.27850368652,-0.234631762695,-10.1466266357,1.0,0.0,0.0,0.0,1.0,0.0,0.0,0.0,1.0
1463662607359710935,603,1463662607095436841,,-3.11154675484,-4.26481342316,-158.640594482,0.0100990002975,1.0,0.0,0.0,0.0,1.0,0.0,0.0,0.0,1.0,4.63414621353,-0.304878056049,-0.243902444839,1.0,0.0,0.0,0.0,1.0,0.0,0.0,0.0,1.0,-1.17315874041,-0.196324536133,-10.285490332,1.0,0.0,0.0,0.0,1.0,0.0,0.0,0.0,1.0
1463662607360022076,604,1463662607105406366,,-3.08643126488,-4.26138067245,-158.629013062,0.0100889997557,1.0,0.0,0.0,0.0,1.0,0.0,0.0,0.0,1.0,4.75609779358,-0.792682945728,-0.304878056049,1.0,0.0,0.0,0.0,1.0,0.0,0.0,0.0,1.0,-1.21625444336,-0.248996972656,-10.1418382324,1.0,0.0,0.0,0.0,1.0,0.0,0.0,0.0,1.0
1463662607360315922,605,1463662607115601290,,-3.0721540451,-4.25805616379,-158.613937378,0.010108999908,1.0,0.0,0.0,0.0,1.0,0.0,0.0,0.0,1.0,4.20731735229,-0.731707334518,-0.0,1.0,0.0,0.0,0.0,1.0,0.0,0.0,0.0,1.0,-1.23540805664,-0.162805712891,-10.1705686523,1.0,0.0,0.0,0.0,1.0,0.0,0.0,0.0,1.0
1463662607361927259,606,1463662607125789702,,-3.0593085289,-4.2555937767,-158.603927612,0.0101039996371,1.0,0.0,0.0,0.0,1.0,0.0,0.0,0.0,1.0,3.59756112099,-1.15853655338,-0.487804889679,1.0,0.0,0.0,0.0,1.0,0.0,0.0,0.0,1.0,-1.17315874041,-0.244208569336,-10.2184526855,1.0,0.0,0.0,0.0,1.0,0.0,0.0,0.0,1.0
1463662607364003198,607,1463662607136931018,,-3.05290102959,-4.25641870499,-158.593811035,0.010098000057,1.0,0.0,0.0,0.0,1.0,0.0,0.0,0.0,1.0,3.23170733452,-0.975609779358,-0.487804889679,1.0,0.0,0.0,0.0,1.0,0.0,0.0,0.0,1.0,-1.25456166992,-0.196324536133,-10.1274730225,1.0,0.0,0.0,0.0,1.0,0.0,0.0,0.0,1.0
1463662607364352990,608,1463662607145950556,,-3.04683613777,-4.26165914536,-158.587799072,0.0101070003584,1.0,0.0,0.0,0.0,1.0,0.0,0.0,0.0,1.0,3.04878044128,-1.52439022064,-0.914634168148,1.0,0.0,0.0,0.0,1.0,0.0,0.0,0.0,1.0,-1.24019645996,-0.220266552734,-10.2088758789,1.0,0.0,0.0,0.0,1.0,0.0,0.0,0.0,1.0
1463662607364637929,609,1463662607156267113,,-3.03748607635,-4.26510858536,-158.586929321,0.010106000118,1.0,0.0,0.0,0.0,1.0,0.0,0.0,0.0,1.0,3.23170733452,-1.40243899822,-1.40243899822,1.0,0.0,0.0,0.0,1.0,0.0,0.0,0.0,1.0,-1.22104284668,-0.239420166016,-10.165780249,1.0,0.0,0.0,0.0,1.0,0.0,0.0,0.0,1.0
1463662607364933077,610,1463662607166219083,,-3.03372597694,-4.27682256699,-158.588104248,0.0100830001757,1.0,0.0,0.0,0.0,1.0,0.0,0.0,0.0,1.0,3.41463422775,-1.09756100178,-1.64634156227,1.0,0.0,0.0,0.0,1.0,0.0,0.0,0.0,1.0,-1.40779057617,-0.105344873047,-10.0412817627,1.0,0.0,0.0,0.0,1.0,0.0,0.0,0.0,1.0
1463662607365228903,611,1463662607182460336,,-3.01252985001,-4.27727746964,-158.608505249,0.0158929992467,1.0,0.0,0.0,0.0,1.0,0.0,0.0,0.0,1.0,3.71951246262,-0.792682945728,-2.74390244484,1.0,0.0,0.0,0.0,1.0,0.0,0.0,0.0,1.0,-1.2737152832,-0.210689746094,-10.2376062988,1.0,0.0,0.0,0.0,1.0,0.0,0.0,0.0,1.0
1463662607365512852,612,1463662607186355611,,-3.00843763351,-4.27876663208,-158.615707397,0.00433599995449,1.0,0.0,0.0,0.0,1.0,0.0,0.0,0.0,1.0,3.17073178291,-0.792682945728,-3.10975623131,1.0,0.0,0.0,0.0,1.0,0.0,0.0,0.0,1.0,-1.33117612305,-0.239420166016,-10.2615483154,1.0,0.0,0.0,0.0,1.0,0.0,0.0,0.0,1.0
1463662607365813158,613,1463662607202403710,,-2.99020504951,-4.27688932419,-158.653289795,0.015768000856,1.0,0.0,0.0,0.0,1.0,0.0,0.0,0.0,1.0,3.04878044128,-0.304878056049,-3.7804877758,1.0,0.0,0.0,0.0,1.0,0.0,0.0,0.0,1.0,-1.33117612305,-0.292092584273,-10.2759135254,1.0,0.0,0.0,0.0,1.0,0.0,0.0,0.0,1.0
1463662607366096430,614,1463662607206516153,,-2.983304739,-4.27447509766,-158.665618896,0.00443399976939,1.0,0.0,0.0,0.0,1.0,0.0,0.0,0.0,1.0,3.04878044128,-0.243902444839,-4.14634132385,1.0,0.0,0.0,0.0,1.0,0.0,0.0,0.0,1.0,-1.26413847656,-0.363918652344,-10.3094323486,1.0,0.0,0.0,0.0,1.0,0.0,0.0,0.0,1.0
1463662607367740480,615,1463662607216720714,,-2.97451710701,-4.26662635803,-158.696655273,0.0101070003584,1.0,0.0,0.0,0.0,1.0,0.0,0.0,0.0,1.0,2.74390244484,0.0,-4.45121955872,1.0,0.0,0.0,0.0,1.0,0.0,0.0,0.0,1.0,-1.26892687988,-0.292092584273,-10.3573163818,1.0,0.0,0.0,0.0,1.0,0.0,0.0,0.0,1.0
1463662607368142364,616,1463662607226814581,,-2.97166013718,-4.25875377655,-158.730377197,0.0100910002366,1.0,0.0,0.0,0.0,1.0,0.0,0.0,0.0,1.0,2.56097555161,-0.0609756112099,-4.75609779358,1.0,0.0,0.0,0.0,1.0,0.0,0.0,0.0,1.0,-1.25456166992,-0.215478149414,-10.3716815918,1.0,0.0,0.0,0.0,1.0,0.0,0.0,0.0,1.0
1463662607368472414,617,1463662607236885527,,-2.96804571152,-4.24795913696,-158.765579224,0.0100899999961,1.0,0.0,0.0,0.0,1.0,0.0,0.0,0.0,1.0,2.68292689323,0.487804889679,-4.87804889679,1.0,0.0,0.0,0.0,1.0,0.0,0.0,0.0,1.0,-1.26892687988,-0.201112939453,-10.1226846191,1.0,0.0,0.0,0.0,1.0,0.0,0.0,0.0,1.0
1463662607368794285,618,1463662607246935377,,-2.96550250053,-4.24159002304,-158.801864624,0.0101039996371,1.0,0.0,0.0,0.0,1.0,0.0,0.0,0.0,1.0,2.43902444839,-0.0609756112099,-5.0,1.0,0.0,0.0,0.0,1.0,0.0,0.0,0.0,1.0,-1.2737152832,-0.229843359375,-10.3477395752,1.0,0.0,0.0,0.0,1.0,0.0,0.0,0.0,1.0
1463662607369120376,619,1463662607257066385,,-2.96509099007,-4.23705196381,-158.83416748,0.010108999908,1.0,0.0,0.0,0.0,1.0,0.0,0.0,0.0,1.0,2.68292689323,0.0609756112099,-4.63414621353,1.0,0.0,0.0,0.0,1.0,0.0,0.0,0.0,1.0,-1.2976572998,-0.148440512063,-10.0748005859,1.0,0.0,0.0,0.0,1.0,0.0,0.0,0.0,1.0
1463662607369415004,620,1463662607267151084,,-2.95456528664,-4.22141981125,-158.865463257,0.0100940000266,1.0,0.0,0.0,0.0,1.0,0.0,0.0,0.0,1.0,2.5,0.0609756112099,-4.45121955872,1.0,0.0,0.0,0.0,1.0,0.0,0.0,0.0,1.0,-1.09175595703,-0.359130249023,-10.0029745361,1.0,0.0,0.0,0.0,1.0,0.0,0.0,0.0,1.0
1463662607369683690,621,1463662607277192182,,-2.94961357117,-4.20792627335,-158.895385742,0.010098000057,1.0,0.0,0.0,0.0,1.0,0.0,0.0,0.0,1.0,2.74390244484,-0.243902444839,-4.39024400711,1.0,0.0,0.0,0.0,1.0,0.0,0.0,0.0,1.0,-1.07260241682,-0.220266552734,-9.99339772949,1.0,0.0,0.0,0.0,1.0,0.0,0.0,0.0,1.0
1463662607369966076,622,1463662607287392940,,-2.94849658012,-4.19264507294,-158.921661377,0.0101009998471,1.0,0.0,0.0,0.0,1.0,0.0,0.0,0.0,1.0,2.5,0.0609756112099,-4.02439022064,1.0,0.0,0.0,0.0,1.0,0.0,0.0,0.0,1.0,-1.09175595703,-0.201112939453,-9.95030209961,1.0,0.0,0.0,0.0,1.0,0.0,0.0,0.0,1.0
1463662607370259037,623,1463662607297652821,,-2.94920325279,-4.18261384964,-158.935653687,0.0101260002702,1.0,0.0,0.0,0.0,1.0,0.0,0.0,0.0,1.0,2.92682933807,-0.18292683363,-2.86585378647,1.0,0.0,0.0,0.0,1.0,0.0,0.0,0.0,1.0,-1.1540052002,-0.110133276367,-9.98860932617,1.0,0.0,0.0,0.0,1.0,0.0,0.0,0.0,1.0
1463662607370621071,624,1463662607307673969,,-2.9473695755,-4.16913223267,-158.946350098,0.0101340003312,1.0,0.0,0.0,0.0,1.0,0.0,0.0,0.0,1.0,3.65853667259,0.12195122242,-2.56097555161,1.0,0.0,0.0,0.0,1.0,0.0,0.0,0.0,1.0,-1.15879360352,-0.0287304199219,-10.0748005859,1.0,0.0,0.0,0.0,1.0,0.0,0.0,0.0,1.0
1463662607370914709,625,1463662607317703034,,-2.92932033539,-4.15814733505,-158.952316284,0.0100530004129,1.0,0.0,0.0,0.0,1.0,0.0,0.0,0.0,1.0,4.93902444839,0.18292683363,-2.07317066193,1.0,0.0,0.0,0.0,1.0,0.0,0.0,0.0,1.0,-1.21625444336,-0.0957680664062,-10.0891657959,1.0,0.0,0.0,0.0,1.0,0.0,0.0,0.0,1.0
1463662607372534589,626,1463662607327755489,,-2.89792895317,-4.14612531662,-158.958740234,0.0100929997861,1.0,0.0,0.0,0.0,1.0,0.0,0.0,0.0,1.0,6.21951246262,-0.18292683363,-2.13414645195,1.0,0.0,0.0,0.0,1.0,0.0,0.0,0.0,1.0,-1.14442839355,-0.105344873047,-10.2184526855,1.0,0.0,0.0,0.0,1.0,0.0,0.0,0.0,1.0
1463662607372842865,627,1463662607337827529,,-2.85789251328,-4.124792099,-158.960601807,0.0101030003279,1.0,0.0,0.0,0.0,1.0,0.0,0.0,0.0,1.0,7.13414621353,0.670731723309,-1.64634156227,1.0,0.0,0.0,0.0,1.0,0.0,0.0,0.0,1.0,-1.13006318359,-0.105344873047,-10.180145459,1.0,0.0,0.0,0.0,1.0,0.0,0.0,0.0,1.0
1463662607663979450,628,1463662607347885141,,-2.81059217453,-4.1070523262,-158.960037231,0.0100999996066,1.0,0.0,0.0,0.0,1.0,0.0,0.0,0.0,1.0,8.41463470459,0.426829278469,-1.46341466904,1.0,0.0,0.0,0.0,1.0,0.0,0.0,0.0,1.0,-1.16358193377,-0.0143652099609,-10.314220752,1.0,0.0,0.0,0.0,1.0,0.0,0.0,0.0,1.0
1463662607664264597,629,1463662607358059853,,-2.73570823669,-4.09489583969,-158.974014282,0.010095000267,1.0,0.0,0.0,0.0,1.0,0.0,0.0,0.0,1.0,11.4024391174,-0.853658556938,-2.98780488968,1.0,0.0,0.0,0.0,1.0,0.0,0.0,0.0,1.0,-1.01992990723,0.0430956298828,-10.3812583984,1.0,0.0,0.0,0.0,1.0,0.0,0.0,0.0,1.0
1463662607664410452,630,1463662607368323172,,-2.6435418129,-4.07912683487,-158.994674683,0.0101640000939,1.0,0.0,0.0,0.0,1.0,0.0,0.0,0.0,1.0,10.9756097794,-0.548780500889,-3.47560977936,1.0,0.0,0.0,0.0,1.0,0.0,0.0,0.0,1.0,-0.957680664062,-0.330399829102,-9.89284125977,1.0,0.0,0.0,0.0,1.0,0.0,0.0,0.0,1.0
1463662607664478848,631,1463662607378222531,,-2.54376983643,-4.07151889801,-159.00163269,0.0100400000811,1.0,0.0,0.0,0.0,1.0,0.0,0.0,0.0,1.0,11.6463422775,-0.670731723309,-2.13414645195,1.0,0.0,0.0,0.0,1.0,0.0,0.0,0.0,1.0,-1.10612116699,-0.407014282227,-10.0891657959,1.0,0.0,0.0,0.0,1.0,0.0,0.0,0.0,1.0
1463662607668121742,632,1463662607388478609,,-2.47364807129,-4.05305862427,-159.017456055,0.0101150004193,1.0,0.0,0.0,0.0,1.0,0.0,0.0,0.0,1.0,8.78048801422,-1.34146344662,-3.04878044128,1.0,0.0,0.0,0.0,1.0,0.0,0.0,0.0,1.0,-0.790086547852,-0.387860668945,-10.1466266357,1.0,0.0,0.0,0.0,1.0,0.0,0.0,0.0,1.0
1463662607668970047,633,1463662607398548775,,-2.42501735687,-4.05273103714,-159.029678345,0.010098000057,1.0,0.0,0.0,0.0,1.0,0.0,0.0,0.0,1.0,9.20731735229,-2.37804889679,-2.92682933807,1.0,0.0,0.0,0.0,1.0,0.0,0.0,0.0,1.0,-0.91458503418,0.0526724365234,-10.0221281494,1.0,0.0,0.0,0.0,1.0,0.0,0.0,0.0,1.0
1463662607669023961,634,1463662607408694628,,-2.3640897274,-4.06136226654,-159.043899536,0.0101509997621,1.0,0.0,0.0,0.0,1.0,0.0,0.0,0.0,1.0,8.71951198578,-2.13414645195,-2.98780488968,1.0,0.0,0.0,0.0,1.0,0.0,0.0,0.0,1.0,-1.13963999023,-0.258573779297,-10.2471831055,1.0,0.0,0.0,0.0,1.0,0.0,0.0,0.0,1.0
1463662607669155231,635,1463662607418599300,,-2.3031308651,-4.07806348801,-159.063476562,0.0100579997525,1.0,0.0,0.0,0.0,1.0,0.0,0.0,0.0,1.0,7.68292665482,-2.68292689323,-3.47560977936,1.0,0.0,0.0,0.0,1.0,0.0,0.0,0.0,1.0,-1.16358193377,-0.45489831543,-10.0556469727,1.0,0.0,0.0,0.0,1.0,0.0,0.0,0.0,1.0
1463662607669609206,636,1463662607428956071,,-2.26860761642,-4.08366537094,-159.083328247,0.0101020000875,1.0,0.0,0.0,0.0,1.0,0.0,0.0,0.0,1.0,6.70731735229,-2.25609779358,-3.59756112099,1.0,0.0,0.0,0.0,1.0,0.0,0.0,0.0,1.0,-1.02950671387,-0.162805712891,-9.91199487305,1.0,0.0,0.0,0.0,1.0,0.0,0.0,0.0,1.0
1463662607669978949,637,1463662607438948620,,-2.23971390724,-4.09502983093,-159.105239868,0.0100999996066,1.0,0.0,0.0,0.0,1.0,0.0,0.0,0.0,1.0,6.58536624908,-2.43902444839,-3.84146332741,1.0,0.0,0.0,0.0,1.0,0.0,0.0,0.0,1.0,-1.11569797363,-0.0909796630859,-10.0748005859,1.0,0.0,0.0,0.0,1.0,0.0,0.0,0.0,1.0
1463662607670025414,638,1463662607449091870,,-2.19959354401,-4.11120033264,-159.131332397,0.010216999799,1.0,0.0,0.0,0.0,1.0,0.0,0.0,0.0,1.0,6.58536624908,-2.43902444839,-4.14634132385,1.0,0.0,0.0,0.0,1.0,0.0,0.0,0.0,1.0,-1.17315874041,-0.277727392578,-9.86411083984,1.0,0.0,0.0,0.0,1.0,0.0,0.0,0.0,1.0
1463662607670381562,639,1463662607459144168,,-2.16177821159,-4.12212991714,-159.156143188,0.0099849998951,1.0,0.0,0.0,0.0,1.0,0.0,0.0,0.0,1.0,5.97560977936,-1.95121955872,-4.02439022064,1.0,0.0,0.0,0.0,1.0,0.0,0.0,0.0,1.0,-1.17794714373,-0.368707055664,-9.87368764648,1.0,0.0,0.0,0.0,1.0,0.0,0.0,0.0,1.0
1463662607670617847,640,1463662607469456036,,-2.13017725945,-4.12867832184,-159.183151245,0.0101180002093,1.0,0.0,0.0,0.0,1.0,0.0,0.0,0.0,1.0,5.54878091812,-1.46341466904,-4.20731735229,1.0,0.0,0.0,0.0,1.0,0.0,0.0,0.0,1.0,-1.20188930646,-0.335188232422,-10.0077629395,1.0,0.0,0.0,0.0,1.0,0.0,0.0,0.0,1.0
1463662607672392959,641,1463662607479244805,,-2.10596013069,-4.13368988037,-159.210601807,0.0100710000843,1.0,0.0,0.0,0.0,1.0,0.0,0.0,0.0,1.0,5.12195110321,-0.975609779358,-4.2682929039,1.0,0.0,0.0,0.0,1.0,0.0,0.0,0.0,1.0,-1.25935007324,-0.287304199219,-9.97424411621,1.0,0.0,0.0,0.0,1.0,0.0,0.0,0.0,1.0
1463662607672894024,642,1463662607489404463,,-2.08078289032,-4.1256070137,-159.244049072,0.0101159997284,1.0,0.0,0.0,0.0,1.0,0.0,0.0,0.0,1.0,5.18292713165,-0.18292683363,-4.81707286835,1.0,0.0,0.0,0.0,1.0,0.0,0.0,0.0,1.0,-1.14442839355,-0.282515795898,-9.7827079834,1.0,0.0,0.0,0.0,1.0,0.0,0.0,0.0,1.0
1463662607672949085,643,1463662607499481192,,-2.05612564087,-4.1190328598,-159.282012939,0.0100819999352,1.0,0.0,0.0,0.0,1.0,0.0,0.0,0.0,1.0,5.91463422775,0.609756112099,-5.30487823486,1.0,0.0,0.0,0.0,1.0,0.0,0.0,0.0,1.0,-1.32159931641,-0.148440512063,-9.90720646973,1.0,0.0,0.0,0.0,1.0,0.0,0.0,0.0,1.0
1463662607673245796,644,1463662607509718830,,-2.02099466324,-4.10796737671,-159.326660156,0.0101079996675,1.0,0.0,0.0,0.0,1.0,0.0,0.0,0.0,1.0,6.58536624908,1.03658533096,-5.91463422775,1.0,0.0,0.0,0.0,1.0,0.0,0.0,0.0,1.0,-1.2976572998,-0.205901342773,-9.7827079834,1.0,0.0,0.0,0.0,1.0,0.0,0.0,0.0,1.0
1463662607673516045,645,1463662607519910212,,-1.97881913185,-4.08544301987,-159.373046875,0.0101129999384,1.0,0.0,0.0,0.0,1.0,0.0,0.0,0.0,1.0,6.95121955872,1.8292683363,-6.0365858078,1.0,0.0,0.0,0.0,1.0,0.0,0.0,0.0,1.0,-1.24019645996,-0.268150604204,-9.82101520996,1.0,0.0,0.0,0.0,1.0,0.0,0.0,0.0,1.0
1463662607673791555,646,1463662607530962817,,-1.93677043915,-4.05035638809,-159.423812866,0.0100859999657,1.0,0.0,0.0,0.0,1.0,0.0,0.0,0.0,1.0,6.89024400711,2.37804889679,-6.46341466904,1.0,0.0,0.0,0.0,1.0,0.0,0.0,0.0,1.0,-1.10133276367,-0.277727392578,-9.73961235352,1.0,0.0,0.0,0.0,1.0,0.0,0.0,0.0,1.0
1463662607674077380,647,1463662607541317504,,-1.8892737627,-4.01474714279,-159.478088379,0.010108999908,1.0,0.0,0.0,0.0,1.0,0.0,0.0,0.0,1.0,6.95121955872,2.5,-6.7682929039,1.0,0.0,0.0,0.0,1.0,0.0,0.0,0.0,1.0,-1.11090957031,-0.363918652344,-9.76834277344,1.0,0.0,0.0,0.0,1.0,0.0,0.0,0.0,1.0
1463662607674491296,648,1463662607550214576,,-1.79589617252,-3.97326111794,-159.554351807,0.0101159997284,1.0,0.0,0.0,0.0,1.0,0.0,0.0,0.0,1.0,7.50000047684,2.56097555161,-8.65853691101,1.0,0.0,0.0,0.0,1.0,0.0,0.0,0.0,1.0,-0.952892260742,-0.991199487305,-9.2655604248,1.0,0.0,0.0,0.0,1.0,0.0,0.0,0.0,1.0
1463662607675177858,649,1463662607561256242,,-1.75792253017,-3.96057653427,-159.613357544,0.0100999996066,1.0,0.0,0.0,0.0,1.0,0.0,0.0,0.0,1.0,5.0,0.304878056049,-7.25609779358,1.0,0.0,0.0,0.0,1.0,0.0,0.0,0.0,1.0,-1.14921679688,-0.579396801758,-10.1178962158,1.0,0.0,0.0,0.0,1.0,0.0,0.0,0.0,1.0
1463662607675222396,650,1463662607570200039,,-1.75988030434,-3.89804601669,-159.681350708,0.0100600002334,1.0,0.0,0.0,0.0,1.0,0.0,0.0,0.0,1.0,4.14634132385,3.47560977936,-8.29268264771,1.0,0.0,0.0,0.0,1.0,0.0,0.0,0.0,1.0,-0.809240161133,-0.0143652099609,-9.99818613281,1.0,0.0,0.0,0.0,1.0,0.0,0.0,0.0,1.0
1463662607690862152,651,1463662607581432203,,-1.73390221596,-3.87244009972,-159.755310059,0.0101760001853,1.0,0.0,0.0,0.0,1.0,0.0,0.0,0.0,1.0,4.02439022064,1.76829278469,-8.65853691101,1.0,0.0,0.0,0.0,1.0,0.0,0.0,0.0,1.0,-1.17315874041,-0.531512805087,-10.1897222656,1.0,0.0,0.0,0.0,1.0,0.0,0.0,0.0,1.0
1463662607691603149,652,1463662607594443593,,-1.7112416029,-3.83916664124,-159.841461182,0.0104520004243,1.0,0.0,0.0,0.0,1.0,0.0,0.0,0.0,1.0,3.35365867615,1.15853655338,-9.63414573669,1.0,0.0,0.0,0.0,1.0,0.0,0.0,0.0,1.0,-0.890643017578,-0.550666381836,-9.73961235352,1.0,0.0,0.0,0.0,1.0,0.0,0.0,0.0,1.0
1463662607691657220,653,1463662607600275098,,-1.7081387043,-3.81261777878,-159.92616272,0.00966999959201,1.0,0.0,0.0,0.0,1.0,0.0,0.0,0.0,1.0,2.19512200356,1.70731711388,-10.1829271317,1.0,0.0,0.0,0.0,1.0,0.0,0.0,0.0,1.0,-1.06781401349,-0.435744702148,-9.86889924316,1.0,0.0,0.0,0.0,1.0,0.0,0.0,0.0,1.0
1463662607691696392,654,1463662607611069383,,-1.700532794,-3.79607248306,-160.016998291,0.0101180002093,1.0,0.0,0.0,0.0,1.0,0.0,0.0,0.0,1.0,1.76829278469,0.975609779358,-10.3658542633,1.0,0.0,0.0,0.0,1.0,0.0,0.0,0.0,1.0,-1.10612116699,-0.574608398438,-9.66299848491,1.0,0.0,0.0,0.0,1.0,0.0,0.0,0.0,1.0
1463662607692255175,655,1463662607621470953,,-1.76424908638,-3.79277515411,-160.105392456,0.0102509995922,1.0,0.0,0.0,0.0,1.0,0.0,0.0,0.0,1.0,-2.62195134163,1.15853655338,-10.1829271317,1.0,0.0,0.0,0.0,1.0,0.0,0.0,0.0,1.0,-1.39821376953,-0.138863696289,-9.91199487305,1.0,0.0,0.0,0.0,1.0,0.0,0.0,0.0,1.0
1463662607692305078,656,1463662607630877684,,-1.78003787994,-3.75796675682,-160.206848145,0.00993099994957,1.0,0.0,0.0,0.0,1.0,0.0,0.0,0.0,1.0,-0.731707334518,3.04878044128,-11.5243911743,1.0,0.0,0.0,0.0,1.0,0.0,0.0,0.0,1.0,-1.13006318359,-0.579396801758,-9.66778688823,1.0,0.0,0.0,0.0,1.0,0.0,0.0,0.0,1.0
1463662607692638670,657,1463662607641608679,,-1.80019557476,-3.74144673347,-160.316162109,0.0101209999993,1.0,0.0,0.0,0.0,1.0,0.0,0.0,0.0,1.0,-1.09756100178,2.31707310677,-12.1341466904,1.0,0.0,0.0,0.0,1.0,0.0,0.0,0.0,1.0,-1.29286889648,-0.555454785156,-9.47624958638,1.0,0.0,0.0,0.0,1.0,0.0,0.0,0.0,1.0
1463662607692947310,658,1463662607651325822,,-1.81574785709,-3.70398402214,-160.429000854,0.0100880004466,1.0,0.0,0.0,0.0,1.0,0.0,0.0,0.0,1.0,-1.8902438879,4.08536577225,-12.3780488968,1.0,0.0,0.0,0.0,1.0,0.0,0.0,0.0,1.0,-1.22104284668,-0.751779321289,-9.37090471333,1.0,0.0,0.0,0.0,1.0,0.0,0.0,0.0,1.0
1463662607762677884,659,1463662607661903824,,-1.84063756466,-3.67415452003,-160.551940918,0.0101319998503,1.0,0.0,0.0,0.0,1.0,0.0,0.0,0.0,1.0,-1.15853655338,4.63414621353,-13.4146347046,1.0,0.0,0.0,0.0,1.0,0.0,0.0,0.0,1.0,-1.4604630127,-0.474051928711,-9.56244201519,1.0,0.0,0.0,0.0,1.0,0.0,0.0,0.0,1.0
1463662607763021946,660,1463662607672012224,,-1.85474801064,-3.63607859612,-160.681793213,0.0101159997284,1.0,0.0,0.0,0.0,1.0,0.0,0.0,0.0,1.0,-0.243902444839,5.30487823486,-14.0853662491,1.0,0.0,0.0,0.0,1.0,0.0,0.0,0.0,1.0,-1.38384855957,-0.474051928711,-9.28950185688,1.0,0.0,0.0,0.0,1.0,0.0,0.0,0.0,1.0
1463662607763320846,661,1463662607683309762,,-1.8548668623,-3.58170962334,-160.824386597,0.010216999799,1.0,0.0,0.0,0.0,1.0,0.0,0.0,0.0,1.0,0.670731723309,6.82926845551,-15.1219511032,1.0,0.0,0.0,0.0,1.0,0.0,0.0,0.0,1.0,-1.34554133301,-0.531512805087,-9.15542714844,1.0,0.0,0.0,0.0,1.0,0.0,0.0,0.0,1.0
1463662607763621099,662,1463662607692551730,,-1.834461689,-3.51964640617,-160.963790894,0.00996800046414,1.0,0.0,0.0,0.0,1.0,0.0,0.0,0.0,1.0,1.58536589146,7.50000047684,-15.0609760284,1.0,0.0,0.0,0.0,1.0,0.0,0.0,0.0,1.0,-1.29286889648,-0.718260498047,-9.11233151855,1.0,0.0,0.0,0.0,1.0,0.0,0.0,0.0,1.0
1463662607763841653,663,1463662607701568247,,-1.80772483349,-3.45394635201,-161.114883423,0.0100819999352,1.0,0.0,0.0,0.0,1.0,0.0,0.0,0.0,1.0,1.76829278469,7.80487823486,-16.0365848541,1.0,0.0,0.0,0.0,1.0,0.0,0.0,0.0,1.0,-1.26892687988,-0.775721337891,-9.02614025879,1.0,0.0,0.0,0.0,1.0,0.0,0.0,0.0,1.0
1463662607764166650,664,1463662607712120933,,-1.76285171509,-3.37022137642,-161.273223877,0.0101150004193,1.0,0.0,0.0,0.0,1.0,0.0,0.0,0.0,1.0,3.47560977936,7.86585378647,-16.7073173523,1.0,0.0,0.0,0.0,1.0,0.0,0.0,0.0,1.0,-0.962469067383,-0.77093293457,-8.8633345459,1.0,0.0,0.0,0.0,1.0,0.0,0.0,0.0,1.0
1463662607764456277,665,1463662607721844066,,-1.72752249241,-3.28837370872,-161.433624268,0.0101150004193,1.0,0.0,0.0,0.0,1.0,0.0,0.0,0.0,1.0,4.39024400711,6.7682929039,-17.0731716156,1.0,0.0,0.0,0.0,1.0,0.0,0.0,0.0,1.0,-0.790086547852,-0.474051928711,-8.70052883301,1.0,0.0,0.0,0.0,1.0,0.0,0.0,0.0,1.0
1463662607764747415,666,1463662607732840778,,-1.66329741478,-3.2062432766,-161.601593018,0.0104940002784,1.0,0.0,0.0,0.0,1.0,0.0,0.0,0.0,1.0,5.97560977936,6.15853643417,-17.1951217651,1.0,0.0,0.0,0.0,1.0,0.0,0.0,0.0,1.0,-0.718260498047,-0.636857641602,-8.60954975444,1.0,0.0,0.0,0.0,1.0,0.0,0.0,0.0,1.0
1463662607765057722,667,1463662607743040702,,-1.58962750435,-3.14905524254,-161.755783081,0.00981499999762,1.0,0.0,0.0,0.0,1.0,0.0,0.0,0.0,1.0,6.34146356583,5.06097555161,-16.8902435303,1.0,0.0,0.0,0.0,1.0,0.0,0.0,0.0,1.0,-0.857124194336,-0.818816967773,-8.69095202637,1.0,0.0,0.0,0.0,1.0,0.0,0.0,0.0,1.0
1463662607858997417,668,1463662607752821709,,-1.51804029942,-3.09020423889,-161.911331177,0.0100250001997,1.0,0.0,0.0,0.0,1.0,0.0,0.0,0.0,1.0,6.46341466904,4.20731735229,-16.7682933807,1.0,0.0,0.0,0.0,1.0,0.0,0.0,0.0,1.0,-0.694318481445,-0.737414111328,-8.46589648579,1.0,0.0,0.0,0.0,1.0,0.0,0.0,0.0,1.0
1463662607859042789,669,1463662607762037319,,-1.44782495499,-3.04978251457,-162.064056396,0.0100349998102,1.0,0.0,0.0,0.0,1.0,0.0,0.0,0.0,1.0,6.70731735229,3.53658556938,-16.5243911743,1.0,0.0,0.0,0.0,1.0,0.0,0.0,0.0,1.0,-0.871489404297,-0.699106884766,-8.51378168804,1.0,0.0,0.0,0.0,1.0,0.0,0.0,0.0,1.0
1463662607859114623,670,1463662607772505877,,-1.37435185909,-3.01787853241,-162.214202881,0.0102840000764,1.0,0.0,0.0,0.0,1.0,0.0,0.0,0.0,1.0,6.52439069748,3.04878044128,-15.9146347046,1.0,0.0,0.0,0.0,1.0,0.0,0.0,0.0,1.0,-0.92416184082,-0.756567724609,-8.38928203267,1.0,0.0,0.0,0.0,1.0,0.0,0.0,0.0,1.0
1463662607860047993,671,1463662607782791648,,-1.30050265789,-2.98513436317,-162.353973389,0.00994999986142,1.0,0.0,0.0,0.0,1.0,0.0,0.0,0.0,1.0,6.70731735229,3.29268312454,-15.3658533096,1.0,0.0,0.0,0.0,1.0,0.0,0.0,0.0,1.0,-0.92416184082,-0.780509741211,-8.31266757954,1.0,0.0,0.0,0.0,1.0,0.0,0.0,0.0,1.0
1463662607866252418,672,1463662607793116435,,-1.22144246101,-2.96053647995,-162.489318848,0.0100880004466,1.0,0.0,0.0,0.0,1.0,0.0,0.0,0.0,1.0,6.0365858078,3.17073178291,-14.6951217651,1.0,0.0,0.0,0.0,1.0,0.0,0.0,0.0,1.0,-1.02950671387,-0.957680664062,-8.26957253418,1.0,0.0,0.0,0.0,1.0,0.0,0.0,0.0,1.0
1463662607866319095,673,1463662607803881080,,-1.16688382626,-2.94505906105,-162.621780396,0.0101220002398,1.0,0.0,0.0,0.0,1.0,0.0,0.0,0.0,1.0,4.81707286835,2.74390244484,-14.4512205124,1.0,0.0,0.0,0.0,1.0,0.0,0.0,0.0,1.0,-1.10133276367,-0.790086547852,-8.27914934082,1.0,0.0,0.0,0.0,1.0,0.0,0.0,0.0,1.0
1463662607866371551,674,1463662607813306669,,-1.10281944275,-2.92546367645,-162.746383667,0.0100769996643,1.0,0.0,0.0,0.0,1.0,0.0,0.0,0.0,1.0,4.32926845551,3.04878044128,-13.658536911,1.0,0.0,0.0,0.0,1.0,0.0,0.0,0.0,1.0,-1.11090957031,-1.04387185076,-8.45153127583,1.0,0.0,0.0,0.0,1.0,0.0,0.0,0.0,1.0
1463662607866622422,675,1463662607823264265,,-1.05954575539,-2.90504598618,-162.866271973,0.0102040003985,1.0,0.0,0.0,0.0,1.0,0.0,0.0,0.0,1.0,3.29268312454,3.10975623131,-13.1097564697,1.0,0.0,0.0,0.0,1.0,0.0,0.0,0.0,1.0,-1.14442839355,-0.9193734375,-8.71010563965,1.0,0.0,0.0,0.0,1.0,0.0,0.0,0.0,1.0
1463662608209607664,676,1463662607835178615,,-1.02356028557,-2.8778424263,-162.996017456,0.0115820001811,1.0,0.0,0.0,0.0,1.0,0.0,0.0,0.0,1.0,1.95121955872,3.23170733452,-12.5609760284,1.0,0.0,0.0,0.0,1.0,0.0,0.0,0.0,1.0,-1.13006318359,-0.981622680664,-8.87769975586,1.0,0.0,0.0,0.0,1.0,0.0,0.0,0.0,1.0
1463662608209653973,677,1463662607843344587,,-1.00851857662,-2.84970378876,-163.089981079,0.00856699980795,1.0,0.0,0.0,0.0,1.0,0.0,0.0,0.0,1.0,1.70731711388,3.90243911743,-12.3780488968,1.0,0.0,0.0,0.0,1.0,0.0,0.0,0.0,1.0,-1.08696755371,-0.814028564453,-8.90643017578,1.0,0.0,0.0,0.0,1.0,0.0,0.0,0.0,1.0
1463662608209940631,678,1463662607854495749,,-0.986381828785,-2.81692838669,-163.20690918,0.0109700001776,1.0,0.0,0.0,0.0,1.0,0.0,0.0,0.0,1.0,1.8902438879,3.7804877758,-12.0731716156,1.0,0.0,0.0,0.0,1.0,0.0,0.0,0.0,1.0,-1.10612116699,-0.828393774414,-8.85854614258,1.0,0.0,0.0,0.0,1.0,0.0,0.0,0.0,1.0
1463662608210248125,679,1463662607864247897,,-0.966709494591,-2.77951359749,-163.302001953,0.00924499984831,1.0,0.0,0.0,0.0,1.0,0.0,0.0,0.0,1.0,1.95121955872,3.7804877758,-11.7073173523,1.0,0.0,0.0,0.0,1.0,0.0,0.0,0.0,1.0,-0.9193734375,-0.828393774414,-8.71968244629,1.0,0.0,0.0,0.0,1.0,0.0,0.0,0.0,1.0
1463662608210793572,680,1463662607874580081,,-0.951180577278,-2.68827152252,-163.38494873,0.010045000352,1.0,0.0,0.0,0.0,1.0,0.0,0.0,0.0,1.0,2.92682933807,4.57317066193,-9.75609779358,1.0,0.0,0.0,0.0,1.0,0.0,0.0,0.0,1.0,-0.292092584273,-0.675164868164,-9.7827079834,1.0,0.0,0.0,0.0,1.0,0.0,0.0,0.0,1.0
1463662608211115964,681,1463662607884532156,,-0.935270726681,-2.67213726044,-163.468536377,0.0101030003279,1.0,0.0,0.0,0.0,1.0,0.0,0.0,0.0,1.0,1.15853655338,1.03658533096,-9.75609779358,1.0,0.0,0.0,0.0,1.0,0.0,0.0,0.0,1.0,-0.866701000977,-0.895431420898,-8.78672009277,1.0,0.0,0.0,0.0,1.0,0.0,0.0,0.0,1.0
1463662608211486854,682,1463662607894252372,,-0.937450706959,-2.619399786,-163.540817261,0.0100919995457,1.0,0.0,0.0,0.0,1.0,0.0,0.0,0.0,1.0,1.09756100178,1.95121955872,-8.71951198578,1.0,0.0,0.0,0.0,1.0,0.0,0.0,0.0,1.0,-0.435744702148,-0.622492431641,-8.66701059429,1.0,0.0,0.0,0.0,1.0,0.0,0.0,0.0,1.0
1463662608214669157,683,1463662607904551270,,-0.938499689102,-2.57591319084,-163.600784302,0.0101340003312,1.0,0.0,0.0,0.0,1.0,0.0,0.0,0.0,1.0,2.13414645195,-0.0609756112099,-7.56097555161,1.0,0.0,0.0,0.0,1.0,0.0,0.0,0.0,1.0,-0.268150604204,-0.493205541992,-8.74841286621,1.0,0.0,0.0,0.0,1.0,0.0,0.0,0.0,1.0
1463662608214726249,684,1463662607913932529,,-0.933421254158,-2.55524396896,-163.647109985,0.0100959995762,1.0,0.0,0.0,0.0,1.0,0.0,0.0,0.0,1.0,3.23170733452,-1.15853655338,-6.28048801422,1.0,0.0,0.0,0.0,1.0,0.0,0.0,0.0,1.0,-0.426167895508,-0.411802685547,-8.42758925923,1.0,0.0,0.0,0.0,1.0,0.0,0.0,0.0,1.0
1463662608214770526,685,1463662607924966121,,-0.910935878754,-2.55672073364,-163.673828125,0.0101439999416,1.0,0.0,0.0,0.0,1.0,0.0,0.0,0.0,1.0,5.48780488968,-2.86585378647,-4.39024400711,1.0,0.0,0.0,0.0,1.0,0.0,0.0,0.0,1.0,-0.493205541992,-0.339976635742,-8.3030907729,1.0,0.0,0.0,0.0,1.0,0.0,0.0,0.0,1.0
1463662608214826628,686,1463662607934901787,,-0.861742138863,-2.56617307663,-163.684921265,0.0100739998743,1.0,0.0,0.0,0.0,1.0,0.0,0.0,0.0,1.0,6.64634132385,-3.41463422775,-2.80487799644,1.0,0.0,0.0,0.0,1.0,0.0,0.0,0.0,1.0,-0.531512805087,-0.574608398438,-8.2743609375,1.0,0.0,0.0,0.0,1.0,0.0,0.0,0.0,1.0
1463662608215150896,687,1463662607944725509,,-0.806936383247,-2.59348344803,-163.676147461,0.010216999799,1.0,0.0,0.0,0.0,1.0,0.0,0.0,0.0,1.0,6.95121955872,-3.96341490746,-0.853658556938,1.0,0.0,0.0,0.0,1.0,0.0,0.0,0.0,1.0,-0.718260498047,-0.627280834961,-8.34618640278,1.0,0.0,0.0,0.0,1.0,0.0,0.0,0.0,1.0
1463662608220913224,688,1463662607954573245,,-0.747395634651,-2.62502360344,-163.648422241,0.00997299980372,1.0,0.0,0.0,0.0,1.0,0.0,0.0,0.0,1.0,6.82926845551,-3.71951246262,1.09756100178,1.0,0.0,0.0,0.0,1.0,0.0,0.0,0.0,1.0,-0.828393774414,-0.751779321289,-8.26957253418,1.0,0.0,0.0,0.0,1.0,0.0,0.0,0.0,1.0
1463662608220971410,689,1463662607964788849,,-0.692731440067,-2.66014027596,-163.601593018,0.0101300003007,1.0,0.0,0.0,0.0,1.0,0.0,0.0,0.0,1.0,6.58536624908,-3.35365867615,2.92682933807,1.0,0.0,0.0,0.0,1.0,0.0,0.0,0.0,1.0,-0.938527050781,-0.727837304687,-8.29830236958,1.0,0.0,0.0,0.0,1.0,0.0,0.0,0.0,1.0
1463662608221043139,690,1463662607974180474,,-0.638251960278,-2.68885993958,-163.540008545,0.0100360000506,1.0,0.0,0.0,0.0,1.0,0.0,0.0,0.0,1.0,6.21951246262,-3.41463422775,4.45121955872,1.0,0.0,0.0,0.0,1.0,0.0,0.0,0.0,1.0,-0.871489404297,-0.828393774414,-8.54251210796,1.0,0.0,0.0,0.0,1.0,0.0,0.0,0.0,1.0
1463662608221096116,691,1463662607984279342,,-0.59239178896,-2.71755123138,-163.464111328,0.0100840004161,1.0,0.0,0.0,0.0,1.0,0.0,0.0,0.0,1.0,6.34146356583,-3.29268312454,5.79268312454,1.0,0.0,0.0,0.0,1.0,0.0,0.0,0.0,1.0,-0.900219824219,-0.699106884766,-8.61433815776,1.0,0.0,0.0,0.0,1.0,0.0,0.0,0.0,1.0
1463662608221131486,692,1463662607994406234,,-0.556293427944,-2.73627209663,-163.373260498,0.0101049998775,1.0,0.0,0.0,0.0,1.0,0.0,0.0,0.0,1.0,6.52439069748,-3.47560977936,7.19512224197,1.0,0.0,0.0,0.0,1.0,0.0,0.0,0.0,1.0,-0.723048901367,-0.536301208408,-8.59518454448,1.0,0.0,0.0,0.0,1.0,0.0,0.0,0.0,1.0
1463662608221173263,693,1463662608004481609,,-0.512458086014,-2.75024485588,-163.270462036,0.0101290000603,1.0,0.0,0.0,0.0,1.0,0.0,0.0,0.0,1.0,8.23170757294,-4.45121955872,8.29268264771,1.0,0.0,0.0,0.0,1.0,0.0,0.0,0.0,1.0,-0.502782348633,-0.402225878906,-8.5520889146,1.0,0.0,0.0,0.0,1.0,0.0,0.0,0.0,1.0
1463662608221212696,694,1463662608014613606,,-0.47577175498,-2.73560643196,-163.158889771,0.0100919995457,1.0,0.0,0.0,0.0,1.0,0.0,0.0,0.0,1.0,8.65853691101,-3.96341490746,9.14634132385,1.0,0.0,0.0,0.0,1.0,0.0,0.0,0.0,1.0,-0.15322890625,-0.248996972656,-8.69095202637,1.0,0.0,0.0,0.0,1.0,0.0,0.0,0.0,1.0
1463662608221246243,695,1463662608028680520,,-0.362654030323,-2.77184104919,-162.957946777,0.0140450000763,1.0,0.0,0.0,0.0,1.0,0.0,0.0,0.0,1.0,10.2439022064,-6.58536624908,12.5,1.0,0.0,0.0,0.0,1.0,0.0,0.0,0.0,1.0,-0.354341845703,-0.689530078125,-8.3509748061,1.0,0.0,0.0,0.0,1.0,0.0,0.0,0.0,1.0
1463662608221282551,696,1463662608034860672,,-0.322015613317,-2.79197907448,-162.862503052,0.0061449999921,1.0,0.0,0.0,0.0,1.0,0.0,0.0,0.0,1.0,10.0,-8.04878044128,13.658536911,1.0,0.0,0.0,0.0,1.0,0.0,0.0,0.0,1.0,-0.244208569336,-0.536301208408,-8.33182119282,1.0,0.0,0.0,0.0,1.0,0.0,0.0,0.0,1.0
1463662608222779131,697,1463662608044846137,,-0.244805216789,-2.85469436646,-162.677581787,0.0101049998775,1.0,0.0,0.0,0.0,1.0,0.0,0.0,0.0,1.0,10.0609760284,-8.90243911743,16.4634151459,1.0,0.0,0.0,0.0,1.0,0.0,0.0,0.0,1.0,-0.545877978516,-0.699106884766,-8.21211169434,1.0,0.0,0.0,0.0,1.0,0.0,0.0,0.0,1.0
1463662608224329937,698,1463662608055152536,,-0.187595203519,-2.94229650497,-162.463195801,0.0101199997589,1.0,0.0,0.0,0.0,1.0,0.0,0.0,0.0,1.0,9.63414573669,-9.26829242706,19.2682914734,1.0,0.0,0.0,0.0,1.0,0.0,0.0,0.0,1.0,-0.890643017578,-0.526724328702,-8.52335849468,1.0,0.0,0.0,0.0,1.0,0.0,0.0,0.0,1.0
1463662608224728227,699,1463662608065638962,,-0.124939896166,-3.04157853127,-162.226669312,0.0102500002831,1.0,0.0,0.0,0.0,1.0,0.0,0.0,0.0,1.0,10.2439022064,-8.04878044128,21.158536911,1.0,0.0,0.0,0.0,1.0,0.0,0.0,0.0,1.0,-1.29286889648,-0.555454785156,-8.84418093262,1.0,0.0,0.0,0.0,1.0,0.0,0.0,0.0,1.0
1463662608224796466,700,1463662608075337456,,-0.0606751292944,-3.11088061333,-161.993484497,0.0099419998005,1.0,0.0,0.0,0.0,1.0,0.0,0.0,0.0,1.0,11.0365858078,-6.95121955872,21.5243911743,1.0,0.0,0.0,0.0,1.0,0.0,0.0,0.0,1.0,-1.06781401349,-0.512359155273,-9.02614025879,1.0,0.0,0.0,0.0,1.0,0.0,0.0,0.0,1.0
1463662608224852881,701,1463662608085499250,,0.0235744230449,-3.18899559975,-161.74017334,0.0102209998295,1.0,0.0,0.0,0.0,1.0,0.0,0.0,0.0,1.0,11.5853662491,-5.48780488968,22.9268302917,1.0,0.0,0.0,0.0,1.0,0.0,0.0,0.0,1.0,-1.45088620605,-0.756567724609,-9.193734375,1.0,0.0,0.0,0.0,1.0,0.0,0.0,0.0,1.0
1463662608224894398,702,1463662608096446110,,0.0984210371971,-3.2518324852,-161.491378784,0.00997400004417,1.0,0.0,0.0,0.0,1.0,0.0,0.0,0.0,1.0,12.7439022064,-5.0,22.9878044128,1.0,0.0,0.0,0.0,1.0,0.0,0.0,0.0,1.0,-1.38863696289,-0.488417138672,-9.71567033691,1.0,0.0,0.0,0.0,1.0,0.0,0.0,0.0,1.0
1463662608224931747,703,1463662608105806585,,0.1884521842,-3.29710650444,-161.239501953,0.0101100001484,1.0,0.0,0.0,0.0,1.0,0.0,0.0,0.0,1.0,13.658536911,-3.65853667259,22.9878044128,1.0,0.0,0.0,0.0,1.0,0.0,0.0,0.0,1.0,-1.34075292969,-0.603338854892,-9.95509050293,1.0,0.0,0.0,0.0,1.0,0.0,0.0,0.0,1.0
1463662608224967221,704,1463662608120706958,,0.276291012764,-3.33786606789,-160.988433838,0.0100940000266,1.0,0.0,0.0,0.0,1.0,0.0,0.0,0.0,1.0,13.841463089,-3.17073178291,22.9268302917,1.0,0.0,0.0,0.0,1.0,0.0,0.0,0.0,1.0,-1.37906015625,-0.565031591797,-10.1705686523,1.0,0.0,0.0,0.0,1.0,0.0,0.0,0.0,1.0
1463662608225251014,705,1463662608125595404,,0.371461063623,-3.36251306534,-160.738937378,0.0100969998166,1.0,0.0,0.0,0.0,1.0,0.0,0.0,0.0,1.0,13.841463089,-2.80487799644,22.8048782349,1.0,0.0,0.0,0.0,1.0,0.0,0.0,0.0,1.0,-1.17315874041,-0.723048901367,-10.3333743652,1.0,0.0,0.0,0.0,1.0,0.0,0.0,0.0,1.0
1463662608225315242,706,1463662608135778659,,0.460074603558,-3.37990880013,-160.490203857,0.0100880004466,1.0,0.0,0.0,0.0,1.0,0.0,0.0,0.0,1.0,13.4146347046,-3.59756112099,22.7439041138,1.0,0.0,0.0,0.0,1.0,0.0,0.0,0.0,1.0,-0.890643017578,-0.699106884766,-10.3190091553,1.0,0.0,0.0,0.0,1.0,0.0,0.0,0.0,1.0
1463662608225353894,707,1463662608146840068,,0.5348700881,-3.40260243416,-160.237380981,0.0100999996066,1.0,0.0,0.0,0.0,1.0,0.0,0.0,0.0,1.0,13.2926826477,-4.14634132385,23.0487823486,1.0,0.0,0.0,0.0,1.0,0.0,0.0,0.0,1.0,-0.905008227539,-0.502782348633,-10.5919481445,1.0,0.0,0.0,0.0,1.0,0.0,0.0,0.0,1.0
1463662608225668421,708,1463662608156196792,,0.620563566685,-3.44417047501,-159.975921631,0.0103590004146,1.0,0.0,0.0,0.0,1.0,0.0,0.0,0.0,1.0,10.9756097794,-6.82926845551,23.475610733,1.0,0.0,0.0,0.0,1.0,0.0,0.0,0.0,1.0,-0.684741674805,-1.0534486574,-9.92636008301,1.0,0.0,0.0,0.0,1.0,0.0,0.0,0.0,1.0
1463662608225711708,709,1463662608167344829,,0.672914326191,-3.49666786194,-159.687393188,0.0107460003346,1.0,0.0,0.0,0.0,1.0,0.0,0.0,0.0,1.0,8.10975551605,-7.37804937363,25.0609760284,1.0,0.0,0.0,0.0,1.0,0.0,0.0,0.0,1.0,-0.742202514648,-0.995987890625,-9.94551369629,1.0,0.0,0.0,0.0,1.0,0.0,0.0,0.0,1.0
1463662608226004044,710,1463662608177395147,,0.695251584053,-3.56774425507,-159.406356812,0.0100119998679,1.0,0.0,0.0,0.0,1.0,0.0,0.0,0.0,1.0,5.67073154449,-8.17073154449,26.2804889679,1.0,0.0,0.0,0.0,1.0,0.0,0.0,0.0,1.0,-1.01992990723,-1.01035310059,-10.1609918457,1.0,0.0,0.0,0.0,1.0,0.0,0.0,0.0,1.0
1463662608226053166,711,1463662608186375981,,0.693608522415,-3.6495411396,-159.137283325,0.00930199958384,1.0,0.0,0.0,0.0,1.0,0.0,0.0,0.0,1.0,3.47560977936,-8.78048801422,27.1341457367,1.0,0.0,0.0,0.0,1.0,0.0,0.0,0.0,1.0,-1.20667770978,-0.976834277344,-9.98382092285,1.0,0.0,0.0,0.0,1.0,0.0,0.0,0.0,1.0
1463662608341811466,712,1463662608196471932,,0.689812481403,-3.74162745476,-158.847824097,0.0101070003584,1.0,0.0,0.0,0.0,1.0,0.0,0.0,0.0,1.0,2.62195134163,-8.10975551605,26.8902454376,1.0,0.0,0.0,0.0,1.0,0.0,0.0,0.0,1.0,-1.38863696289,-1.09175595703,-9.89284125977,1.0,0.0,0.0,0.0,1.0,0.0,0.0,0.0,1.0
1463662608348399231,713,1463662608206476046,,0.641601145267,-3.82603096962,-158.549087524,0.0100899999961,1.0,0.0,0.0,0.0,1.0,0.0,0.0,0.0,1.0,-0.304878056049,-6.70731735229,27.7439041138,1.0,0.0,0.0,0.0,1.0,0.0,0.0,0.0,1.0,-1.59932670898,-0.890643017578,-10.405200415,1.0,0.0,0.0,0.0,1.0,0.0,0.0,0.0,1.0
1463662608348851122,714,1463662608216657686,,0.587359249592,-3.91088914871,-158.247207642,0.0100990002975,1.0,0.0,0.0,0.0,1.0,0.0,0.0,0.0,1.0,-0.487804889679,-5.36585378647,27.9878063202,1.0,0.0,0.0,0.0,1.0,0.0,0.0,0.0,1.0,-1.90099611816,-0.828393774414,-10.5153336914,1.0,0.0,0.0,0.0,1.0,0.0,0.0,0.0,1.0
1463662608349171587,715,1463662608228875311,,0.525462210178,-3.96438455582,-157.942047119,0.010106000118,1.0,0.0,0.0,0.0,1.0,0.0,0.0,0.0,1.0,-0.670731723309,-2.86585378647,28.2317066193,1.0,0.0,0.0,0.0,1.0,0.0,0.0,0.0,1.0,-1.82438166504,-0.727837304687,-10.6350437744,1.0,0.0,0.0,0.0,1.0,0.0,0.0,0.0,1.0
1463662608349442774,716,1463662608236863079,,0.471117943525,-3.99950504303,-157.63684082,0.0101239997894,1.0,0.0,0.0,0.0,1.0,0.0,0.0,0.0,1.0,0.18292683363,-1.64634156227,28.1707324982,1.0,0.0,0.0,0.0,1.0,0.0,0.0,0.0,1.0,-1.71903679199,-0.699106884766,-10.6111017578,1.0,0.0,0.0,0.0,1.0,0.0,0.0,0.0,1.0
1463662608349727140,717,1463662608246981220,,0.415377080441,-4.01915931702,-157.326156616,0.0101190004498,1.0,0.0,0.0,0.0,1.0,0.0,0.0,0.0,1.0,0.0,-0.243902444839,28.7195110321,1.0,0.0,0.0,0.0,1.0,0.0,0.0,0.0,1.0,-1.73340200195,-0.718260498047,-10.778695874,1.0,0.0,0.0,0.0,1.0,0.0,0.0,0.0,1.0
1463662608350113604,718,1463662608257013723,,0.364061355591,-4.01041173935,-157.012893677,0.010050999932,1.0,0.0,0.0,0.0,1.0,0.0,0.0,0.0,1.0,0.0609756112099,0.548780500889,29.2073173523,1.0,0.0,0.0,0.0,1.0,0.0,0.0,0.0,1.0,-1.34554133301,-0.775721337891,-10.7547538574,1.0,0.0,0.0,0.0,1.0,0.0,0.0,0.0,1.0
1463662608350168873,719,1463662608267250632,,0.312747180462,-3.99453568459,-156.695663452,0.0101209999993,1.0,0.0,0.0,0.0,1.0,0.0,0.0,0.0,1.0,0.914634168148,0.670731723309,29.3292694092,1.0,0.0,0.0,0.0,1.0,0.0,0.0,0.0,1.0,-1.21625444336,-0.598550451572,-10.5727945312,1.0,0.0,0.0,0.0,1.0,0.0,0.0,0.0,1.0
1463662608351690821,720,1463662608277213802,,0.27129265666,-3.98593425751,-156.383407593,0.0100880004466,1.0,0.0,0.0,0.0,1.0,0.0,0.0,0.0,1.0,1.64634156227,-0.243902444839,28.9634151459,1.0,0.0,0.0,0.0,1.0,0.0,0.0,0.0,1.0,-1.20188930646,-0.636857641602,-10.7595422607,1.0,0.0,0.0,0.0,1.0,0.0,0.0,0.0,1.0
1463662608351744111,721,1463662608287308971,,0.23018540442,-3.98270916939,-156.070907593,0.0101009998471,1.0,0.0,0.0,0.0,1.0,0.0,0.0,0.0,1.0,2.37804889679,-0.914634168148,28.9024410248,1.0,0.0,0.0,0.0,1.0,0.0,0.0,0.0,1.0,-1.17315874041,-0.493205541992,-10.7164466309,1.0,0.0,0.0,0.0,1.0,0.0,0.0,0.0,1.0
1463662608352387489,722,1463662608297428675,,0.212762206793,-3.9866836071,-155.76234436,0.0101129999384,1.0,0.0,0.0,0.0,1.0,0.0,0.0,0.0,1.0,3.96341490746,-1.2804877758,28.5365848541,1.0,0.0,0.0,0.0,1.0,0.0,0.0,0.0,1.0,-1.23540805664,-0.622492431641,-10.6541973877,1.0,0.0,0.0,0.0,1.0,0.0,0.0,0.0,1.0
1463662608352432131,723,1463662608307626568,,0.180550187826,-4.03623342514,-155.448120117,0.0101190004498,1.0,0.0,0.0,0.0,1.0,0.0,0.0,0.0,1.0,2.31707310677,-0.853658556938,29.0853672028,1.0,0.0,0.0,0.0,1.0,0.0,0.0,0.0,1.0,-2.46602770996,-0.756567724609,-11.9566430908,1.0,0.0,0.0,0.0,1.0,0.0,0.0,0.0,1.0
1463662608352464844,724,1463662608317597500,,0.18200314045,-4.05680704117,-155.151519775,0.0100710000843,1.0,0.0,0.0,0.0,1.0,0.0,0.0,0.0,1.0,5.67073154449,-2.37804889679,27.5,1.0,0.0,0.0,0.0,1.0,0.0,0.0,0.0,1.0,-1.33596452637,-0.627280834961,-10.4961800781,1.0,0.0,0.0,0.0,1.0,0.0,0.0,0.0,1.0
1463662608352731864,725,1463662608327806176,,0.178212270141,-4.07318162918,-154.863067627,0.0101290000603,1.0,0.0,0.0,0.0,1.0,0.0,0.0,0.0,1.0,5.18292713165,-1.46341466904,26.5243911743,1.0,0.0,0.0,0.0,1.0,0.0,0.0,0.0,1.0,-1.43652099609,-0.612915625,-10.524910498,1.0,0.0,0.0,0.0,1.0,0.0,0.0,0.0,1.0
1463662608352989455,726,1463662608337858317,,0.191539853811,-4.10036468506,-154.581436157,0.0100649995729,1.0,0.0,0.0,0.0,1.0,0.0,0.0,0.0,1.0,5.91463422775,-0.548780500889,26.0975627899,1.0,0.0,0.0,0.0,1.0,0.0,0.0,0.0,1.0,-1.83395847168,-0.799663354492,-10.5919481445,1.0,0.0,0.0,0.0,1.0,0.0,0.0,0.0,1.0
1463662608353249963,727,1463662608347845606,,0.202339842916,-4.12775468826,-154.317062378,0.0101049998775,1.0,0.0,0.0,0.0,1.0,0.0,0.0,0.0,1.0,5.91463422775,-0.365853667259,24.2682933807,1.0,0.0,0.0,0.0,1.0,0.0,0.0,0.0,1.0,-1.89141931152,-0.737414111328,-10.6781394043,1.0,0.0,0.0,0.0,1.0,0.0,0.0,0.0,1.0
1463662608602423445,728,1463662608358076264,,0.217703789473,-4.14196395874,-154.072128296,0.0101319998503,1.0,0.0,0.0,0.0,1.0,0.0,0.0,0.0,1.0,5.85365867615,1.03658533096,22.3170719147,1.0,0.0,0.0,0.0,1.0,0.0,0.0,0.0,1.0,-1.92014973145,-0.814028564453,-10.7020814209,1.0,0.0,0.0,0.0,1.0,0.0,0.0,0.0,1.0
1463662608602723803,729,1463662608368136532,,0.212049409747,-4.12970209122,-153.849899292,0.0100889997557,1.0,0.0,0.0,0.0,1.0,0.0,0.0,0.0,1.0,5.36585378647,1.58536589146,20.0609760284,1.0,0.0,0.0,0.0,1.0,0.0,0.0,0.0,1.0,-1.59932670898,-0.502782348633,-11.2623246094,1.0,0.0,0.0,0.0,1.0,0.0,0.0,0.0,1.0
1463662608603043226,730,1463662608378224512,,0.217424109578,-4.11810874939,-153.646514893,0.0100990002975,1.0,0.0,0.0,0.0,1.0,0.0,0.0,0.0,1.0,5.67073154449,2.43902444839,18.2317085266,1.0,0.0,0.0,0.0,1.0,0.0,0.0,0.0,1.0,-1.78128603516,-0.632069238281,-11.2288057861,1.0,0.0,0.0,0.0,1.0,0.0,0.0,0.0,1.0
1463662608603396248,731,1463662608388428083,,0.213690668344,-4.09016180038,-153.467147827,0.0101359998807,1.0,0.0,0.0,0.0,1.0,0.0,0.0,0.0,1.0,6.46341466904,3.04878044128,15.6707315445,1.0,0.0,0.0,0.0,1.0,0.0,0.0,0.0,1.0,-1.59932670898,-0.258573779297,-11.391611499,1.0,0.0,0.0,0.0,1.0,0.0,0.0,0.0,1.0
1463662608603668581,732,1463662608398502155,,0.234062165022,-4.08503818512,-153.312362671,0.0100659998134,1.0,0.0,0.0,0.0,1.0,0.0,0.0,0.0,1.0,6.40243911743,2.80487799644,13.5365858078,1.0,0.0,0.0,0.0,1.0,0.0,0.0,0.0,1.0,-2.02549460449,-0.732625708008,-11.4682259521,1.0,0.0,0.0,0.0,1.0,0.0,0.0,0.0,1.0
1463662608603959823,733,1463662608409120945,,0.244865983725,-4.05121707916,-153.189041138,0.010106000118,1.0,0.0,0.0,0.0,1.0,0.0,0.0,0.0,1.0,6.28048801422,3.59756112099,10.3048782349,1.0,0.0,0.0,0.0,1.0,0.0,0.0,0.0,1.0,-1.63763393555,-0.526724328702,-11.7459533447,1.0,0.0,0.0,0.0,1.0,0.0,0.0,0.0,1.0
1463662608604242626,734,1463662608418691295,,0.266230076551,-4.02542352676,-153.078186035,0.0100840004161,1.0,0.0,0.0,0.0,1.0,0.0,0.0,0.0,1.0,5.79268312454,3.53658556938,9.20731735229,1.0,0.0,0.0,0.0,1.0,0.0,0.0,0.0,1.0,-1.76213242187,-0.823605371094,-11.5831476318,1.0,0.0,0.0,0.0,1.0,0.0,0.0,0.0,1.0
1463662608604548558,735,1463662608428751355,,0.270095825195,-3.99294710159,-152.982772827,0.0100940000266,1.0,0.0,0.0,0.0,1.0,0.0,0.0,0.0,1.0,2.98780488968,3.23170733452,7.74390268326,1.0,0.0,0.0,0.0,1.0,0.0,0.0,0.0,1.0,-1.59932670898,-1.0534486574,-11.899182251,1.0,0.0,0.0,0.0,1.0,0.0,0.0,0.0,1.0
1463662608604892464,736,1463662608439026239,,0.243592575192,-3.96534776688,-152.897109985,0.0101100001484,1.0,0.0,0.0,0.0,1.0,0.0,0.0,0.0,1.0,0.0,2.68292689323,6.7682929039,1.0,0.0,0.0,0.0,1.0,0.0,0.0,0.0,1.0,-1.56580788574,-1.02471831055,-11.7890489746,1.0,0.0,0.0,0.0,1.0,0.0,0.0,0.0,1.0
1463662608605210793,737,1463662608448961227,,0.184587180614,-3.94029974937,-152.822067261,0.0101209999993,1.0,0.0,0.0,0.0,1.0,0.0,0.0,0.0,1.0,-1.70731711388,2.19512200356,5.60975599289,1.0,0.0,0.0,0.0,1.0,0.0,0.0,0.0,1.0,-1.51313544922,-0.684741674805,-11.8034141846,1.0,0.0,0.0,0.0,1.0,0.0,0.0,0.0,1.0
1463662608605483074,738,1463662608459106925,,0.120247416198,-3.9239218235,-152.754547119,0.0100999996066,1.0,0.0,0.0,0.0,1.0,0.0,0.0,0.0,1.0,-2.07317066193,1.58536589146,4.87804889679,1.0,0.0,0.0,0.0,1.0,0.0,0.0,0.0,1.0,-1.5322890625,-0.612915625,-11.5831476318,1.0,0.0,0.0,0.0,1.0,0.0,0.0,0.0,1.0
1463662608605783119,739,1463662608469349929,,0.0597292110324,-3.9202439785,-152.696746826,0.010098000057,1.0,0.0,0.0,0.0,1.0,0.0,0.0,0.0,1.0,-2.25609779358,1.2804877758,3.96341490746,1.0,0.0,0.0,0.0,1.0,0.0,0.0,0.0,1.0,-1.71903679199,-0.699106884766,-11.5065331787,1.0,0.0,0.0,0.0,1.0,0.0,0.0,0.0,1.0
1463662608606054775,740,1463662608479234181,,-0.00724191684276,-3.91584229469,-152.641571045,0.0100959995762,1.0,0.0,0.0,0.0,1.0,0.0,0.0,0.0,1.0,-3.04878044128,1.58536589146,3.71951246262,1.0,0.0,0.0,0.0,1.0,0.0,0.0,0.0,1.0,-1.77649763184,-0.718260498047,-11.5592056152,1.0,0.0,0.0,0.0,1.0,0.0,0.0,0.0,1.0
1463662608606314449,741,1463662608489345081,,-0.0773637518287,-3.90000915527,-152.585144043,0.0100849997252,1.0,0.0,0.0,0.0,1.0,0.0,0.0,0.0,1.0,-4.02439022064,1.46341466904,3.90243911743,1.0,0.0,0.0,0.0,1.0,0.0,0.0,0.0,1.0,-1.49398183594,-0.828393774414,-11.4011883057,1.0,0.0,0.0,0.0,1.0,0.0,0.0,0.0,1.0
1463662608606576572,742,1463662608499473849,,-0.160295948386,-3.88742518425,-152.521530151,0.0101110003889,1.0,0.0,0.0,0.0,1.0,0.0,0.0,0.0,1.0,-4.87804889679,1.2195122242,4.57317066193,1.0,0.0,0.0,0.0,1.0,0.0,0.0,0.0,1.0,-1.53707746582,-0.756567724609,-11.6118780518,1.0,0.0,0.0,0.0,1.0,0.0,0.0,0.0,1.0
1463662608606832392,743,1463662608509554797,,-0.248003140092,-3.88680410385,-152.456161499,0.0100929997861,1.0,0.0,0.0,0.0,1.0,0.0,0.0,0.0,1.0,-5.30487823486,0.426829278469,4.75609779358,1.0,0.0,0.0,0.0,1.0,0.0,0.0,0.0,1.0,-1.61369191895,-0.727837304687,-11.5783592285,1.0,0.0,0.0,0.0,1.0,0.0,0.0,0.0,1.0
1463662608607106496,744,1463662608519887398,,-0.342690646648,-3.87887907028,-152.384506226,0.0101469997317,1.0,0.0,0.0,0.0,1.0,0.0,0.0,0.0,1.0,-5.30487823486,0.731707334518,5.30487823486,1.0,0.0,0.0,0.0,1.0,0.0,0.0,0.0,1.0,-1.54186586914,-0.588973571866,-11.6741272949,1.0,0.0,0.0,0.0,1.0,0.0,0.0,0.0,1.0
1463662608607400082,745,1463662608529938967,,-0.433805048466,-3.87717151642,-152.310913086,0.0100790001452,1.0,0.0,0.0,0.0,1.0,0.0,0.0,0.0,1.0,-4.14634132385,0.426829278469,5.48780488968,1.0,0.0,0.0,0.0,1.0,0.0,0.0,0.0,1.0,-1.58974990234,-0.387860668945,-11.5496288086,1.0,0.0,0.0,0.0,1.0,0.0,0.0,0.0,1.0
1463662608607682520,746,1463662608539971678,,-0.501136183739,-3.87119412422,-152.239379883,0.0101009998471,1.0,0.0,0.0,0.0,1.0,0.0,0.0,0.0,1.0,-3.17073178291,-0.243902444839,5.36585378647,1.0,0.0,0.0,0.0,1.0,0.0,0.0,0.0,1.0,-1.37906015625,-0.660799658203,-11.6693388916,1.0,0.0,0.0,0.0,1.0,0.0,0.0,0.0,1.0
1463662608607943653,747,1463662608550026008,,-0.568894863129,-3.86934447289,-152.171020508,0.0100880004466,1.0,0.0,0.0,0.0,1.0,0.0,0.0,0.0,1.0,-2.37804889679,-1.2195122242,5.0,1.0,0.0,0.0,0.0,1.0,0.0,0.0,0.0,1.0,-1.26892687988,-0.469263525391,-11.750741748,1.0,0.0,0.0,0.0,1.0,0.0,0.0,0.0,1.0
1463662608608210517,748,1463662608560219682,,-0.626413524151,-3.87885808945,-152.102142334,0.0101079996675,1.0,0.0,0.0,0.0,1.0,0.0,0.0,0.0,1.0,-0.975609779358,-2.5,5.0,1.0,0.0,0.0,0.0,1.0,0.0,0.0,0.0,1.0,-1.22583125,-0.373495458984,-11.6406084717,1.0,0.0,0.0,0.0,1.0,0.0,0.0,0.0,1.0
1463662608608516084,749,1463662608570139043,,-0.664980471134,-3.8968296051,-152.033874512,0.0100929997861,1.0,0.0,0.0,0.0,1.0,0.0,0.0,0.0,1.0,0.914634168148,-3.65853667259,4.93902444839,1.0,0.0,0.0,0.0,1.0,0.0,0.0,0.0,1.0,-1.1540052002,-0.354341845703,-11.5544172119,1.0,0.0,0.0,0.0,1.0,0.0,0.0,0.0,1.0
1463662608608833111,750,1463662608580311672,,-0.687531232834,-3.92916941643,-151.965637207,0.0101020000875,1.0,0.0,0.0,0.0,1.0,0.0,0.0,0.0,1.0,2.07317066193,-5.24390268326,4.93902444839,1.0,0.0,0.0,0.0,1.0,0.0,0.0,0.0,1.0,-1.12527478027,-0.435744702148,-11.5592056152,1.0,0.0,0.0,0.0,1.0,0.0,0.0,0.0,1.0
1463662608652225074,751,1463662608590733713,,-0.696828722954,-3.97763824463,-151.891738892,0.0101020000875,1.0,0.0,0.0,0.0,1.0,0.0,0.0,0.0,1.0,2.5,-6.34146356583,5.54878091812,1.0,0.0,0.0,0.0,1.0,0.0,0.0,0.0,1.0,-1.22583125,-0.61770402832,-11.4538607422,1.0,0.0,0.0,0.0,1.0,0.0,0.0,0.0,1.0
1463662608652613571,752,1463662608600580199,,-0.707282662392,-4.03116369247,-151.809738159,0.0100940000266,1.0,0.0,0.0,0.0,1.0,0.0,0.0,0.0,1.0,1.70731711388,-6.52439069748,6.40243911743,1.0,0.0,0.0,0.0,1.0,0.0,0.0,0.0,1.0,-1.29286889648,-0.76135612793,-11.3533042725,1.0,0.0,0.0,0.0,1.0,0.0,0.0,0.0,1.0
1463662608652666495,753,1463662608610723083,,-0.734111368656,-4.08066225052,-151.721847534,0.0101049998775,1.0,0.0,0.0,0.0,1.0,0.0,0.0,0.0,1.0,0.426829278469,-6.64634132385,6.95121955872,1.0,0.0,0.0,0.0,1.0,0.0,0.0,0.0,1.0,-1.20667770978,-0.703895288086,-11.4299187256,1.0,0.0,0.0,0.0,1.0,0.0,0.0,0.0,1.0
1463662608652993107,754,1463662608620890242,,-0.720440983772,-4.12512207031,-151.639968872,0.0100959995762,1.0,0.0,0.0,0.0,1.0,0.0,0.0,0.0,1.0,1.64634156227,-5.48780488968,6.58536624908,1.0,0.0,0.0,0.0,1.0,0.0,0.0,0.0,1.0,-1.52271225586,-1.42694418945,-12.856862915,1.0,0.0,0.0,0.0,1.0,0.0,0.0,0.0,1.0
1463662608684301789,755,1463662608631131736,,-0.739154338837,-4.19237327576,-151.539871216,0.010111999698,1.0,0.0,0.0,0.0,1.0,0.0,0.0,0.0,1.0,-0.609756112099,-6.28048801422,8.29268264771,1.0,0.0,0.0,0.0,1.0,0.0,0.0,0.0,1.0,-1.56580788574,-1.03908344744,-10.7403886475,1.0,0.0,0.0,0.0,1.0,0.0,0.0,0.0,1.0
1463662608684898077,756,1463662608640879352,,-0.790644407272,-4.24415922165,-151.428695679,0.0101030003279,1.0,0.0,0.0,0.0,1.0,0.0,0.0,0.0,1.0,-2.80487799644,-5.85365867615,9.32926845551,1.0,0.0,0.0,0.0,1.0,0.0,0.0,0.0,1.0,-1.43173259277,-0.885854614258,-11.2335941895,1.0,0.0,0.0,0.0,1.0,0.0,0.0,0.0,1.0
1463662608684950846,757,1463662608651205650,,-0.871616601944,-4.28506231308,-151.323043823,0.0101140001789,1.0,0.0,0.0,0.0,1.0,0.0,0.0,0.0,1.0,-3.23170733452,-5.30487823486,8.59756088257,1.0,0.0,0.0,0.0,1.0,0.0,0.0,0.0,1.0,-1.36948334961,-0.378283862305,-11.5304751953,1.0,0.0,0.0,0.0,1.0,0.0,0.0,0.0,1.0
1463662608684989445,758,1463662608661209920,,-0.940554201603,-4.32517242432,-151.218521118,0.0100889997557,1.0,0.0,0.0,0.0,1.0,0.0,0.0,0.0,1.0,-2.19512200356,-4.2682929039,8.5365858078,1.0,0.0,0.0,0.0,1.0,0.0,0.0,0.0,1.0,-1.6041151123,-0.397437475586,-11.6980693115,1.0,0.0,0.0,0.0,1.0,0.0,0.0,0.0,1.0
1463662608711020613,759,1463662608671665352,,-0.991989672184,-4.36128520966,-151.124725342,0.010106000118,1.0,0.0,0.0,0.0,1.0,0.0,0.0,0.0,1.0,-0.731707334518,-3.35365867615,7.50000047684,1.0,0.0,0.0,0.0,1.0,0.0,0.0,0.0,1.0,-1.73340200195,-0.430956298828,-11.7938373779,1.0,0.0,0.0,0.0,1.0,0.0,0.0,0.0,1.0
1463662608711293414,760,1463662608681461934,,-1.05238652229,-4.40002632141,-151.032867432,0.0101460004225,1.0,0.0,0.0,0.0,1.0,0.0,0.0,0.0,1.0,-0.365853667259,-2.5,7.19512224197,1.0,0.0,0.0,0.0,1.0,0.0,0.0,0.0,1.0,-2.07816689489,-0.167594116211,-12.3971761963,1.0,0.0,0.0,0.0,1.0,0.0,0.0,0.0,1.0
1463662608711561684,761,1463662608691597578,,-1.09904277325,-4.40638637543,-150.958587646,0.0100589999929,1.0,0.0,0.0,0.0,1.0,0.0,0.0,0.0,1.0,-0.243902444839,-0.243902444839,5.67073154449,1.0,0.0,0.0,0.0,1.0,0.0,0.0,0.0,1.0,-1.83395847168,-0.383072265625,-12.1433908203,1.0,0.0,0.0,0.0,1.0,0.0,0.0,0.0,1.0
1463662608711828860,762,1463662608702121562,,-1.12732040882,-4.4056930542,-150.892776489,0.010095000267,1.0,0.0,0.0,0.0,1.0,0.0,0.0,0.0,1.0,0.12195122242,0.548780500889,4.93902444839,1.0,0.0,0.0,0.0,1.0,0.0,0.0,0.0,1.0,-1.85311208496,-0.679953271484,-12.138602417,1.0,0.0,0.0,0.0,1.0,0.0,0.0,0.0,1.0
1463662608754594531,763,1463662608711775675,,-1.15990829468,-4.39146518707,-150.839675903,0.0100840004161,1.0,0.0,0.0,0.0,1.0,0.0,0.0,0.0,1.0,0.18292683363,0.853658556938,3.65853667259,1.0,0.0,0.0,0.0,1.0,0.0,0.0,0.0,1.0,-1.61369191895,-0.541089611728,-12.0907183838,1.0,0.0,0.0,0.0,1.0,0.0,0.0,0.0,1.0
1463662608754918278,764,1463662608721914340,,-1.18619930744,-4.37232255936,-150.79699707,0.010332999751,1.0,0.0,0.0,0.0,1.0,0.0,0.0,0.0,1.0,0.426829278469,0.792682945728,2.56097555161,1.0,0.0,0.0,0.0,1.0,0.0,0.0,0.0,1.0,-1.50355864258,-0.612915625,-12.1433908203,1.0,0.0,0.0,0.0,1.0,0.0,0.0,0.0,1.0
1463662608755236555,765,1463662608731819741,,-1.21107268333,-4.35583400726,-150.768386841,0.00988299958408,1.0,0.0,0.0,0.0,1.0,0.0,0.0,0.0,1.0,0.243902444839,0.609756112099,1.34146344662,1.0,0.0,0.0,0.0,1.0,0.0,0.0,0.0,1.0,-1.49398183594,-0.632069238281,-12.138602417,1.0,0.0,0.0,0.0,1.0,0.0,0.0,0.0,1.0
1463662608755499564,766,1463662608742256888,,-1.24125862122,-4.34032297134,-150.741989136,0.0101960003376,1.0,0.0,0.0,0.0,1.0,0.0,0.0,0.0,1.0,-0.365853667259,-0.0609756112099,1.03658533096,1.0,0.0,0.0,0.0,1.0,0.0,0.0,0.0,1.0,-1.37427175293,-0.656011254883,-12.1290256104,1.0,0.0,0.0,0.0,1.0,0.0,0.0,0.0,1.0
1463662608803846234,767,1463662608752208755,,-1.28156745434,-4.33547878265,-150.719894409,0.0100360000506,1.0,0.0,0.0,0.0,1.0,0.0,0.0,0.0,1.0,-1.2195122242,-1.2195122242,0.609756112099,1.0,0.0,0.0,0.0,1.0,0.0,0.0,0.0,1.0,-1.32159931641,-0.588973571866,-11.9327010742,1.0,0.0,0.0,0.0,1.0,0.0,0.0,0.0,1.0
1463662608804160083,768,1463662608763537443,,-1.32865250111,-4.33466386795,-150.688217163,0.0100619997829,1.0,0.0,0.0,0.0,1.0,0.0,0.0,0.0,1.0,-1.70731711388,-1.8902438879,1.52439022064,1.0,0.0,0.0,0.0,1.0,0.0,0.0,0.0,1.0,-1.2737152832,-0.560243188477,-11.9853735107,1.0,0.0,0.0,0.0,1.0,0.0,0.0,0.0,1.0
1463662608804426165,769,1463662608774205928,,-1.38393354416,-4.34115028381,-150.64239502,0.010982000269,1.0,0.0,0.0,0.0,1.0,0.0,0.0,0.0,1.0,-2.43902444839,-2.62195134163,2.56097555161,1.0,0.0,0.0,0.0,1.0,0.0,0.0,0.0,1.0,-1.26413847656,-0.646434448242,-11.9614314941,1.0,0.0,0.0,0.0,1.0,0.0,0.0,0.0,1.0
1463662608804712302,770,1463662608782284022,,-1.43094325066,-4.35345935822,-150.590393066,0.00923599954695,1.0,0.0,0.0,0.0,1.0,0.0,0.0,0.0,1.0,-2.74390244484,-3.10975623131,4.02439022064,1.0,0.0,0.0,0.0,1.0,0.0,0.0,0.0,1.0,-1.32159931641,-0.708683691406,-11.899182251,1.0,0.0,0.0,0.0,1.0,0.0,0.0,0.0,1.0
1463662608839373105,771,1463662608792469517,,-1.49180996418,-4.37171459198,-150.517822266,0.0100809996948,1.0,0.0,0.0,0.0,1.0,0.0,0.0,0.0,1.0,-3.10975623131,-2.92682933807,5.54878091812,1.0,0.0,0.0,0.0,1.0,0.0,0.0,0.0,1.0,-1.45567460937,-0.593762048251,-11.7459533447,1.0,0.0,0.0,0.0,1.0,0.0,0.0,0.0,1.0
1463662608839644552,772,1463662608802448366,,-1.55840778351,-4.38696813583,-150.422927856,0.0100990002975,1.0,0.0,0.0,0.0,1.0,0.0,0.0,0.0,1.0,-3.47560977936,-2.37804889679,7.74390268326,1.0,0.0,0.0,0.0,1.0,0.0,0.0,0.0,1.0,-1.49398183594,-0.565031591797,-11.5017447754,1.0,0.0,0.0,0.0,1.0,0.0,0.0,0.0,1.0
1463662608839900163,773,1463662608812497956,,-1.6190059185,-4.40085411072,-150.311767578,0.0101009998471,1.0,0.0,0.0,0.0,1.0,0.0,0.0,0.0,1.0,-2.56097555161,-2.25609779358,9.32926845551,1.0,0.0,0.0,0.0,1.0,0.0,0.0,0.0,1.0,-1.47961662598,-0.502782348633,-11.3054202393,1.0,0.0,0.0,0.0,1.0,0.0,0.0,0.0,1.0
1463662608840174996,774,1463662608822553119,,-1.67026603222,-4.40786504745,-150.187927246,0.010098000057,1.0,0.0,0.0,0.0,1.0,0.0,0.0,0.0,1.0,-1.03658533096,-2.07317066193,10.548781395,1.0,0.0,0.0,0.0,1.0,0.0,0.0,0.0,1.0,-1.35511813965,-0.378283862305,-11.01811604,1.0,0.0,0.0,0.0,1.0,0.0,0.0,0.0,1.0
1463662608872614995,775,1463662608833178784,,-1.70352709293,-4.41561937332,-150.047637939,0.0101190004498,1.0,0.0,0.0,0.0,1.0,0.0,0.0,0.0,1.0,0.975609779358,-1.8902438879,12.1341466904,1.0,0.0,0.0,0.0,1.0,0.0,0.0,0.0,1.0,-1.43652099609,-0.354341845703,-11.1617681396,1.0,0.0,0.0,0.0,1.0,0.0,0.0,0.0,1.0
1463662608872671410,776,1463662608843577228,,-1.71840453148,-4.42207431793,-149.882568359,0.0108120003715,1.0,0.0,0.0,0.0,1.0,0.0,0.0,0.0,1.0,3.04878044128,-1.52439022064,13.5365858078,1.0,0.0,0.0,0.0,1.0,0.0,0.0,0.0,1.0,-1.47482822266,-0.335188232422,-11.0707884766,1.0,0.0,0.0,0.0,1.0,0.0,0.0,0.0,1.0
1463662608872710687,777,1463662608852962186,,-1.71589636803,-4.41748332977,-149.726196289,0.009382000193,1.0,0.0,0.0,0.0,1.0,0.0,0.0,0.0,1.0,5.06097555161,-0.426829278469,14.9390249252,1.0,0.0,0.0,0.0,1.0,0.0,0.0,0.0,1.0,-1.47003981934,-0.277727392578,-10.9462899902,1.0,0.0,0.0,0.0,1.0,0.0,0.0,0.0,1.0
1463662608872747828,778,1463662608863027924,,-1.6889269352,-4.41200733185,-149.546585083,0.010098000057,1.0,0.0,0.0,0.0,1.0,0.0,0.0,0.0,1.0,7.19512224197,0.304878056049,16.0975608826,1.0,0.0,0.0,0.0,1.0,0.0,0.0,0.0,1.0,-1.58974990234,-0.344765039063,-10.8170031006,1.0,0.0,0.0,0.0,1.0,0.0,0.0,0.0,1.0
1463662608928223542,779,1463662608873140648,,-1.64699351788,-4.39598178864,-149.360961914,0.0101030003279,1.0,0.0,0.0,0.0,1.0,0.0,0.0,0.0,1.0,8.78048801422,1.46341466904,16.7073173523,1.0,0.0,0.0,0.0,1.0,0.0,0.0,0.0,1.0,-1.59932670898,-0.335188232422,-10.7308118408,1.0,0.0,0.0,0.0,1.0,0.0,0.0,0.0,1.0
1463662608928281520,780,1463662608883273270,,-1.59128856659,-4.36858415604,-149.167007446,0.010098000057,1.0,0.0,0.0,0.0,1.0,0.0,0.0,0.0,1.0,10.1219511032,2.31707310677,17.5609760284,1.0,0.0,0.0,0.0,1.0,0.0,0.0,0.0,1.0,-1.52750065918,-0.354341845703,-10.6111017578,1.0,0.0,0.0,0.0,1.0,0.0,0.0,0.0,1.0
1463662608928339653,781,1463662608898981422,,-1.464859128,-4.30890035629,-148.859512329,0.0157629996538,1.0,0.0,0.0,0.0,1.0,0.0,0.0,0.0,1.0,11.7682924271,2.74390244484,17.9268302917,1.0,0.0,0.0,0.0,1.0,0.0,0.0,0.0,1.0,-1.40300217285,-0.531512805087,-10.673351001,1.0,0.0,0.0,0.0,1.0,0.0,0.0,0.0,1.0
1463662608928379712,782,1463662608903428551,,-1.42982041836,-4.29443788528,-148.774490356,0.00442800018936,1.0,0.0,0.0,0.0,1.0,0.0,0.0,0.0,1.0,12.0121955872,2.07317066193,17.5609760284,1.0,0.0,0.0,0.0,1.0,0.0,0.0,0.0,1.0,-1.35032973633,-0.478840332031,-10.6302553711,1.0,0.0,0.0,0.0,1.0,0.0,0.0,0.0,1.0
1463662608986361742,783,1463662608914821155,,-1.33779072762,-4.25367975235,-148.57824707,0.0103500001132,1.0,0.0,0.0,0.0,1.0,0.0,0.0,0.0,1.0,12.9878053665,2.13414645195,17.317073822,1.0,0.0,0.0,0.0,1.0,0.0,0.0,0.0,1.0,-1.23540805664,-0.483628735352,-10.7116582275,1.0,0.0,0.0,0.0,1.0,0.0,0.0,0.0,1.0
1463662608986409978,784,1463662608923640715,,-1.23883581161,-4.22898817062,-148.400695801,0.00985699985176,1.0,0.0,0.0,0.0,1.0,0.0,0.0,0.0,1.0,14.9390249252,1.34146344662,16.2804889679,1.0,0.0,0.0,0.0,1.0,0.0,0.0,0.0,1.0,-1.33117612305,-0.330399829102,-10.6398321777,1.0,0.0,0.0,0.0,1.0,0.0,0.0,0.0,1.0
1463662608986788681,785,1463662608933704525,,-1.10694313049,-4.20448875427,-148.231430054,0.0101070003584,1.0,0.0,0.0,0.0,1.0,0.0,0.0,0.0,1.0,16.2804889679,0.975609779358,15.1219511032,1.0,0.0,0.0,0.0,1.0,0.0,0.0,0.0,1.0,-1.26892687988,-0.651222851562,-10.7068698242,1.0,0.0,0.0,0.0,1.0,0.0,0.0,0.0,1.0
1463662608998632916,786,1463662608943965865,,-0.972021818161,-4.18262720108,-148.070755005,0.0100959995762,1.0,0.0,0.0,0.0,1.0,0.0,0.0,0.0,1.0,16.5853652954,0.243902444839,14.2682924271,1.0,0.0,0.0,0.0,1.0,0.0,0.0,0.0,1.0,-1.14921679688,-0.656011254883,-10.5775829346,1.0,0.0,0.0,0.0,1.0,0.0,0.0,0.0,1.0
1463662608998733869,787,1463662608954318573,,-0.829699397087,-4.17136383057,-147.920135498,0.0101110003889,1.0,0.0,0.0,0.0,1.0,0.0,0.0,0.0,1.0,16.341463089,-0.792682945728,13.2926826477,1.0,0.0,0.0,0.0,1.0,0.0,0.0,0.0,1.0,-1.12527478027,-0.837970581055,-10.4578728516,1.0,0.0,0.0,0.0,1.0,0.0,0.0,0.0,1.0
1463662608998778303,788,1463662608964275336,,-0.697372913361,-4.16762208939,-147.778793335,0.0100910002366,1.0,0.0,0.0,0.0,1.0,0.0,0.0,0.0,1.0,15.4268302917,-1.95121955872,12.3780488968,1.0,0.0,0.0,0.0,1.0,0.0,0.0,0.0,1.0,-1.04387185076,-0.847547387695,-10.5296989014,1.0,0.0,0.0,0.0,1.0,0.0,0.0,0.0,1.0
1463662608998815079,789,1463662608975071809,,-0.572209000587,-4.18705034256,-147.652481079,0.0101009998471,1.0,0.0,0.0,0.0,1.0,0.0,0.0,0.0,1.0,14.6951217651,-3.96341490746,10.8536586761,1.0,0.0,0.0,0.0,1.0,0.0,0.0,0.0,1.0,-1.11569797363,-0.876277807617,-10.8026378906,1.0,0.0,0.0,0.0,1.0,0.0,0.0,0.0,1.0
1463662608998853366,790,1463662608984185892,,-0.44867554307,-4.21634864807,-147.540771484,0.0101030003279,1.0,0.0,0.0,0.0,1.0,0.0,0.0,0.0,1.0,14.6951217651,-5.06097555161,9.39024448395,1.0,0.0,0.0,0.0,1.0,0.0,0.0,0.0,1.0,-1.08696755371,-0.847547387695,-10.7882726807,1.0,0.0,0.0,0.0,1.0,0.0,0.0,0.0,1.0
1463662609097128090,791,1463662608994400819,,-0.330042809248,-4.26694393158,-147.453491211,0.0101049998775,1.0,0.0,0.0,0.0,1.0,0.0,0.0,0.0,1.0,15.2439022064,-7.25609779358,6.89024400711,1.0,0.0,0.0,0.0,1.0,0.0,0.0,0.0,1.0,-1.08217922346,-0.646434448242,-10.9319247803,1.0,0.0,0.0,0.0,1.0,0.0,0.0,0.0,1.0
1463662609097518722,792,1463662609004534900,,-0.200592055917,-4.33674621582,-147.391571045,0.0101030003279,1.0,0.0,0.0,0.0,1.0,0.0,0.0,0.0,1.0,17.9268302917,-9.45121955872,4.2682929039,1.0,0.0,0.0,0.0,1.0,0.0,0.0,0.0,1.0,-1.04387185076,-0.325611425781,-11.0899420898,1.0,0.0,0.0,0.0,1.0,0.0,0.0,0.0,1.0
1463662609097569407,793,1463662609014680442,,-0.0336418375373,-4.41963624954,-147.359573364,0.0101140001789,1.0,0.0,0.0,0.0,1.0,0.0,0.0,0.0,1.0,20.6097564697,-11.2804880142,1.40243899822,1.0,0.0,0.0,0.0,1.0,0.0,0.0,0.0,1.0,-0.928950244141,-0.497993945312,-10.8840407471,1.0,0.0,0.0,0.0,1.0,0.0,0.0,0.0,1.0
1463662609097802828,794,1463662609024977256,,0.167553767562,-4.53049612045,-147.349594116,0.0103949997574,1.0,0.0,0.0,0.0,1.0,0.0,0.0,0.0,1.0,22.2560977936,-12.9878053665,-0.670731723309,1.0,0.0,0.0,0.0,1.0,0.0,0.0,0.0,1.0,-1.10612116699,-0.742202514648,-11.0276928467,1.0,0.0,0.0,0.0,1.0,0.0,0.0,0.0,1.0
1463662609097866066,795,1463662609034826815,,0.376457750797,-4.66128778458,-147.361404419,0.00978599954396,1.0,0.0,0.0,0.0,1.0,0.0,0.0,0.0,1.0,22.2560977936,-15.3048791885,-2.62195134163,1.0,0.0,0.0,0.0,1.0,0.0,0.0,0.0,1.0,-1.20188930646,-1.13963999023,-10.9893856201,1.0,0.0,0.0,0.0,1.0,0.0,0.0,0.0,1.0
1463662609100652789,796,1463662609044913076,,0.584861695766,-4.81647109985,-147.386566162,0.0101030003279,1.0,0.0,0.0,0.0,1.0,0.0,0.0,0.0,1.0,22.3170719147,-15.8536596298,-3.90243911743,1.0,0.0,0.0,0.0,1.0,0.0,0.0,0.0,1.0,-1.52750065918,-1.01514150391,-11.0707884766,1.0,0.0,0.0,0.0,1.0,0.0,0.0,0.0,1.0
1463662609100732228,797,1463662609055043667,,0.791528463364,-4.98472499847,-147.421829224,0.0101180002093,1.0,0.0,0.0,0.0,1.0,0.0,0.0,0.0,1.0,23.3536586761,-16.0975608826,-4.93902444839,1.0,0.0,0.0,0.0,1.0,0.0,0.0,0.0,1.0,-1.77170922852,-0.794874951172,-11.0995188965,1.0,0.0,0.0,0.0,1.0,0.0,0.0,0.0,1.0
1463662609100772755,798,1463662609065150192,,1.00949561596,-5.13823652267,-147.47328186,0.0100919995457,1.0,0.0,0.0,0.0,1.0,0.0,0.0,0.0,1.0,25.5487804413,-16.0975608826,-6.58536624908,1.0,0.0,0.0,0.0,1.0,0.0,0.0,0.0,1.0,-1.53707746582,-0.603338854892,-11.1713449463,1.0,0.0,0.0,0.0,1.0,0.0,0.0,0.0,1.0
1463662609182008346,799,1463662609075171757,,1.2666015625,-5.29661846161,-147.539627075,0.0100919995457,1.0,0.0,0.0,0.0,1.0,0.0,0.0,0.0,1.0,28.7195110321,-16.5853652954,-7.92682981491,1.0,0.0,0.0,0.0,1.0,0.0,0.0,0.0,1.0,-1.55144267578,-0.746990917969,-10.9893856201,1.0,0.0,0.0,0.0,1.0,0.0,0.0,0.0,1.0
1463662609182071011,800,1463662609085267863,,1.56202614307,-5.45180082321,-147.616409302,0.0101030003279,1.0,0.0,0.0,0.0,1.0,0.0,0.0,0.0,1.0,32.0121955872,-16.341463089,-8.84146404266,1.0,0.0,0.0,0.0,1.0,0.0,0.0,0.0,1.0,-1.54665427246,-0.852335791016,-10.7834842773,1.0,0.0,0.0,0.0,1.0,0.0,0.0,0.0,1.0
1463662609182114247,801,1463662609095461537,,1.89364719391,-5.60690879822,-147.702972412,0.0101070003584,1.0,0.0,0.0,0.0,1.0,0.0,0.0,0.0,1.0,35.3658561707,-16.7073173523,-9.69512176514,1.0,0.0,0.0,0.0,1.0,0.0,0.0,0.0,1.0,-1.5083470459,-0.92416184082,-10.7260234375,1.0,0.0,0.0,0.0,1.0,0.0,0.0,0.0,1.0
1463662609182153159,802,1463662609105547694,,2.25352501869,-5.76887845993,-147.804595947,0.0100880004466,1.0,0.0,0.0,0.0,1.0,0.0,0.0,0.0,1.0,40.6097564697,-17.0121955872,-11.341463089,1.0,0.0,0.0,0.0,1.0,0.0,0.0,0.0,1.0,-1.62805712891,-0.493205541992,-10.6781394043,1.0,0.0,0.0,0.0,1.0,0.0,0.0,0.0,1.0
1463662609182188685,803,1463662609115588845,,2.69272494316,-5.94394826889,-147.929794312,0.0101110003889,1.0,0.0,0.0,0.0,1.0,0.0,0.0,0.0,1.0,49.207321167,-16.4024391174,-13.658536911,1.0,0.0,0.0,0.0,1.0,0.0,0.0,0.0,1.0,-2.10210891149,-0.359130249023,-10.9223479736,1.0,0.0,0.0,0.0,1.0,0.0,0.0,0.0,1.0
1463662609182223847,804,1463662609126080011,,3.21860742569,-6.1006026268,-148.063201904,0.0101020000875,1.0,0.0,0.0,0.0,1.0,0.0,0.0,0.0,1.0,57.2560997009,-13.7195129395,-14.4512205124,1.0,0.0,0.0,0.0,1.0,0.0,0.0,0.0,1.0,-2.35589428746,-0.536301208408,-10.9798088135,1.0,0.0,0.0,0.0,1.0,0.0,0.0,0.0,1.0
1463662609182268645,805,1463662609136596910,,3.80941033363,-6.21427345276,-148.193389893,0.0101420003921,1.0,0.0,0.0,0.0,1.0,0.0,0.0,0.0,1.0,63.8414649963,-10.8536586761,-14.2073173523,1.0,0.0,0.0,0.0,1.0,0.0,0.0,0.0,1.0,-2.10689731481,-0.560243188477,-10.9223479736,1.0,0.0,0.0,0.0,1.0,0.0,0.0,0.0,1.0
1463662609182305161,806,1463662609146979206,,4.4747133255,-6.31104898453,-148.318588257,0.0100659998134,1.0,0.0,0.0,0.0,1.0,0.0,0.0,0.0,1.0,72.8658599854,-8.59756088257,-14.0243902206,1.0,0.0,0.0,0.0,1.0,0.0,0.0,0.0,1.0,-2.2170307373,-0.430956298828,-10.5967365479,1.0,0.0,0.0,0.0,1.0,0.0,0.0,0.0,1.0
1463662609204384795,807,1463662609156393856,,5.2402472496,-6.39039134979,-148.454345703,0.0100899999961,1.0,0.0,0.0,0.0,1.0,0.0,0.0,0.0,1.0,81.4634170532,-6.95121955872,-15.0000009537,1.0,0.0,0.0,0.0,1.0,0.0,0.0,0.0,1.0,-2.26012636719,-0.756567724609,-10.5727945312,1.0,0.0,0.0,0.0,1.0,0.0,0.0,0.0,1.0
1463662609204861586,808,1463662609166790112,,6.11083889008,-6.43876409531,-148.581008911,0.0102930003777,1.0,0.0,0.0,0.0,1.0,0.0,0.0,0.0,1.0,89.8170776367,-5.06097555161,-13.9634151459,1.0,0.0,0.0,0.0,1.0,0.0,0.0,0.0,1.0,-2.04464821777,-0.991199487305,-10.5680061279,1.0,0.0,0.0,0.0,1.0,0.0,0.0,0.0,1.0
1463662609205124646,809,1463662609176609979,,7.01790857315,-6.47229337692,-148.691467285,0.00992999970913,1.0,0.0,0.0,0.0,1.0,0.0,0.0,0.0,1.0,98.2926864624,-3.23170733452,-13.1707324982,1.0,0.0,0.0,0.0,1.0,0.0,0.0,0.0,1.0,-2.17393510742,-0.852335791016,-10.6063133545,1.0,0.0,0.0,0.0,1.0,0.0,0.0,0.0,1.0
1463662609205173560,810,1463662609200248390,,8.42580509186,-6.44346666336,-148.789413452,0.0123039996251,1.0,0.0,0.0,0.0,1.0,0.0,0.0,0.0,1.0,120.304878235,7.13414621353,-11.2195119858,1.0,0.0,0.0,0.0,1.0,0.0,0.0,0.0,1.0,-2.94007963867,-1.23540805664,-10.060435376,1.0,0.0,0.0,0.0,1.0,0.0,0.0,0.0,1.0
1463662609207675969,811,1463662609202692508,,10.0333719254,-6.38946962357,-148.890167236,0.0137379998341,1.0,0.0,0.0,0.0,1.0,0.0,0.0,0.0,1.0,122.804885864,8.47560977936,-11.0975618362,1.0,0.0,0.0,0.0,1.0,0.0,0.0,0.0,1.0,-2.87783039551,-1.49398183594,-9.88326445312,1.0,0.0,0.0,0.0,1.0,0.0,0.0,0.0,1.0
1463662609209126083,812,1463662609206457764,,10.5363769531,-6.36253261566,-148.914474487,0.00422800006345,1.0,0.0,0.0,0.0,1.0,0.0,0.0,0.0,1.0,124.878051758,10.0,-10.1219511032,1.0,0.0,0.0,0.0,1.0,0.0,0.0,0.0,1.0,-2.63362182617,-1.75255561523,-9.67257470703,1.0,0.0,0.0,0.0,1.0,0.0,0.0,0.0,1.0
1463662609243076206,813,1463662609216817713,,11.8006353378,-6.24056148529,-148.934310913,0.010108999908,1.0,0.0,0.0,0.0,1.0,0.0,0.0,0.0,1.0,129.329269409,13.048781395,-6.89024400711,1.0,0.0,0.0,0.0,1.0,0.0,0.0,0.0,1.0,-1.89141931152,-2.04943662109,-8.93037219238,1.0,0.0,0.0,0.0,1.0,0.0,0.0,0.0,1.0
1463662609243137778,814,1463662609226935281,,13.1212453842,-6.06376504898,-148.911651611,0.0101439999416,1.0,0.0,0.0,0.0,1.0,0.0,0.0,0.0,1.0,132.743911743,13.9024391174,-3.04878044128,1.0,0.0,0.0,0.0,1.0,0.0,0.0,0.0,1.0,-0.928950244141,-2.43729729004,-8.29351396626,1.0,0.0,0.0,0.0,1.0,0.0,0.0,0.0,1.0
1463662609249642353,815,1463662609237882714,,14.4570093155,-5.94433784485,-148.855667114,0.0100779999048,1.0,0.0,0.0,0.0,1.0,0.0,0.0,0.0,1.0,135.365859985,10.9146347046,0.670731723309,1.0,0.0,0.0,0.0,1.0,0.0,0.0,0.0,1.0,-1.17315874041,-2.65277543945,-8.26478413086,1.0,0.0,0.0,0.0,1.0,0.0,0.0,0.0,1.0
1463662609290785436,816,1463662609247080352,,15.807091713,-5.83796310425,-148.767379761,0.0100800003856,1.0,0.0,0.0,0.0,1.0,0.0,0.0,0.0,1.0,138.597564697,10.6097564697,3.53658556938,1.0,0.0,0.0,0.0,1.0,0.0,0.0,0.0,1.0,-1.24498486328,-2.7820623291,-8.78193168945,1.0,0.0,0.0,0.0,1.0,0.0,0.0,0.0,1.0
1463662609291195289,817,1463662609257469992,,17.2075366974,-5.7844171524,-148.63180542,0.0101739997044,1.0,0.0,0.0,0.0,1.0,0.0,0.0,0.0,1.0,140.792678833,10.0609760284,8.35365867615,1.0,0.0,0.0,0.0,1.0,0.0,0.0,0.0,1.0,-1.88184250488,-3.53863005371,-9.2176763916,1.0,0.0,0.0,0.0,1.0,0.0,0.0,0.0,1.0
1463662609291244359,818,1463662609267834994,,18.584022522,-5.72447299957,-148.45942688,0.0101629998535,1.0,0.0,0.0,0.0,1.0,0.0,0.0,0.0,1.0,140.426834106,11.7682924271,11.1585359573,1.0,0.0,0.0,0.0,1.0,0.0,0.0,0.0,1.0,-1.98718737793,-3.80678063965,-9.99339772949,1.0,0.0,0.0,0.0,1.0,0.0,0.0,0.0,1.0
1463662609291859192,819,1463662609277887709,,19.9396648407,-5.68472909927,-148.258773804,0.0100290002301,1.0,0.0,0.0,0.0,1.0,0.0,0.0,0.0,1.0,140.060974121,13.3536586761,13.5975618362,1.0,0.0,0.0,0.0,1.0,0.0,0.0,0.0,1.0,-2.39899020961,-4.09887324219,-9.81622680664,1.0,0.0,0.0,0.0,1.0,0.0,0.0,0.0,1.0
1463662609291905605,820,1463662609287751801,,21.2949886322,-5.62056732178,-148.045852661,0.0100640002638,1.0,0.0,0.0,0.0,1.0,0.0,0.0,0.0,1.0,139.329269409,16.0975608826,13.5365858078,1.0,0.0,0.0,0.0,1.0,0.0,0.0,0.0,1.0,-2.29843359375,-4.32871689382,-9.56244201519,1.0,0.0,0.0,0.0,1.0,0.0,0.0,0.0,1.0
1463662609321256179,821,1463662609297960946,,22.6775341034,-5.53657150269,-147.819000244,0.0103409998119,1.0,0.0,0.0,0.0,1.0,0.0,0.0,0.0,1.0,137.560974121,17.0731716156,13.7195129395,1.0,0.0,0.0,0.0,1.0,0.0,0.0,0.0,1.0,-1.91536132812,-4.47715710449,-8.95431420898,1.0,0.0,0.0,0.0,1.0,0.0,0.0,0.0,1.0
1463662609321605815,822,1463662609307576876,,23.993062973,-5.45515012741,-147.600799561,0.00982800032943,1.0,0.0,0.0,0.0,1.0,0.0,0.0,0.0,1.0,136.707321167,16.158536911,14.1463422775,1.0,0.0,0.0,0.0,1.0,0.0,0.0,0.0,1.0,-1.57538469238,-4.80755722585,-8.68616362305,1.0,0.0,0.0,0.0,1.0,0.0,0.0,0.0,1.0
1463662609322022805,823,1463662609318729913,,25.3255996704,-5.37607908249,-147.389266968,0.0101020000875,1.0,0.0,0.0,0.0,1.0,0.0,0.0,0.0,1.0,132.012207031,13.048781395,14.1463422775,1.0,0.0,0.0,0.0,1.0,0.0,0.0,0.0,1.0,-1.0534486574,-5.46356818848,-8.44195446919,1.0,0.0,0.0,0.0,1.0,0.0,0.0,0.0,1.0
1463662609334241628,824,1463662609328297138,,26.5859069824,-5.32518625259,-147.19203186,0.0101239997894,1.0,0.0,0.0,0.0,1.0,0.0,0.0,0.0,1.0,125.0,10.0609760284,13.7195129395,1.0,0.0,0.0,0.0,1.0,0.0,0.0,0.0,1.0,-1.08217922346,-5.98550415039,-8.99262143555,1.0,0.0,0.0,0.0,1.0,0.0,0.0,0.0,1.0
1463662609343349096,825,1463662609338323442,,27.7488555908,-5.30570363998,-147.011993408,0.0100959995762,1.0,0.0,0.0,0.0,1.0,0.0,0.0,0.0,1.0,115.853660583,6.64634132385,13.4756097794,1.0,0.0,0.0,0.0,1.0,0.0,0.0,0.0,1.0,-1.01035310059,-6.04296499023,-8.76756647949,1.0,0.0,0.0,0.0,1.0,0.0,0.0,0.0,1.0
1463662609355191456,826,1463662609348028761,,28.8190612793,-5.30709934235,-146.85874939,0.0100929997861,1.0,0.0,0.0,0.0,1.0,0.0,0.0,0.0,1.0,107.743904114,3.71951246262,11.8902444839,1.0,0.0,0.0,0.0,1.0,0.0,0.0,0.0,1.0,-0.957680664062,-5.83227524414,-8.51378168804,1.0,0.0,0.0,0.0,1.0,0.0,0.0,0.0,1.0
1463662609382407698,827,1463662609358503987,,29.8287086487,-5.34466123581,-146.728179932,0.010150000453,1.0,0.0,0.0,0.0,1.0,0.0,0.0,0.0,1.0,100.487808228,-0.426829278469,11.6463422775,1.0,0.0,0.0,0.0,1.0,0.0,0.0,0.0,1.0,-0.905008227539,-5.97592734375,-8.23126530762,1.0,0.0,0.0,0.0,1.0,0.0,0.0,0.0,1.0
1463662609383958609,828,1463662609369532057,,30.7563114166,-5.42059850693,-146.617752075,0.010161999613,1.0,0.0,0.0,0.0,1.0,0.0,0.0,0.0,1.0,92.5000076294,-3.84146332741,11.4024391174,1.0,0.0,0.0,0.0,1.0,0.0,0.0,0.0,1.0,-1.01992990723,-5.92804331055,-7.97747993164,1.0,0.0,0.0,0.0,1.0,0.0,0.0,0.0,1.0
1463662609384086337,829,1463662609378926808,,31.6249389648,-5.52477884293,-146.518829346,0.0102070001885,1.0,0.0,0.0,0.0,1.0,0.0,0.0,0.0,1.0,86.4634170532,-6.70731735229,11.8902444839,1.0,0.0,0.0,0.0,1.0,0.0,0.0,0.0,1.0,-0.943315454102,-5.63595070801,-7.39808312988,1.0,0.0,0.0,0.0,1.0,0.0,0.0,0.0,1.0
1463662609584969460,830,1463662609388579931,,32.4240722656,-5.66706371307,-146.452728271,0.00989099964499,1.0,0.0,0.0,0.0,1.0,0.0,0.0,0.0,1.0,81.4634170532,-9.87804889679,10.6097564697,1.0,0.0,0.0,0.0,1.0,0.0,0.0,0.0,1.0,-1.35990654297,-6.08606062012,-7.6135612793,1.0,0.0,0.0,0.0,1.0,0.0,0.0,0.0,1.0
1463662609587937460,831,1463662609399383749,,33.2182693481,-5.83753824234,-146.413162231,0.0104539999738,1.0,0.0,0.0,0.0,1.0,0.0,0.0,0.0,1.0,74.9390258789,-12.8658542633,9.51219558716,1.0,0.0,0.0,0.0,1.0,0.0,0.0,0.0,1.0,-1.39821376953,-6.53617053223,-7.54173522949,1.0,0.0,0.0,0.0,1.0,0.0,0.0,0.0,1.0
1463662609589098260,832,1463662609409390051,,33.8923416138,-5.98868608475,-146.393463135,0.00994400028139,1.0,0.0,0.0,0.0,1.0,0.0,0.0,0.0,1.0,67.3170776367,-12.7439022064,7.43902492523,1.0,0.0,0.0,0.0,1.0,0.0,0.0,0.0,1.0,-1.46525141602,-6.63193859863,-7.64229169922,1.0,0.0,0.0,0.0,1.0,0.0,0.0,0.0,1.0
1463662609590841700,833,1463662609419116622,,34.4837417603,-6.16448640823,-146.38760376,0.00990500021726,1.0,0.0,0.0,0.0,1.0,0.0,0.0,0.0,1.0,60.6097564697,-15.0000009537,7.31707334518,1.0,0.0,0.0,0.0,1.0,0.0,0.0,0.0,1.0,-1.56580788574,-6.26323154297,-7.44117875977,1.0,0.0,0.0,0.0,1.0,0.0,0.0,0.0,1.0
1463662609593631184,834,1463662609430245437,,35.0427284241,-6.32764387131,-146.394943237,0.0100940000266,1.0,0.0,0.0,0.0,1.0,0.0,0.0,0.0,1.0,55.0,-14.3292694092,5.60975599289,1.0,0.0,0.0,0.0,1.0,0.0,0.0,0.0,1.0,-1.56101948242,-6.40688364258,-7.14908615723,1.0,0.0,0.0,0.0,1.0,0.0,0.0,0.0,1.0
1463662609593986862,835,1463662609438820220,,35.5581703186,-6.49849748611,-146.425674438,0.0100999996066,1.0,0.0,0.0,0.0,1.0,0.0,0.0,0.0,1.0,49.5121955872,-14.9390249252,3.53658556938,1.0,0.0,0.0,0.0,1.0,0.0,0.0,0.0,1.0,-1.84832368164,-6.61757338867,-7.0006456543,1.0,0.0,0.0,0.0,1.0,0.0,0.0,0.0,1.0
1463662609594242161,836,1463662609451789938,,35.9926261902,-6.63952684402,-146.471969604,0.0101229995489,1.0,0.0,0.0,0.0,1.0,0.0,0.0,0.0,1.0,40.5487823486,-14.1463422775,1.34146344662,1.0,0.0,0.0,0.0,1.0,0.0,0.0,0.0,1.0,-1.69030637207,-6.75164868164,-6.85220515137,1.0,0.0,0.0,0.0,1.0,0.0,0.0,0.0,1.0
1463662609594499440,837,1463662609459411348,,36.32472229,-6.78584527969,-146.515029907,0.0100880004466,1.0,0.0,0.0,0.0,1.0,0.0,0.0,0.0,1.0,32.134147644,-14.2073173523,1.64634156227,1.0,0.0,0.0,0.0,1.0,0.0,0.0,0.0,1.0,-1.77649763184,-6.58405456543,-6.96233842773,1.0,0.0,0.0,0.0,1.0,0.0,0.0,0.0,1.0
1463662609594788337,838,1463662609470711960,,36.5664367676,-6.9156088829,-146.562133789,0.0101309996098,1.0,0.0,0.0,0.0,1.0,0.0,0.0,0.0,1.0,21.9512195587,-12.8658542633,0.426829278469,1.0,0.0,0.0,0.0,1.0,0.0,0.0,0.0,1.0,-1.80043964844,-6.68461103516,-6.7181298584,1.0,0.0,0.0,0.0,1.0,0.0,0.0,0.0,1.0
1463662609594832615,839,1463662609479377746,,36.723777771,-7.0346288681,-146.618103027,0.0100560002029,1.0,0.0,0.0,0.0,1.0,0.0,0.0,0.0,1.0,14.5121955872,-12.9268293381,-0.731707334518,1.0,0.0,0.0,0.0,1.0,0.0,0.0,0.0,1.0,-1.81001645508,-6.75164868164,-6.95276162109,1.0,0.0,0.0,0.0,1.0,0.0,0.0,0.0,1.0
1463662609594869860,840,1463662609489453485,,36.7970314026,-7.12334108353,-146.693313599,0.0101309996098,1.0,0.0,0.0,0.0,1.0,0.0,0.0,0.0,1.0,5.67073154449,-11.8292684555,-3.7804877758,1.0,0.0,0.0,0.0,1.0,0.0,0.0,0.0,1.0,-1.72861359863,-6.65109221191,-6.7660138916,1.0,0.0,0.0,0.0,1.0,0.0,0.0,0.0,1.0
1463662609595132296,841,1463662609500212088,,36.7763748169,-7.20954275131,-146.77355957,0.0101049998775,1.0,0.0,0.0,0.0,1.0,0.0,0.0,0.0,1.0,-3.10975623131,-10.9146347046,-5.18292713165,1.0,0.0,0.0,0.0,1.0,0.0,0.0,0.0,1.0,-1.99197578125,-6.63193859863,-6.86178195801,1.0,0.0,0.0,0.0,1.0,0.0,0.0,0.0,1.0
1463662609595400774,842,1463662609510126865,,36.6767578125,-7.25823545456,-146.860977173,0.0101199997589,1.0,0.0,0.0,0.0,1.0,0.0,0.0,0.0,1.0,-10.9756097794,-8.71951198578,-7.68292665482,1.0,0.0,0.0,0.0,1.0,0.0,0.0,0.0,1.0,-1.92014973145,-6.61278498535,-6.85699355469,1.0,0.0,0.0,0.0,1.0,0.0,0.0,0.0,1.0
1463662609595662219,843,1463662609519933084,,36.5110969543,-7.30453824997,-146.954498291,0.0100649995729,1.0,0.0,0.0,0.0,1.0,0.0,0.0,0.0,1.0,-17.7439022064,-7.74390268326,-9.20731735229,1.0,0.0,0.0,0.0,1.0,0.0,0.0,0.0,1.0,-2.15957004359,-6.53138212891,-6.77080229492,1.0,0.0,0.0,0.0,1.0,0.0,0.0,0.0,1.0
1463662609595943199,844,1463662609530080397,,36.2707252502,-7.30199289322,-147.056991577,0.010158999823,1.0,0.0,0.0,0.0,1.0,0.0,0.0,0.0,1.0,-24.4512195587,-5.06097555161,-12.2560977936,1.0,0.0,0.0,0.0,1.0,0.0,0.0,0.0,1.0,-2.01591779785,-6.45476767578,-6.88572397461,1.0,0.0,0.0,0.0,1.0,0.0,0.0,0.0,1.0
1463662609596199227,845,1463662609540061330,,35.9638214111,-7.295753479,-147.165130615,0.0100659998134,1.0,0.0,0.0,0.0,1.0,0.0,0.0,0.0,1.0,-30.3048782349,-3.7804877758,-14.1463422775,1.0,0.0,0.0,0.0,1.0,0.0,0.0,0.0,1.0,-2.35589428746,-6.38294162598,-7.12993254395,1.0,0.0,0.0,0.0,1.0,0.0,0.0,0.0,1.0
1463662609596445567,846,1463662609551069918,,35.5663948059,-7.24254655838,-147.280059814,0.0105799995363,1.0,0.0,0.0,0.0,1.0,0.0,0.0,0.0,1.0,-37.134147644,-1.09756100178,-16.2195110321,1.0,0.0,0.0,0.0,1.0,0.0,0.0,0.0,1.0,-2.19787712402,-6.41646044922,-7.32146867676,1.0,0.0,0.0,0.0,1.0,0.0,0.0,0.0,1.0
1463662609596699615,847,1463662609559957144,,35.1551322937,-7.17182731628,-147.390625,0.00958199985325,1.0,0.0,0.0,0.0,1.0,0.0,0.0,0.0,1.0,-42.682926178,0.548780500889,-18.1097564697,1.0,0.0,0.0,0.0,1.0,0.0,0.0,0.0,1.0,-2.21224233398,-6.44519086914,-7.4268135498,1.0,0.0,0.0,0.0,1.0,0.0,0.0,0.0,1.0
1463662609597303613,848,1463662609570535720,,34.6609954834,-7.04928255081,-147.521514893,0.010161999613,1.0,0.0,0.0,0.0,1.0,0.0,0.0,0.0,1.0,-49.0853652954,2.62195134163,-20.975610733,1.0,0.0,0.0,0.0,1.0,0.0,0.0,0.0,1.0,-1.93451494141,-6.44519086914,-7.39329472656,1.0,0.0,0.0,0.0,1.0,0.0,0.0,0.0,1.0
1463662610270061843,849,1463662609581680787,,34.1121292114,-6.92049789429,-147.659744263,0.0100840004161,1.0,0.0,0.0,0.0,1.0,0.0,0.0,0.0,1.0,-55.365852356,3.35365867615,-22.2560977936,1.0,0.0,0.0,0.0,1.0,0.0,0.0,0.0,1.0,-2.03507141113,-6.54095893555,-7.52258161621,1.0,0.0,0.0,0.0,1.0,0.0,0.0,0.0,1.0
1463662610270346000,850,1463662609591355684,,33.5070915222,-6.76458454132,-147.807525635,0.0100779999048,1.0,0.0,0.0,0.0,1.0,0.0,0.0,0.0,1.0,-60.7317085266,4.32926845551,-23.9024391174,1.0,0.0,0.0,0.0,1.0,0.0,0.0,0.0,1.0,-1.81959326172,-6.44997927246,-7.6614453125,1.0,0.0,0.0,0.0,1.0,0.0,0.0,0.0,1.0
1463662610271574467,851,1463662609601151902,,32.8330841064,-6.59776735306,-147.970489502,0.0101070003584,1.0,0.0,0.0,0.0,1.0,0.0,0.0,0.0,1.0,-66.4634170532,3.96341490746,-25.3048782349,1.0,0.0,0.0,0.0,1.0,0.0,0.0,0.0,1.0,-1.65678754883,-6.2009822998,-7.82903942871,1.0,0.0,0.0,0.0,1.0,0.0,0.0,0.0,1.0
1463662610271946606,852,1463662609611773817,,32.105506897,-6.42673015594,-148.147232056,0.0101220002398,1.0,0.0,0.0,0.0,1.0,0.0,0.0,0.0,1.0,-71.0975646973,3.10975623131,-26.158536911,1.0,0.0,0.0,0.0,1.0,0.0,0.0,0.0,1.0,-1.4604630127,-5.94719692383,-7.89128867187,1.0,0.0,0.0,0.0,1.0,0.0,0.0,0.0,1.0
1463662610272210031,853,1463662609622491893,,31.33685112,-6.25451040268,-148.347061157,0.0101600000635,1.0,0.0,0.0,0.0,1.0,0.0,0.0,0.0,1.0,-76.4024353027,1.2804877758,-27.1341457367,1.0,0.0,0.0,0.0,1.0,0.0,0.0,0.0,1.0,-1.25935007324,-6.35899960937,-8.2504189209,1.0,0.0,0.0,0.0,1.0,0.0,0.0,0.0,1.0
1463662610272506899,854,1463662609631729120,,30.5234985352,-6.10171365738,-148.555358887,0.0100239999592,1.0,0.0,0.0,0.0,1.0,0.0,0.0,0.0,1.0,-82.2560958862,-0.365853667259,-27.1341457367,1.0,0.0,0.0,0.0,1.0,0.0,0.0,0.0,1.0,-1.24019645996,-6.32548078613,-8.34618640278,1.0,0.0,0.0,0.0,1.0,0.0,0.0,0.0,1.0
1463662610272556281,855,1463662609641575605,,29.6373252869,-5.95815467834,-148.784011841,0.010153000243,1.0,0.0,0.0,0.0,1.0,0.0,0.0,0.0,1.0,-88.9024353027,-2.43902444839,-27.6219520569,1.0,0.0,0.0,0.0,1.0,0.0,0.0,0.0,1.0,-1.07739082014,-6.28717355957,-8.43237766255,1.0,0.0,0.0,0.0,1.0,0.0,0.0,0.0,1.0
1463662610272599205,856,1463662609653041450,,28.693025589,-5.85353660583,-149.023605347,0.0100459996611,1.0,0.0,0.0,0.0,1.0,0.0,0.0,0.0,1.0,-93.6585388184,-5.60975599289,-27.3780498505,1.0,0.0,0.0,0.0,1.0,0.0,0.0,0.0,1.0,-1.12527478027,-5.72693037109,-8.58081933452,1.0,0.0,0.0,0.0,1.0,0.0,0.0,0.0,1.0
1463662610272848669,857,1463662609661604930,,27.7107009888,-5.77093839645,-149.27116394,0.0100940000266,1.0,0.0,0.0,0.0,1.0,0.0,0.0,0.0,1.0,-95.1219558716,-6.09756088257,-27.9268302917,1.0,0.0,0.0,0.0,1.0,0.0,0.0,0.0,1.0,-1.40300217285,-5.23851323242,-8.77235488281,1.0,0.0,0.0,0.0,1.0,0.0,0.0,0.0,1.0
1463662610273120533,858,1463662609673795207,,26.727519989,-5.70958375931,-149.529159546,0.010095000267,1.0,0.0,0.0,0.0,1.0,0.0,0.0,0.0,1.0,-94.7561035156,-7.50000047684,-28.2317066193,1.0,0.0,0.0,0.0,1.0,0.0,0.0,0.0,1.0,-1.5083470459,-5.04697709961,-8.98304462891,1.0,0.0,0.0,0.0,1.0,0.0,0.0,0.0,1.0
1463662610273456730,859,1463662609682541370,,25.7425022125,-5.65494966507,-149.792449951,0.0102009996772,1.0,0.0,0.0,0.0,1.0,0.0,0.0,0.0,1.0,-94.5121917725,-7.74390268326,-28.1707324982,1.0,0.0,0.0,0.0,1.0,0.0,0.0,0.0,1.0,-1.5083470459,-4.99909306641,-9.04050546875,1.0,0.0,0.0,0.0,1.0,0.0,0.0,0.0,1.0
