%time,field.header.seq,field.header.stamp,field.header.frame_id,field.orientation.x,field.orientation.y,field.orientation.z,field.orientation.w,field.orientation_covariance0,field.orientation_covariance1,field.orientation_covariance2,field.orientation_covariance3,field.orientation_covariance4,field.orientation_covariance5,field.orientation_covariance6,field.orientation_covariance7,field.orientation_covariance8,field.angular_velocity.x,field.angular_velocity.y,field.angular_velocity.z,field.angular_velocity_covariance0,field.angular_velocity_covariance1,field.angular_velocity_covariance2,field.angular_velocity_covariance3,field.angular_velocity_covariance4,field.angular_velocity_covariance5,field.angular_velocity_covariance6,field.angular_velocity_covariance7,field.angular_velocity_covariance8,field.linear_acceleration.x,field.linear_acceleration.y,field.linear_acceleration.z,field.linear_acceleration_covariance0,field.linear_acceleration_covariance1,field.linear_acceleration_covariance2,field.linear_acceleration_covariance3,field.linear_acceleration_covariance4,field.linear_acceleration_covariance5,field.linear_acceleration_covariance6,field.linear_acceleration_covariance7,field.linear_acceleration_covariance8
1463470365481229784,355,1463470365294640513,,-1.36767530441,-6.3010263443,-97.3444900513,0.0104860002175,1.0,0.0,0.0,0.0,1.0,0.0,0.0,0.0,1.0,5.18292713165,-17.5609760284,-6.0365858078,1.0,0.0,0.0,0.0,1.0,0.0,0.0,0.0,1.0,0.0430956298828,-1.12048637695,-11.3006318359,1.0,0.0,0.0,0.0,1.0,0.0,0.0,0.0,1.0
1463470365481267961,356,1463470365300720761,,-1.46859931946,-6.37769079208,-97.5977630615,0.0146970003843,1.0,0.0,0.0,0.0,1.0,0.0,0.0,0.0,1.0,5.97560977936,-16.158536911,-7.13414621353,1.0,0.0,0.0,0.0,1.0,0.0,0.0,0.0,1.0,0.344765039063,-0.794874951172,-11.1713449463,1.0,0.0,0.0,0.0,1.0,0.0,0.0,0.0,1.0
1463470365481303743,357,1463470365304686951,,-1.50484979153,-6.41313934326,-97.7118301392,0.00648400001228,1.0,0.0,0.0,0.0,1.0,0.0,0.0,0.0,1.0,7.25609779358,-15.9146347046,-7.50000047684,1.0,0.0,0.0,0.0,1.0,0.0,0.0,0.0,1.0,0.234631762695,-0.756567724609,-11.0803652832,1.0,0.0,0.0,0.0,1.0,0.0,0.0,0.0,1.0
1463470365482311866,358,1463470365313815319,,-1.53315758705,-6.46490764618,-97.8741226196,0.00831199996173,1.0,0.0,0.0,0.0,1.0,0.0,0.0,0.0,1.0,9.14634132385,-15.1219511032,-9.39024448395,1.0,0.0,0.0,0.0,1.0,0.0,0.0,0.0,1.0,-0.067037651051,-0.76614453125,-11.1330377197,1.0,0.0,0.0,0.0,1.0,0.0,0.0,0.0,1.0
1463470365482440772,359,1463470365322365667,,-1.53710877895,-6.53016710281,-98.0928497314,0.0100130001083,1.0,0.0,0.0,0.0,1.0,0.0,0.0,0.0,1.0,11.7073173523,-14.3292694092,-11.6463422775,1.0,0.0,0.0,0.0,1.0,0.0,0.0,0.0,1.0,-0.277727392578,-0.794874951172,-11.1330377197,1.0,0.0,0.0,0.0,1.0,0.0,0.0,0.0,1.0
1463470365482486501,360,1463470365332317887,,-1.53755962849,-6.58222198486,-98.3244018555,0.00997500028461,1.0,0.0,0.0,0.0,1.0,0.0,0.0,0.0,1.0,13.1097564697,-13.3536586761,-13.1097564697,1.0,0.0,0.0,0.0,1.0,0.0,0.0,0.0,1.0,-0.229843359375,-0.574608398438,-11.6406084717,1.0,0.0,0.0,0.0,1.0,0.0,0.0,0.0,1.0
1463470365482527490,361,1463470365342472034,,-1.53381741047,-6.62865686417,-98.5597991943,0.010037000291,1.0,0.0,0.0,0.0,1.0,0.0,0.0,0.0,1.0,14.9390249252,-14.3902444839,-13.5365858078,1.0,0.0,0.0,0.0,1.0,0.0,0.0,0.0,1.0,0.100556469727,-0.282515795898,-12.0763531738,1.0,0.0,0.0,0.0,1.0,0.0,0.0,0.0,1.0
1463470365482567334,362,1463470365352655608,,-1.48826277256,-6.68964958191,-98.8046035767,0.0100800003856,1.0,0.0,0.0,0.0,1.0,0.0,0.0,0.0,1.0,16.4024391174,-15.6097564697,-14.0853662491,1.0,0.0,0.0,0.0,1.0,0.0,0.0,0.0,1.0,0.0526724365234,-0.842758984375,-12.1577560303,1.0,0.0,0.0,0.0,1.0,0.0,0.0,0.0,1.0
1463470365482616136,363,1463470365362318297,,-1.42529976368,-6.77419233322,-99.0480804443,0.0098959999159,1.0,0.0,0.0,0.0,1.0,0.0,0.0,0.0,1.0,16.9512195587,-19.2073173523,-14.3292694092,1.0,0.0,0.0,0.0,1.0,0.0,0.0,0.0,1.0,0.282515795898,-1.13485158691,-12.3014081299,1.0,0.0,0.0,0.0,1.0,0.0,0.0,0.0,1.0
1463470365482678011,364,1463470365372339945,,-1.35459792614,-6.88550424576,-99.2863998413,0.0100349998102,1.0,0.0,0.0,0.0,1.0,0.0,0.0,0.0,1.0,15.7926826477,-22.1341457367,-13.2926826477,1.0,0.0,0.0,0.0,1.0,0.0,0.0,0.0,1.0,0.335188232422,-1.53707746582,-12.0141039307,1.0,0.0,0.0,0.0,1.0,0.0,0.0,0.0,1.0
1463470365482728636,365,1463470365382330967,,-1.30221819878,-7.02586555481,-99.5036315918,0.00995699968189,1.0,0.0,0.0,0.0,1.0,0.0,0.0,0.0,1.0,14.6341466904,-25.2439041138,-11.4634151459,1.0,0.0,0.0,0.0,1.0,0.0,0.0,0.0,1.0,0.320823022461,-1.47003981934,-12.138602417,1.0,0.0,0.0,0.0,1.0,0.0,0.0,0.0,1.0
1463470365482801396,366,1463470365392462405,,-1.26789700985,-7.1997961998,-99.7109603882,0.0100170001388,1.0,0.0,0.0,0.0,1.0,0.0,0.0,0.0,1.0,14.8170728683,-27.8048782349,-10.6097564697,1.0,0.0,0.0,0.0,1.0,0.0,0.0,0.0,1.0,0.119710083008,-1.03908344744,-11.9614314941,1.0,0.0,0.0,0.0,1.0,0.0,0.0,0.0,1.0
1463470365482839833,367,1463470365402798479,,-1.22279667854,-7.40330314636,-99.9046707153,0.0103219999,1.0,0.0,0.0,0.0,1.0,0.0,0.0,0.0,1.0,16.158536911,-29.3902435303,-8.71951198578,1.0,0.0,0.0,0.0,1.0,0.0,0.0,0.0,1.0,-0.0909796630859,-0.967257470703,-11.5831476318,1.0,0.0,0.0,0.0,1.0,0.0,0.0,0.0,1.0
1463470365482900146,368,1463470365412510283,,-1.16414880753,-7.58933258057,-100.084754944,0.00974200014025,1.0,0.0,0.0,0.0,1.0,0.0,0.0,0.0,1.0,17.9268302917,-29.8170719147,-8.41463470459,1.0,0.0,0.0,0.0,1.0,0.0,0.0,0.0,1.0,0.076614453125,-0.92416184082,-11.3054202393,1.0,0.0,0.0,0.0,1.0,0.0,0.0,0.0,1.0
1463470365482946604,369,1463470365422818232,,-1.03834462166,-7.81422758102,-100.277572632,0.0102469995618,1.0,0.0,0.0,0.0,1.0,0.0,0.0,0.0,1.0,21.0975627899,-30.7317066193,-8.29268264771,1.0,0.0,0.0,0.0,1.0,0.0,0.0,0.0,1.0,-0.354341845703,-1.57538469238,-11.4921679687,1.0,0.0,0.0,0.0,1.0,0.0,0.0,0.0,1.0
1463470365482990250,370,1463470365433513159,,-0.915034711361,-8.02860164642,-100.470291138,0.0103010004386,1.0,0.0,0.0,0.0,1.0,0.0,0.0,0.0,1.0,21.0365848541,-29.9390258789,-8.10975551605,1.0,0.0,0.0,0.0,1.0,0.0,0.0,0.0,1.0,-0.335188232422,-1.52271225586,-11.3772462891,1.0,0.0,0.0,0.0,1.0,0.0,0.0,0.0,1.0
1463470365483032698,371,1463470365443171786,,-0.803674697876,-8.21868228912,-100.649665833,0.00939000025392,1.0,0.0,0.0,0.0,1.0,0.0,0.0,0.0,1.0,20.4878044128,-29.8170719147,-8.35365867615,1.0,0.0,0.0,0.0,1.0,0.0,0.0,0.0,1.0,-0.296881024126,-1.64242233887,-11.5687824219,1.0,0.0,0.0,0.0,1.0,0.0,0.0,0.0,1.0
1463470365483539103,372,1463470365452752080,,-0.718277931213,-8.41544532776,-100.834274292,0.0101720001549,1.0,0.0,0.0,0.0,1.0,0.0,0.0,0.0,1.0,17.9268302917,-29.2682933807,-7.43902492523,1.0,0.0,0.0,0.0,1.0,0.0,0.0,0.0,1.0,-0.272938989258,-1.47961662598,-11.4921679687,1.0,0.0,0.0,0.0,1.0,0.0,0.0,0.0,1.0
1463470365484150925,373,1463470365462685498,,-0.681724429131,-8.59590435028,-100.992507935,0.00991499982774,1.0,0.0,0.0,0.0,1.0,0.0,0.0,0.0,1.0,14.2682924271,-27.2560977936,-5.30487823486,1.0,0.0,0.0,0.0,1.0,0.0,0.0,0.0,1.0,-0.512359155273,-1.35990654297,-11.7172229248,1.0,0.0,0.0,0.0,1.0,0.0,0.0,0.0,1.0
1463470365484779153,374,1463470365472819488,,-0.662137627602,-8.76092433929,-101.166412354,0.0100260004401,1.0,0.0,0.0,0.0,1.0,0.0,0.0,0.0,1.0,11.341463089,-25.4268302917,-6.46341466904,1.0,0.0,0.0,0.0,1.0,0.0,0.0,0.0,1.0,-0.550666381836,-1.5322890625,-11.4442839355,1.0,0.0,0.0,0.0,1.0,0.0,0.0,0.0,1.0
1463470365488231594,375,1463470365485269516,,-0.65409129858,-8.92647266388,-101.4375,0.0125949997455,1.0,0.0,0.0,0.0,1.0,0.0,0.0,0.0,1.0,7.31707334518,-21.8292694092,-10.1829271317,1.0,0.0,0.0,0.0,1.0,0.0,0.0,0.0,1.0,-0.603338854892,-1.89141931152,-11.01811604,1.0,0.0,0.0,0.0,1.0,0.0,0.0,0.0,1.0
1463470365494258249,376,1463470365492455231,,-0.668512403965,-8.99769306183,-101.610137939,0.00728800008073,1.0,0.0,0.0,0.0,1.0,0.0,0.0,0.0,1.0,5.24390268326,-18.0487823486,-12.3780488968,1.0,0.0,0.0,0.0,1.0,0.0,0.0,0.0,1.0,-0.694318481445,-1.65678754883,-10.7116582275,1.0,0.0,0.0,0.0,1.0,0.0,0.0,0.0,1.0
1463470365504742343,377,1463470365502345212,,-0.696518242359,-9.04905128479,-101.895095825,0.0100189996883,1.0,0.0,0.0,0.0,1.0,0.0,0.0,0.0,1.0,2.98780488968,-14.0853662491,-16.8902435303,1.0,0.0,0.0,0.0,1.0,0.0,0.0,0.0,1.0,-0.550666381836,-1.75255561523,-10.5105452881,1.0,0.0,0.0,0.0,1.0,0.0,0.0,0.0,1.0
1463470365514449355,378,1463470365512321703,,-0.743696630001,-9.02219963074,-102.213935852,0.00997100025415,1.0,0.0,0.0,0.0,1.0,0.0,0.0,0.0,1.0,1.46341466904,-6.95121955872,-20.4268302917,1.0,0.0,0.0,0.0,1.0,0.0,0.0,0.0,1.0,-0.402225878906,-1.48919343262,-10.0508585693,1.0,0.0,0.0,0.0,1.0,0.0,0.0,0.0,1.0
1463470365524452669,379,1463470365522224340,,-0.804619014263,-8.95520114899,-102.572349548,0.0100119998679,1.0,0.0,0.0,0.0,1.0,0.0,0.0,0.0,1.0,0.792682945728,-2.01219511032,-24.3292694092,1.0,0.0,0.0,0.0,1.0,0.0,0.0,0.0,1.0,-0.555454785156,-1.2497732666,-10.0508585693,1.0,0.0,0.0,0.0,1.0,0.0,0.0,0.0,1.0
1463470365534694316,380,1463470365532221821,,-0.826677501202,-8.84190368652,-102.989570618,0.00997400004417,1.0,0.0,0.0,0.0,1.0,0.0,0.0,0.0,1.0,0.18292683363,3.65853667259,-29.6341457367,1.0,0.0,0.0,0.0,1.0,0.0,0.0,0.0,1.0,-0.675164868164,-1.8626888916,-9.77313117676,1.0,0.0,0.0,0.0,1.0,0.0,0.0,0.0,1.0
1463470365545010337,381,1463470365542838727,,-0.845103502274,-8.66611194611,-103.471847534,0.0100490003824,1.0,0.0,0.0,0.0,1.0,0.0,0.0,0.0,1.0,-1.34146344662,9.08536529541,-35.4878044128,1.0,0.0,0.0,0.0,1.0,0.0,0.0,0.0,1.0,-0.531512805087,-2.14520483363,-10.2136642822,1.0,0.0,0.0,0.0,1.0,0.0,0.0,0.0,1.0
1463470365554605006,382,1463470365552264281,,-0.901374995708,-8.45663642883,-103.988739014,0.0099670002237,1.0,0.0,0.0,0.0,1.0,0.0,0.0,0.0,1.0,-4.45121955872,13.9024391174,-39.4512214661,1.0,0.0,0.0,0.0,1.0,0.0,0.0,0.0,1.0,-0.742202514648,-1.96803376465,-10.4387192383,1.0,0.0,0.0,0.0,1.0,0.0,0.0,0.0,1.0
1463470365564222904,383,1463470365562248272,,-1.01142752171,-8.21648406982,-104.515617371,0.00999100040644,1.0,0.0,0.0,0.0,1.0,0.0,0.0,0.0,1.0,-8.84146404266,17.7439022064,-40.4268302917,1.0,0.0,0.0,0.0,1.0,0.0,0.0,0.0,1.0,-0.871489404297,-1.838746875,-10.7834842773,1.0,0.0,0.0,0.0,1.0,0.0,0.0,0.0,1.0
1463470365574198249,384,1463470365572271326,,-1.1625494957,-7.9448299408,-105.050537109,0.0100100003183,1.0,0.0,0.0,0.0,1.0,0.0,0.0,0.0,1.0,-12.5609760284,22.3780498505,-41.0975646973,1.0,0.0,0.0,0.0,1.0,0.0,0.0,0.0,1.0,-1.09175595703,-1.76213242187,-10.7164466309,1.0,0.0,0.0,0.0,1.0,0.0,0.0,0.0,1.0
1463470365583960886,385,1463470365582279900,,-1.32812261581,-7.65141296387,-105.60218811,0.0100029995665,1.0,0.0,0.0,0.0,1.0,0.0,0.0,0.0,1.0,-16.2804889679,27.0731716156,-42.3780517578,1.0,0.0,0.0,0.0,1.0,0.0,0.0,0.0,1.0,-1.51313544922,-2.24097275391,-10.8840407471,1.0,0.0,0.0,0.0,1.0,0.0,0.0,0.0,1.0
1463470365593788940,386,1463470365592318526,,-1.56937944889,-7.32937526703,-106.144210815,0.00998799968511,1.0,0.0,0.0,0.0,1.0,0.0,0.0,0.0,1.0,-20.3658542633,31.0975627899,-41.8292694092,1.0,0.0,0.0,0.0,1.0,0.0,0.0,0.0,1.0,-1.62326872559,-1.55144267578,-10.7547538574,1.0,0.0,0.0,0.0,1.0,0.0,0.0,0.0,1.0
1463470365603526005,387,1463470365602204965,,-1.84432601929,-6.95100641251,-106.670555115,0.00998300034553,1.0,0.0,0.0,0.0,1.0,0.0,0.0,0.0,1.0,-24.4512195587,35.9146347046,-39.9390258789,1.0,0.0,0.0,0.0,1.0,0.0,0.0,0.0,1.0,-1.34554133301,-1.72382519531,-10.6494089844,1.0,0.0,0.0,0.0,1.0,0.0,0.0,0.0,1.0
1463470365613486558,388,1463470365612151977,,-2.22104763985,-6.53723192215,-107.156478882,0.00999899953604,1.0,0.0,0.0,0.0,1.0,0.0,0.0,0.0,1.0,-29.3292694092,39.7560997009,-36.1585350037,1.0,0.0,0.0,0.0,1.0,0.0,0.0,0.0,1.0,-1.37427175293,-0.842758984375,-11.1282493164,1.0,0.0,0.0,0.0,1.0,0.0,0.0,0.0,1.0
1463470365624139610,389,1463470365622164718,,-2.63807535172,-6.09978914261,-107.595336914,0.0100029995665,1.0,0.0,0.0,0.0,1.0,0.0,0.0,0.0,1.0,-31.8902454376,42.6219520569,-31.2195129395,1.0,0.0,0.0,0.0,1.0,0.0,0.0,0.0,1.0,-1.35990654297,-0.646434448242,-11.0420580566,1.0,0.0,0.0,0.0,1.0,0.0,0.0,0.0,1.0
1463470365634273184,390,1463470365632278761,,-3.04656434059,-5.64309597015,-107.992973328,0.0100260004401,1.0,0.0,0.0,0.0,1.0,0.0,0.0,0.0,1.0,-33.1097564697,45.5487823486,-26.3414649963,1.0,0.0,0.0,0.0,1.0,0.0,0.0,0.0,1.0,-1.47003981934,-1.14921679688,-10.9941740234,1.0,0.0,0.0,0.0,1.0,0.0,0.0,0.0,1.0
1463470365644900403,391,1463470365642423429,,-3.46949577332,-5.17224645615,-108.358459473,0.0100570004433,1.0,0.0,0.0,0.0,1.0,0.0,0.0,0.0,1.0,-33.9024391174,46.2804908752,-22.7439041138,1.0,0.0,0.0,0.0,1.0,0.0,0.0,0.0,1.0,-1.26413847656,-1.09175595703,-11.0420580566,1.0,0.0,0.0,0.0,1.0,0.0,0.0,0.0,1.0
1463470365659383344,392,1463470365654114083,,-3.90333890915,-4.69282341003,-108.699279785,0.00994899962097,1.0,0.0,0.0,0.0,1.0,0.0,0.0,0.0,1.0,-32.1951217651,47.134147644,-20.6097564697,1.0,0.0,0.0,0.0,1.0,0.0,0.0,0.0,1.0,-1.03429511719,-0.445321508789,-10.9079827637,1.0,0.0,0.0,0.0,1.0,0.0,0.0,0.0,1.0
1463470365665807498,393,1463470365662754639,,-4.31092834473,-4.20739507675,-109.02507019,0.0100279999897,1.0,0.0,0.0,0.0,1.0,0.0,0.0,0.0,1.0,-28.3536586761,46.2804908752,-18.658536911,1.0,0.0,0.0,0.0,1.0,0.0,0.0,0.0,1.0,-0.732625708008,-0.277727392578,-11.1857101562,1.0,0.0,0.0,0.0,1.0,0.0,0.0,0.0,1.0
1463470365678254765,394,1463470365672855869,,-4.70280361176,-3.69144964218,-109.325508118,0.00995600037277,1.0,0.0,0.0,0.0,1.0,0.0,0.0,0.0,1.0,-21.7682933807,43.5365867615,-16.6463413239,1.0,0.0,0.0,0.0,1.0,0.0,0.0,0.0,1.0,0.574608398438,0.746990917969,-10.8744639404,1.0,0.0,0.0,0.0,1.0,0.0,0.0,0.0,1.0
1463470365685755480,395,1463470365682867152,,-5.01488304138,-3.19174790382,-109.593597412,0.010108999908,1.0,0.0,0.0,0.0,1.0,0.0,0.0,0.0,1.0,-12.7439022064,37.0731697083,-13.2926826477,1.0,0.0,0.0,0.0,1.0,0.0,0.0,0.0,1.0,1.42215578613,0.814028564453,-10.6637741943,1.0,0.0,0.0,0.0,1.0,0.0,0.0,0.0,1.0
1463470365695182857,396,1463470365692697654,,-5.25015735626,-2.7705373764,-109.80052948,0.00991600006819,1.0,0.0,0.0,0.0,1.0,0.0,0.0,0.0,1.0,-5.97560977936,30.3048782349,-8.04878044128,1.0,0.0,0.0,0.0,1.0,0.0,0.0,0.0,1.0,1.38863696289,0.694318481445,-10.524910498,1.0,0.0,0.0,0.0,1.0,0.0,0.0,0.0,1.0
1463470365705788982,397,1463470365702901644,,-5.40899562836,-2.43771934509,-109.953025818,0.00997500028461,1.0,0.0,0.0,0.0,1.0,0.0,0.0,0.0,1.0,0.853658556938,24.5121955872,-2.86585378647,1.0,0.0,0.0,0.0,1.0,0.0,0.0,0.0,1.0,0.751779321289,0.483628735352,-10.524910498,1.0,0.0,0.0,0.0,1.0,0.0,0.0,0.0,1.0
1463470365715241672,398,1463470365712506417,,-5.49609518051,-2.17433166504,-110.0573349,0.0100060002878,1.0,0.0,0.0,0.0,1.0,0.0,0.0,0.0,1.0,7.13414621353,21.8902435303,1.8292683363,1.0,0.0,0.0,0.0,1.0,0.0,0.0,0.0,1.0,-0.0909796630859,0.287304199219,-10.5153336914,1.0,0.0,0.0,0.0,1.0,0.0,0.0,0.0,1.0
1463470365725710662,399,1463470365722218482,,-5.54741191864,-1.93879497051,-110.106025696,0.00997699983418,1.0,0.0,0.0,0.0,1.0,0.0,0.0,0.0,1.0,10.7926826477,21.158536911,7.31707334518,1.0,0.0,0.0,0.0,1.0,0.0,0.0,0.0,1.0,-0.512359155273,0.277727392578,-10.6206785645,1.0,0.0,0.0,0.0,1.0,0.0,0.0,0.0,1.0
1463470365735084498,400,1463470365732353410,,-5.55417346954,-1.67582333088,-110.110328674,0.0100060002878,1.0,0.0,0.0,0.0,1.0,0.0,0.0,0.0,1.0,14.7560987473,21.5853652954,11.8292684555,1.0,0.0,0.0,0.0,1.0,0.0,0.0,0.0,1.0,-0.124498486328,0.15801730957,-10.3333743652,1.0,0.0,0.0,0.0,1.0,0.0,0.0,0.0,1.0
1463470365745282812,401,1463470365742697608,,-5.48591089249,-1.41896057129,-110.075553894,0.0101359998807,1.0,0.0,0.0,0.0,1.0,0.0,0.0,0.0,1.0,17.9878044128,20.4268302917,15.6707315445,1.0,0.0,0.0,0.0,1.0,0.0,0.0,0.0,1.0,-0.105344873047,-0.641646044922,-10.5488525146,1.0,0.0,0.0,0.0,1.0,0.0,0.0,0.0,1.0
1463470365754988105,402,1463470365752604412,,-5.4326543808,-1.17135572433,-109.99836731,0.00997100025415,1.0,0.0,0.0,0.0,1.0,0.0,0.0,0.0,1.0,18.3536586761,19.2073173523,19.7560977936,1.0,0.0,0.0,0.0,1.0,0.0,0.0,0.0,1.0,0.0,-0.330399829102,-10.299855542,1.0,0.0,0.0,0.0,1.0,0.0,0.0,0.0,1.0
1463470365765100533,403,1463470365762446164,,-5.35961103439,-0.937950849533,-109.907150269,0.0100220004097,1.0,0.0,0.0,0.0,1.0,0.0,0.0,0.0,1.0,17.6219520569,19.6341457367,21.158536911,1.0,0.0,0.0,0.0,1.0,0.0,0.0,0.0,1.0,-0.344765039063,-0.857124194336,-10.5967365479,1.0,0.0,0.0,0.0,1.0,0.0,0.0,0.0,1.0
1463470365776288012,404,1463470365772551092,,-5.29668283463,-0.726650834084,-109.8074646,0.00993600022048,1.0,0.0,0.0,0.0,1.0,0.0,0.0,0.0,1.0,16.2195110321,19.4512195587,22.0121955872,1.0,0.0,0.0,0.0,1.0,0.0,0.0,0.0,1.0,-0.622492431641,-0.900219824219,-9.97424411621,1.0,0.0,0.0,0.0,1.0,0.0,0.0,0.0,1.0
1463470365785151276,405,1463470365782324250,,-5.28976154327,-0.458998322487,-109.69506073,0.00994599983096,1.0,0.0,0.0,0.0,1.0,0.0,0.0,0.0,1.0,14.7560987473,21.4024391174,23.3536586761,1.0,0.0,0.0,0.0,1.0,0.0,0.0,0.0,1.0,0.0430956298828,-0.143652099609,-9.16500395508,1.0,0.0,0.0,0.0,1.0,0.0,0.0,0.0,1.0
1463470365795000579,406,1463470365792614959,,-5.30188083649,-0.215145066381,-109.598205566,0.0100769996643,1.0,0.0,0.0,0.0,1.0,0.0,0.0,0.0,1.0,17.3780498505,21.2804889679,21.5853652954,1.0,0.0,0.0,0.0,1.0,0.0,0.0,0.0,1.0,-0.335188232422,0.651222851562,-9.98382092285,1.0,0.0,0.0,0.0,1.0,0.0,0.0,0.0,1.0
1463470365805659257,407,1463470365802697752,,-5.23046970367,0.0580493621528,-109.543731689,0.00993900001049,1.0,0.0,0.0,0.0,1.0,0.0,0.0,0.0,1.0,21.4634151459,21.8292694092,17.5000019073,1.0,0.0,0.0,0.0,1.0,0.0,0.0,0.0,1.0,0.210689746094,-0.0814028564453,-8.11634362793,1.0,0.0,0.0,0.0,1.0,0.0,0.0,0.0,1.0
1463470365815555800,408,1463470365812405962,,-5.11002159119,0.344657897949,-109.536705017,0.0100090000778,1.0,0.0,0.0,0.0,1.0,0.0,0.0,0.0,1.0,25.975610733,23.5975627899,12.8048782349,1.0,0.0,0.0,0.0,1.0,0.0,0.0,0.0,1.0,0.215478149414,-0.134075302102,-7.80988581543,1.0,0.0,0.0,0.0,1.0,0.0,0.0,0.0,1.0
1463470365825330104,409,1463470365822376568,,-4.94059038162,0.628942191601,-109.586334229,0.00997400004417,1.0,0.0,0.0,0.0,1.0,0.0,0.0,0.0,1.0,29.3902435303,22.1951236725,6.89024400711,1.0,0.0,0.0,0.0,1.0,0.0,0.0,0.0,1.0,0.521935925381,-0.387860668945,-8.12113203125,1.0,0.0,0.0,0.0,1.0,0.0,0.0,0.0,1.0
1463470365835857010,410,1463470365832647694,,-4.7437081337,0.918902635574,-109.684005737,0.00999800022691,1.0,0.0,0.0,0.0,1.0,0.0,0.0,0.0,1.0,31.8902454376,21.9512195587,1.95121955872,1.0,0.0,0.0,0.0,1.0,0.0,0.0,0.0,1.0,0.708683691406,-0.445321508789,-7.90086547852,1.0,0.0,0.0,0.0,1.0,0.0,0.0,0.0,1.0
1463470365845174180,411,1463470365842359706,,-4.50171327591,1.17664504051,-109.839118958,0.00999599974602,1.0,0.0,0.0,0.0,1.0,0.0,0.0,0.0,1.0,34.1463432312,21.2195129395,-4.02439022064,1.0,0.0,0.0,0.0,1.0,0.0,0.0,0.0,1.0,0.483628735352,-0.852335791016,-8.2743609375,1.0,0.0,0.0,0.0,1.0,0.0,0.0,0.0,1.0
1463470365855585149,412,1463470365852645050,,-4.24870014191,1.4078990221,-110.034729004,0.0099950004369,1.0,0.0,0.0,0.0,1.0,0.0,0.0,0.0,1.0,34.817073822,18.841463089,-8.41463470459,1.0,0.0,0.0,0.0,1.0,0.0,0.0,0.0,1.0,0.521935925381,-0.981622680664,-8.30787917622,1.0,0.0,0.0,0.0,1.0,0.0,0.0,0.0,1.0
1463470365865189453,413,1463470365862523625,,-3.9826362133,1.63289916515,-110.273773193,0.0100079998374,1.0,0.0,0.0,0.0,1.0,0.0,0.0,0.0,1.0,35.0609741211,17.5609760284,-12.9878053665,1.0,0.0,0.0,0.0,1.0,0.0,0.0,0.0,1.0,0.689530078125,-1.21625444336,-8.36534001606,1.0,0.0,0.0,0.0,1.0,0.0,0.0,0.0,1.0
1463470365875292506,414,1463470365872679647,,-3.71138763428,1.85311198235,-110.55216217,0.0100130001083,1.0,0.0,0.0,0.0,1.0,0.0,0.0,0.0,1.0,35.3048782349,14.5731706619,-17.2560977936,1.0,0.0,0.0,0.0,1.0,0.0,0.0,0.0,1.0,1.11569797363,-1.32638771973,-8.2743609375,1.0,0.0,0.0,0.0,1.0,0.0,0.0,0.0,1.0
1463470365884785352,415,1463470365882343482,,-3.43503689766,2.02986645699,-110.851760864,0.00999999977648,1.0,0.0,0.0,0.0,1.0,0.0,0.0,0.0,1.0,33.9634132385,11.0365858078,-19.817073822,1.0,0.0,0.0,0.0,1.0,0.0,0.0,0.0,1.0,1.07260241682,-1.74297880859,-8.55687731792,1.0,0.0,0.0,0.0,1.0,0.0,0.0,0.0,1.0
1463470365898249805,416,1463470365893094242,,-3.20049858093,2.1773724556,-111.171676636,0.0100840004161,1.0,0.0,0.0,0.0,1.0,0.0,0.0,0.0,1.0,30.6097583771,6.82926845551,-21.8902435303,1.0,0.0,0.0,0.0,1.0,0.0,0.0,0.0,1.0,1.29286889648,-1.67115275879,-8.66701059429,1.0,0.0,0.0,0.0,1.0,0.0,0.0,0.0,1.0
1463470365905665155,417,1463470365902777765,,-2.97435808182,2.29690051079,-111.514907837,0.0101079996675,1.0,0.0,0.0,0.0,1.0,0.0,0.0,0.0,1.0,28.4146347046,2.92682933807,-24.4512195587,1.0,0.0,0.0,0.0,1.0,0.0,0.0,0.0,1.0,1.48919343262,-1.94888015137,-8.60476135112,1.0,0.0,0.0,0.0,1.0,0.0,0.0,0.0,1.0
1463470365915751282,418,1463470365912551184,,-2.80138921738,2.35810637474,-111.86428833,0.00981499999762,1.0,0.0,0.0,0.0,1.0,0.0,0.0,0.0,1.0,24.3902435303,-4.14634132385,-26.4634151459,1.0,0.0,0.0,0.0,1.0,0.0,0.0,0.0,1.0,1.73819040527,-1.89141931152,-8.58560773784,1.0,0.0,0.0,0.0,1.0,0.0,0.0,0.0,1.0
1463470365925307930,419,1463470365922379706,,-2.6547267437,2.37886714935,-112.238891602,0.00997400004417,1.0,0.0,0.0,0.0,1.0,0.0,0.0,0.0,1.0,20.1219520569,-9.08536529541,-28.7195110321,1.0,0.0,0.0,0.0,1.0,0.0,0.0,0.0,1.0,1.85311208496,-2.13562802699,-8.43237766255,1.0,0.0,0.0,0.0,1.0,0.0,0.0,0.0,1.0
1463470365935075098,420,1463470365932334322,,-2.55666208267,2.32933139801,-112.629722595,0.0100010000169,1.0,0.0,0.0,0.0,1.0,0.0,0.0,0.0,1.0,15.0609760284,-14.8170728683,-30.4878044128,1.0,0.0,0.0,0.0,1.0,0.0,0.0,0.0,1.0,1.66157595215,-2.20266552734,-8.51378168804,1.0,0.0,0.0,0.0,1.0,0.0,0.0,0.0,1.0
1463470365945222578,421,1463470365942628208,,-2.50161719322,2.23323059082,-113.047515869,0.0100050000474,1.0,0.0,0.0,0.0,1.0,0.0,0.0,0.0,1.0,10.3048782349,-19.5731716156,-33.3536605835,1.0,0.0,0.0,0.0,1.0,0.0,0.0,0.0,1.0,1.63763393555,-2.24097275391,-8.26957253418,1.0,0.0,0.0,0.0,1.0,0.0,0.0,0.0,1.0
1463470365958089897,422,1463470365953019699,,-2.49722313881,2.09656977654,-113.507949829,0.0100919995457,1.0,0.0,0.0,0.0,1.0,0.0,0.0,0.0,1.0,5.97560977936,-23.658536911,-37.317073822,1.0,0.0,0.0,0.0,1.0,0.0,0.0,0.0,1.0,1.63763393555,-2.10210891149,-8.12592043457,1.0,0.0,0.0,0.0,1.0,0.0,0.0,0.0,1.0
1463470365965236498,423,1463470365962783950,,-2.53203988075,1.92809176445,-114.003196716,0.0100220004097,1.0,0.0,0.0,0.0,1.0,0.0,0.0,0.0,1.0,3.04878044128,-26.6463432312,-41.1585350037,1.0,0.0,0.0,0.0,1.0,0.0,0.0,0.0,1.0,1.62805712891,-1.98239897461,-8.29351396626,1.0,0.0,0.0,0.0,1.0,0.0,0.0,0.0,1.0
1463470365979138346,424,1463470365973331482,,-2.58801555634,1.71400272846,-114.579917908,0.0104130003601,1.0,0.0,0.0,0.0,1.0,0.0,0.0,0.0,1.0,1.03658533096,-29.0243911743,-47.1951255798,1.0,0.0,0.0,0.0,1.0,0.0,0.0,0.0,1.0,1.45567460937,-2.01591779785,-8.40843564595,1.0,0.0,0.0,0.0,1.0,0.0,0.0,0.0,1.0
1463470365984950470,425,1463470365982395995,,-2.64420580864,1.4921694994,-115.162651062,0.00956100039184,1.0,0.0,0.0,0.0,1.0,0.0,0.0,0.0,1.0,0.304878056049,-29.5731697083,-52.7439041138,1.0,0.0,0.0,0.0,1.0,0.0,0.0,0.0,1.0,1.15879360352,-2.04943662109,-8.52335849468,1.0,0.0,0.0,0.0,1.0,0.0,0.0,0.0,1.0
1463470365994726440,426,1463470365992528372,,-2.70846700668,1.24593520164,-115.827812195,0.00991499982774,1.0,0.0,0.0,0.0,1.0,0.0,0.0,0.0,1.0,-0.609756112099,-29.5731697083,-58.8414649963,1.0,0.0,0.0,0.0,1.0,0.0,0.0,0.0,1.0,0.928950244141,-2.07816689489,-8.57124252788,1.0,0.0,0.0,0.0,1.0,0.0,0.0,0.0,1.0
1463470366005054441,427,1463470366002215124,,-2.75298953056,1.01056218147,-116.570388794,0.00999199971557,1.0,0.0,0.0,0.0,1.0,0.0,0.0,0.0,1.0,-3.35365867615,-29.2073173523,-66.0975646973,1.0,0.0,0.0,0.0,1.0,0.0,0.0,0.0,1.0,1.20188930646,-3.08373173828,-9.15542714844,1.0,0.0,0.0,0.0,1.0,0.0,0.0,0.0,1.0
1463470366014632547,428,1463470366012261875,,-2.88456749916,0.763400435448,-117.358955383,0.010006999597,1.0,0.0,0.0,0.0,1.0,0.0,0.0,0.0,1.0,-9.75609779358,-30.5487804413,-70.5487823486,1.0,0.0,0.0,0.0,1.0,0.0,0.0,0.0,1.0,1.30723410645,-2.7341782959,-9.65821008159,1.0,0.0,0.0,0.0,1.0,0.0,0.0,0.0,1.0
1463470366025096016,429,1463470366022269407,,-3.09027314186,0.518032431602,-118.195808411,0.00998700037599,1.0,0.0,0.0,0.0,1.0,0.0,0.0,0.0,1.0,-15.6707315445,-31.2195129395,-75.5487823486,1.0,0.0,0.0,0.0,1.0,0.0,0.0,0.0,1.0,1.49877023926,-2.38462499965,-9.73003554687,1.0,0.0,0.0,0.0,1.0,0.0,0.0,0.0,1.0
1463470366034831310,430,1463470366032448919,,-3.34364414215,0.23612703383,-119.086608887,0.0100720003247,1.0,0.0,0.0,0.0,1.0,0.0,0.0,0.0,1.0,-20.1219520569,-32.3780517578,-80.3048858643,1.0,0.0,0.0,0.0,1.0,0.0,0.0,0.0,1.0,1.13006318359,-2.20266552734,-9.53371159526,1.0,0.0,0.0,0.0,1.0,0.0,0.0,0.0,1.0
1463470366045198061,431,1463470366042288795,,-3.61728549004,-0.0594088882208,-120.025093079,0.00993700046092,1.0,0.0,0.0,0.0,1.0,0.0,0.0,0.0,1.0,-22.1951236725,-31.8902454376,-86.3414611816,1.0,0.0,0.0,0.0,1.0,0.0,0.0,0.0,1.0,0.852335791016,-2.08295529821,-9.88326445312,1.0,0.0,0.0,0.0,1.0,0.0,0.0,0.0,1.0
1463470366054853719,432,1463470366052506067,,-3.89150309563,-0.346706479788,-121.053390503,0.0100739998743,1.0,0.0,0.0,0.0,1.0,0.0,0.0,0.0,1.0,-22.4390239716,-30.7926845551,-93.9634170532,1.0,0.0,0.0,0.0,1.0,0.0,0.0,0.0,1.0,1.01035310059,-2.07816689489,-10.0364933594,1.0,0.0,0.0,0.0,1.0,0.0,0.0,0.0,1.0
1463470366065335053,433,1463470366062348392,,-4.16591882706,-0.643054485321,-122.109771729,0.00992599967867,1.0,0.0,0.0,0.0,1.0,0.0,0.0,0.0,1.0,-24.0243911743,-30.3048782349,-98.3536605835,1.0,0.0,0.0,0.0,1.0,0.0,0.0,0.0,1.0,0.77093293457,-2.13083962367,-10.0029745361,1.0,0.0,0.0,0.0,1.0,0.0,0.0,0.0,1.0
1463470366074915451,434,1463470366072523945,,-4.47100162506,-0.944862544537,-123.226409912,0.010095000267,1.0,0.0,0.0,0.0,1.0,0.0,0.0,0.0,1.0,-24.6951236725,-29.2073173523,-102.560974121,1.0,0.0,0.0,0.0,1.0,0.0,0.0,0.0,1.0,0.708683691406,-1.71903679199,-10.7308118408,1.0,0.0,0.0,0.0,1.0,0.0,0.0,0.0,1.0
1463470366084958556,435,1463470366082512675,,-4.71730422974,-1.22195494175,-124.35358429,0.00991300027817,1.0,0.0,0.0,0.0,1.0,0.0,0.0,0.0,1.0,-23.658536911,-27.682926178,-105.548782349,1.0,0.0,0.0,0.0,1.0,0.0,0.0,0.0,1.0,0.890643017578,-2.40377861293,-10.6446205811,1.0,0.0,0.0,0.0,1.0,0.0,0.0,0.0,1.0
1463470366095474004,436,1463470366092495885,,-5.01112318039,-1.50954198837,-125.481872559,0.00998700037599,1.0,0.0,0.0,0.0,1.0,0.0,0.0,0.0,1.0,-25.975610733,-27.682926178,-104.939025879,1.0,0.0,0.0,0.0,1.0,0.0,0.0,0.0,1.0,0.780509741211,-1.838746875,-10.9654436035,1.0,0.0,0.0,0.0,1.0,0.0,0.0,0.0,1.0
1463470366104569820,437,1463470366102506699,,-5.32655954361,-1.78449821472,-126.585624695,0.0100750001147,1.0,0.0,0.0,0.0,1.0,0.0,0.0,0.0,1.0,-27.0731716156,-27.0731716156,-101.585365295,1.0,0.0,0.0,0.0,1.0,0.0,0.0,0.0,1.0,0.967257470703,-1.54665427246,-11.0851536865,1.0,0.0,0.0,0.0,1.0,0.0,0.0,0.0,1.0
1463470366114437822,438,1463470366112363034,,-5.63761281967,-2.05055999756,-127.644889832,0.0099419998005,1.0,0.0,0.0,0.0,1.0,0.0,0.0,0.0,1.0,-27.0731716156,-26.7073173523,-98.6585388184,1.0,0.0,0.0,0.0,1.0,0.0,0.0,0.0,1.0,1.01035310059,-1.40779057617,-11.1090957031,1.0,0.0,0.0,0.0,1.0,0.0,0.0,0.0,1.0
1463470366124660041,439,1463470366122552181,,-5.93922805786,-2.29267668724,-128.684448242,0.00998300034553,1.0,0.0,0.0,0.0,1.0,0.0,0.0,0.0,1.0,-25.8536586761,-24.6341457367,-96.1585388184,1.0,0.0,0.0,0.0,1.0,0.0,0.0,0.0,1.0,1.12048637695,-1.25456166992,-11.2240173828,1.0,0.0,0.0,0.0,1.0,0.0,0.0,0.0,1.0
1463470366134543668,440,1463470366132510078,,-6.18190765381,-2.52698016167,-129.719726562,0.0100840004161,1.0,0.0,0.0,0.0,1.0,0.0,0.0,0.0,1.0,-20.8536586761,-24.2073173523,-94.6951293945,1.0,0.0,0.0,0.0,1.0,0.0,0.0,0.0,1.0,1.22104284668,-1.31202250977,-10.8409451172,1.0,0.0,0.0,0.0,1.0,0.0,0.0,0.0,1.0
1463470366144611669,441,1463470366142344486,,-6.35797166824,-2.75713181496,-130.723022461,0.00991799961776,1.0,0.0,0.0,0.0,1.0,0.0,0.0,0.0,1.0,-15.8536596298,-25.1219520569,-93.2926864624,1.0,0.0,0.0,0.0,1.0,0.0,0.0,0.0,1.0,1.43173259277,-1.48919343262,-11.0037508301,1.0,0.0,0.0,0.0,1.0,0.0,0.0,0.0,1.0
1463470366154474879,442,1463470366152497852,,-6.48902893066,-3.02057480812,-131.720794678,0.0100750001147,1.0,0.0,0.0,0.0,1.0,0.0,0.0,0.0,1.0,-11.2195119858,-24.817073822,-91.1585388184,1.0,0.0,0.0,0.0,1.0,0.0,0.0,0.0,1.0,0.775721337891,-1.45567460937,-11.4730143555,1.0,0.0,0.0,0.0,1.0,0.0,0.0,0.0,1.0
1463470366164481057,443,1463470366162366530,,-6.57969617844,-3.30669331551,-132.679931641,0.00993300043046,1.0,0.0,0.0,0.0,1.0,0.0,0.0,0.0,1.0,-7.80487823486,-23.7804889679,-88.5365829468,1.0,0.0,0.0,0.0,1.0,0.0,0.0,0.0,1.0,-0.0574608398438,-1.54186586914,-12.1769096436,1.0,0.0,0.0,0.0,1.0,0.0,0.0,0.0,1.0
1463470366174712756,444,1463470366172553490,,-6.6249628067,-3.56520032883,-133.642837524,0.0100859999657,1.0,0.0,0.0,0.0,1.0,0.0,0.0,0.0,1.0,-4.93902444839,-21.2804889679,-87.0121994019,1.0,0.0,0.0,0.0,1.0,0.0,0.0,0.0,1.0,0.0239420166016,-1.83395847168,-12.1577560303,1.0,0.0,0.0,0.0,1.0,0.0,0.0,0.0,1.0
1463470366190075539,445,1463470366185493516,,-6.64616727829,-3.83689427376,-134.843063354,0.0129019999877,1.0,0.0,0.0,0.0,1.0,0.0,0.0,0.0,1.0,-3.23170733452,-19.3292694092,-84.207321167,1.0,0.0,0.0,0.0,1.0,0.0,0.0,0.0,1.0,0.474051928711,-1.95845695801,-11.7698953613,1.0,0.0,0.0,0.0,1.0,0.0,0.0,0.0,1.0
1463470366194630374,446,1463470366192463347,,-6.67059707642,-3.97449016571,-135.478485107,0.00700000021607,1.0,0.0,0.0,0.0,1.0,0.0,0.0,0.0,1.0,-2.25609779358,-19.3902435303,-82.0731735229,1.0,0.0,0.0,0.0,1.0,0.0,0.0,0.0,1.0,0.665588061523,-1.29286889648,-11.7172229248,1.0,0.0,0.0,0.0,1.0,0.0,0.0,0.0,1.0
1463470366204723479,447,1463470366202483223,,-6.67158269882,-4.16490507126,-136.36946106,0.0100840004161,1.0,0.0,0.0,0.0,1.0,0.0,0.0,0.0,1.0,1.46341466904,-20.3658542633,-79.7560958862,1.0,0.0,0.0,0.0,1.0,0.0,0.0,0.0,1.0,0.881066210937,-1.11569797363,-10.8840407471,1.0,0.0,0.0,0.0,1.0,0.0,0.0,0.0,1.0
1463470366215019553,448,1463470366212537474,,-6.63833761215,-4.3552312851,-137.227310181,0.0100100003183,1.0,0.0,0.0,0.0,1.0,0.0,0.0,0.0,1.0,5.42682933807,-21.341463089,-77.1951217651,1.0,0.0,0.0,0.0,1.0,0.0,0.0,0.0,1.0,0.962469067383,-1.01035310059,-11.0995188965,1.0,0.0,0.0,0.0,1.0,0.0,0.0,0.0,1.0
1463470366224654378,449,1463470366222187820,,-6.57821369171,-4.5309548378,-138.057571411,0.0099060004577,1.0,0.0,0.0,0.0,1.0,0.0,0.0,0.0,1.0,10.0,-22.8048782349,-75.5487823486,1.0,0.0,0.0,0.0,1.0,0.0,0.0,0.0,1.0,1.35032973633,-0.603338854892,-10.5967365479,1.0,0.0,0.0,0.0,1.0,0.0,0.0,0.0,1.0
1463470366236108991,450,1463470366232186550,,-6.45624399185,-4.70790481567,-138.882446289,0.00999899953604,1.0,0.0,0.0,0.0,1.0,0.0,0.0,0.0,1.0,16.4024391174,-24.1463432312,-74.3292694092,1.0,0.0,0.0,0.0,1.0,0.0,0.0,0.0,1.0,1.47003981934,-0.517147558594,-10.1705686523,1.0,0.0,0.0,0.0,1.0,0.0,0.0,0.0,1.0
1463470366244754234,451,1463470366242301895,,-6.26732969284,-4.89772939682,-139.694778442,0.0100210001692,1.0,0.0,0.0,0.0,1.0,0.0,0.0,0.0,1.0,22.5609760284,-25.7926845551,-72.9268341064,1.0,0.0,0.0,0.0,1.0,0.0,0.0,0.0,1.0,1.42694418945,-0.598550451572,-10.060435376,1.0,0.0,0.0,0.0,1.0,0.0,0.0,0.0,1.0
1463470366255415359,452,1463470366252595990,,-6.03675699234,-5.08294248581,-140.473144531,0.00999999977648,1.0,0.0,0.0,0.0,1.0,0.0,0.0,0.0,1.0,27.0121955872,-27.5609760284,-69.7560958862,1.0,0.0,0.0,0.0,1.0,0.0,0.0,0.0,1.0,1.64242233887,-0.584185168546,-9.81622680664,1.0,0.0,0.0,0.0,1.0,0.0,0.0,0.0,1.0
1463470366268048095,453,1463470366263497896,,-5.78136587143,-5.27980947495,-141.208602905,0.0100090000778,1.0,0.0,0.0,0.0,1.0,0.0,0.0,0.0,1.0,30.9146327972,-28.4146347046,-65.4268341064,1.0,0.0,0.0,0.0,1.0,0.0,0.0,0.0,1.0,1.41736738281,-0.387860668945,-9.87368764648,1.0,0.0,0.0,0.0,1.0,0.0,0.0,0.0,1.0
1463470366277666618,454,1463470366272654857,,-5.46077442169,-5.50032377243,-141.92048645,0.00997599959373,1.0,0.0,0.0,0.0,1.0,0.0,0.0,0.0,1.0,33.7804870605,-30.7317066193,-62.9878044128,1.0,0.0,0.0,0.0,1.0,0.0,0.0,0.0,1.0,1.30723410645,-1.13006318359,-10.2040874756,1.0,0.0,0.0,0.0,1.0,0.0,0.0,0.0,1.0
1463470366285125249,455,1463470366282196609,,-5.12121295929,-5.74413347244,-142.608337402,0.0099950004369,1.0,0.0,0.0,0.0,1.0,0.0,0.0,0.0,1.0,35.3048782349,-32.9268302917,-60.3658561707,1.0,0.0,0.0,0.0,1.0,0.0,0.0,0.0,1.0,1.11090957031,-1.21625444336,-10.0317049561,1.0,0.0,0.0,0.0,1.0,0.0,0.0,0.0,1.0
1463470366294708564,456,1463470366292206173,,-4.72243642807,-6.01421070099,-143.297561646,0.0100029995665,1.0,0.0,0.0,0.0,1.0,0.0,0.0,0.0,1.0,36.4024391174,-33.9024391174,-59.7560997009,1.0,0.0,0.0,0.0,1.0,0.0,0.0,0.0,1.0,0.732625708008,-2.18351191406,-10.3381627686,1.0,0.0,0.0,0.0,1.0,0.0,0.0,0.0,1.0
1463470366305038700,457,1463470366302209852,,-4.30734777451,-6.3139796257,-143.998657227,0.0100020002574,1.0,0.0,0.0,0.0,1.0,0.0,0.0,0.0,1.0,35.4268302917,-35.8536605835,-60.4878044128,1.0,0.0,0.0,0.0,1.0,0.0,0.0,0.0,1.0,0.430956298828,-2.70065947266,-10.3668931885,1.0,0.0,0.0,0.0,1.0,0.0,0.0,0.0,1.0
1463470366314972118,458,1463470366312202905,,-3.96425533295,-6.6079993248,-144.708389282,0.00999299995601,1.0,0.0,0.0,0.0,1.0,0.0,0.0,0.0,1.0,31.2195129395,-35.9756088257,-61.4024429321,1.0,0.0,0.0,0.0,1.0,0.0,0.0,0.0,1.0,0.416591088867,-2.14520483363,-10.6637741943,1.0,0.0,0.0,0.0,1.0,0.0,0.0,0.0,1.0
1463470366324659964,459,1463470366322204760,,-3.62880277634,-6.91117286682,-145.424346924,0.00999999977648,1.0,0.0,0.0,0.0,1.0,0.0,0.0,0.0,1.0,28.6585388184,-36.8902435303,-61.524394989,1.0,0.0,0.0,0.0,1.0,0.0,0.0,0.0,1.0,0.292092584273,-2.43250888672,-10.419565625,1.0,0.0,0.0,0.0,1.0,0.0,0.0,0.0,1.0
1463470366334672861,460,1463470366332194116,,-3.34436488152,-7.21457195282,-146.157485962,0.0100010000169,1.0,0.0,0.0,0.0,1.0,0.0,0.0,0.0,1.0,24.7560977936,-37.2560958862,-63.1097564697,1.0,0.0,0.0,0.0,1.0,0.0,0.0,0.0,1.0,0.239420166016,-2.15478164027,-10.5057568848,1.0,0.0,0.0,0.0,1.0,0.0,0.0,0.0,1.0
1463470366344452686,461,1463470366342222794,,-3.07220101357,-7.53588819504,-146.898635864,0.0100060002878,1.0,0.0,0.0,0.0,1.0,0.0,0.0,0.0,1.0,21.7073173523,-37.9878044128,-63.4146385193,1.0,0.0,0.0,0.0,1.0,0.0,0.0,0.0,1.0,-0.067037651051,-2.40856701625,-10.2088758789,1.0,0.0,0.0,0.0,1.0,0.0,0.0,0.0,1.0
1463470366354341208,462,1463470366352161473,,-2.8539147377,-7.84483385086,-147.652389526,0.00999999977648,1.0,0.0,0.0,0.0,1.0,0.0,0.0,0.0,1.0,17.6219520569,-35.6707344055,-64.5121917725,1.0,0.0,0.0,0.0,1.0,0.0,0.0,0.0,1.0,-0.387860668945,-2.11647412145,-10.314220752,1.0,0.0,0.0,0.0,1.0,0.0,0.0,0.0,1.0
1463470366364388480,463,1463470366362251089,,-2.65068268776,-8.1429681778,-148.430984497,0.0100020002574,1.0,0.0,0.0,0.0,1.0,0.0,0.0,0.0,1.0,15.3658533096,-33.8414649963,-66.5853652954,1.0,0.0,0.0,0.0,1.0,0.0,0.0,0.0,1.0,-0.612915625,-2.16435844691,-10.314220752,1.0,0.0,0.0,0.0,1.0,0.0,0.0,0.0,1.0
1463470366374585700,464,1463470366372296850,,-2.47676682472,-8.4075460434,-149.230407715,0.0100050000474,1.0,0.0,0.0,0.0,1.0,0.0,0.0,0.0,1.0,12.2560977936,-31.9512214661,-68.3536605835,1.0,0.0,0.0,0.0,1.0,0.0,0.0,0.0,1.0,-0.421379492187,-2.08774370153,-10.2376062988,1.0,0.0,0.0,0.0,1.0,0.0,0.0,0.0,1.0
1463470366384658076,465,1463470366382550737,,-2.33501005173,-8.64124107361,-150.044921875,0.00999400019646,1.0,0.0,0.0,0.0,1.0,0.0,0.0,0.0,1.0,10.0,-28.9024410248,-69.8170776367,1.0,0.0,0.0,0.0,1.0,0.0,0.0,0.0,1.0,-0.493205541992,-1.80043964844,-10.0891657959,1.0,0.0,0.0,0.0,1.0,0.0,0.0,0.0,1.0
1463470366394004621,466,1463470366392213374,,-2.18680596352,-8.85664272308,-150.888290405,0.00999400019646,1.0,0.0,0.0,0.0,1.0,0.0,0.0,0.0,1.0,8.84146404266,-27.2560977936,-72.2560958862,1.0,0.0,0.0,0.0,1.0,0.0,0.0,0.0,1.0,-0.517147558594,-2.03985981445,-10.1418382324,1.0,0.0,0.0,0.0,1.0,0.0,0.0,0.0,1.0
1463470366404392882,467,1463470366402198303,,-2.06570744514,-9.050116539,-151.743789673,0.00999899953604,1.0,0.0,0.0,0.0,1.0,0.0,0.0,0.0,1.0,7.01219511032,-24.5121955872,-73.3536605835,1.0,0.0,0.0,0.0,1.0,0.0,0.0,0.0,1.0,-0.675164868164,-1.77649763184,-9.96466730957,1.0,0.0,0.0,0.0,1.0,0.0,0.0,0.0,1.0
1463470366414403956,468,1463470366412254637,,-1.9546957016,-9.21245670319,-152.617553711,0.0100119998679,1.0,0.0,0.0,0.0,1.0,0.0,0.0,0.0,1.0,5.30487823486,-21.158536911,-74.7561035156,1.0,0.0,0.0,0.0,1.0,0.0,0.0,0.0,1.0,-0.76614453125,-1.82438166504,-9.93593688965,1.0,0.0,0.0,0.0,1.0,0.0,0.0,0.0,1.0
1463470366424299353,469,1463470366422182378,,-1.86507070065,-9.34558200836,-153.494140625,0.0099849998951,1.0,0.0,0.0,0.0,1.0,0.0,0.0,0.0,1.0,2.98780488968,-17.8658542633,-75.0609817505,1.0,0.0,0.0,0.0,1.0,0.0,0.0,0.0,1.0,-0.890643017578,-1.82438166504,-9.91199487305,1.0,0.0,0.0,0.0,1.0,0.0,0.0,0.0,1.0
1463470366434316990,470,1463470366432187827,,-1.79304611683,-9.44941329956,-154.37940979,0.00999999977648,1.0,0.0,0.0,0.0,1.0,0.0,0.0,0.0,1.0,0.914634168148,-13.3536586761,-75.5487823486,1.0,0.0,0.0,0.0,1.0,0.0,0.0,0.0,1.0,-1.21625444336,-1.85311208496,-9.93593688965,1.0,0.0,0.0,0.0,1.0,0.0,0.0,0.0,1.0
1463470366443954419,471,1463470366442176923,,-1.7469894886,-9.51303958893,-155.27041626,0.0100060002878,1.0,0.0,0.0,0.0,1.0,0.0,0.0,0.0,1.0,-2.07317066193,-9.51219558716,-75.8536605835,1.0,0.0,0.0,0.0,1.0,0.0,0.0,0.0,1.0,-1.2497732666,-1.95366855469,-10.2232410889,1.0,0.0,0.0,0.0,1.0,0.0,0.0,0.0,1.0
1463470366454347316,472,1463470366452200497,,-1.74008023739,-9.52927303314,-156.150772095,0.0100029995665,1.0,0.0,0.0,0.0,1.0,0.0,0.0,0.0,1.0,-6.21951246262,-3.90243911743,-74.5731735229,1.0,0.0,0.0,0.0,1.0,0.0,0.0,0.0,1.0,-1.4844050293,-2.10210891149,-10.5584293213,1.0,0.0,0.0,0.0,1.0,0.0,0.0,0.0,1.0
1463470366464444744,473,1463470366462207873,,-1.79559636116,-9.50077342987,-157.003738403,0.00999999977648,1.0,0.0,0.0,0.0,1.0,0.0,0.0,0.0,1.0,-11.7073173523,2.25609779358,-71.7682952881,1.0,0.0,0.0,0.0,1.0,0.0,0.0,0.0,1.0,-1.81959326172,-2.04943662109,-10.5344873047,1.0,0.0,0.0,0.0,1.0,0.0,0.0,0.0,1.0
1463470366474580193,474,1463470366472391916,,-1.9196189642,-9.43000030518,-157.837402344,0.00999899953604,1.0,0.0,0.0,0.0,1.0,0.0,0.0,0.0,1.0,-17.9878044128,7.50000047684,-69.7560958862,1.0,0.0,0.0,0.0,1.0,0.0,0.0,0.0,1.0,-2.03028300781,-2.03985981445,-10.7020814209,1.0,0.0,0.0,0.0,1.0,0.0,0.0,0.0,1.0
1463470366485462359,475,1463470366482309240,,-2.10872983932,-9.2998085022,-158.653518677,0.0100039998069,1.0,0.0,0.0,0.0,1.0,0.0,0.0,0.0,1.0,-23.5975627899,13.7804880142,-67.865852356,1.0,0.0,0.0,0.0,1.0,0.0,0.0,0.0,1.0,-2.12126281703,-1.98718737793,-11.0612116699,1.0,0.0,0.0,0.0,1.0,0.0,0.0,0.0,1.0
1463470366494775258,476,1463470366492518179,,-2.32618927956,-9.11735343933,-159.466949463,0.010006999597,1.0,0.0,0.0,0.0,1.0,0.0,0.0,0.0,1.0,-27.8658542633,19.817073822,-67.0731735229,1.0,0.0,0.0,0.0,1.0,0.0,0.0,0.0,1.0,-2.1691467041,-2.27449157715,-10.8600987305,1.0,0.0,0.0,0.0,1.0,0.0,0.0,0.0,1.0
1463470366504514301,477,1463470366502215035,,-2.58789372444,-8.90593338013,-160.264907837,0.00999400019646,1.0,0.0,0.0,0.0,1.0,0.0,0.0,0.0,1.0,-31.8292694092,25.2439041138,-65.4268341064,1.0,0.0,0.0,0.0,1.0,0.0,0.0,0.0,1.0,-2.57137258301,-2.23618435059,-10.778695874,1.0,0.0,0.0,0.0,1.0,0.0,0.0,0.0,1.0
1463470366514172876,478,1463470366512208713,,-2.88895344734,-8.62731075287,-161.059402466,0.00999100040644,1.0,0.0,0.0,0.0,1.0,0.0,0.0,0.0,1.0,-34.6951217651,31.9512214661,-64.8780441284,1.0,0.0,0.0,0.0,1.0,0.0,0.0,0.0,1.0,-2.47081611328,-2.04943662109,-10.8840407471,1.0,0.0,0.0,0.0,1.0,0.0,0.0,0.0,1.0
1463470366526254936,479,1463470366522545516,,-3.23030471802,-8.29961299896,-161.826522827,0.0100320000201,1.0,0.0,0.0,0.0,1.0,0.0,0.0,0.0,1.0,-37.317073822,37.5,-61.5853691101,1.0,0.0,0.0,0.0,1.0,0.0,0.0,0.0,1.0,-2.45645090332,-1.85790048828,-10.6254669678,1.0,0.0,0.0,0.0,1.0,0.0,0.0,0.0,1.0
1463470366534552159,480,1463470366532258882,,-3.65444993973,-7.91679096222,-162.541030884,0.00996899977326,1.0,0.0,0.0,0.0,1.0,0.0,0.0,0.0,1.0,-40.4268302917,43.6585388184,-57.0121955872,1.0,0.0,0.0,0.0,1.0,0.0,0.0,0.0,1.0,-2.43250888672,-0.933738647461,-10.6494089844,1.0,0.0,0.0,0.0,1.0,0.0,0.0,0.0,1.0
1463470366545074639,481,1463470366542287561,,-4.10403728485,-7.48374319077,-163.208297729,0.0100130001083,1.0,0.0,0.0,0.0,1.0,0.0,0.0,0.0,1.0,-41.2195129395,48.1707305908,-51.5853691101,1.0,0.0,0.0,0.0,1.0,0.0,0.0,0.0,1.0,-2.24097275391,-0.76614453125,-10.5823713379,1.0,0.0,0.0,0.0,1.0,0.0,0.0,0.0,1.0
1463470366554564985,482,1463470366552341343,,-4.5801448822,-6.99980926514,-163.818450928,0.00999699998647,1.0,0.0,0.0,0.0,1.0,0.0,0.0,0.0,1.0,-40.9756088257,52.6829299927,-45.6707344055,1.0,0.0,0.0,0.0,1.0,0.0,0.0,0.0,1.0,-1.90578452148,-0.320823022461,-10.0077629395,1.0,0.0,0.0,0.0,1.0,0.0,0.0,0.0,1.0
1463470366564711528,483,1463470366562250439,,-5.04435777664,-6.48664665222,-164.377685547,0.0099849998951,1.0,0.0,0.0,0.0,1.0,0.0,0.0,0.0,1.0,-38.5975608826,55.182926178,-40.1829299927,1.0,0.0,0.0,0.0,1.0,0.0,0.0,0.0,1.0,-1.77649763184,-0.215478149414,-10.3237975586,1.0,0.0,0.0,0.0,1.0,0.0,0.0,0.0,1.0
1463470366574802706,484,1463470366572365940,,-5.47247982025,-5.96919441223,-164.910064697,0.0100109996274,1.0,0.0,0.0,0.0,1.0,0.0,0.0,0.0,1.0,-34.3902435303,55.9756126404,-36.9512214661,1.0,0.0,0.0,0.0,1.0,0.0,0.0,0.0,1.0,-1.80043964844,-0.196324536133,-10.6302553711,1.0,0.0,0.0,0.0,1.0,0.0,0.0,0.0,1.0
1463470366585211436,485,1463470366582276181,,-5.80129337311,-5.4153046608,-165.444107056,0.010053999722,1.0,0.0,0.0,0.0,1.0,0.0,0.0,0.0,1.0,-25.4268302917,55.8536605835,-36.4634170532,1.0,0.0,0.0,0.0,1.0,0.0,0.0,0.0,1.0,-0.952892260742,-0.402225878906,-10.4387192383,1.0,0.0,0.0,0.0,1.0,0.0,0.0,0.0,1.0
1463470366595537613,486,1463470366592462151,,-6.12661790848,-4.85378646851,-165.955688477,0.00995500013232,1.0,0.0,0.0,0.0,1.0,0.0,0.0,0.0,1.0,-19.0853652954,53.1707305908,-35.3658561707,1.0,0.0,0.0,0.0,1.0,0.0,0.0,0.0,1.0,-0.0909796630859,0.718260498047,-10.4961800781,1.0,0.0,0.0,0.0,1.0,0.0,0.0,0.0,1.0
1463470366604527492,487,1463470366602265309,,-6.34671354294,-4.32174444199,-166.431869507,0.00998200010508,1.0,0.0,0.0,0.0,1.0,0.0,0.0,0.0,1.0,-7.80487823486,47.9268302917,-32.0731697083,1.0,0.0,0.0,0.0,1.0,0.0,0.0,0.0,1.0,0.383072265625,0.751779321289,-10.4818148682,1.0,0.0,0.0,0.0,1.0,0.0,0.0,0.0,1.0
1463470366614695284,488,1463470366612370028,,-6.52516698837,-3.84362220764,-166.857177734,0.0100130001083,1.0,0.0,0.0,0.0,1.0,0.0,0.0,0.0,1.0,0.0,42.6219520569,-27.5609760284,1.0,0.0,0.0,0.0,1.0,0.0,0.0,0.0,1.0,0.363918652344,1.30723410645,-10.4243540283,1.0,0.0,0.0,0.0,1.0,0.0,0.0,0.0,1.0
1463470366625407763,489,1463470366622242926,,-6.62735033035,-3.42884421349,-167.195846558,0.0100469999015,1.0,0.0,0.0,0.0,1.0,0.0,0.0,0.0,1.0,6.09756088257,38.5975608826,-19.0243911743,1.0,0.0,0.0,0.0,1.0,0.0,0.0,0.0,1.0,-0.167594116211,0.876277807617,-10.3190091553,1.0,0.0,0.0,0.0,1.0,0.0,0.0,0.0,1.0
1463470366635486442,490,1463470366632588947,,-6.67545366287,-3.05356168747,-167.451095581,0.00993900001049,1.0,0.0,0.0,0.0,1.0,0.0,0.0,0.0,1.0,10.8536586761,36.9512214661,-11.0975618362,1.0,0.0,0.0,0.0,1.0,0.0,0.0,0.0,1.0,-0.60812722168,0.675164868164,-10.5105452881,1.0,0.0,0.0,0.0,1.0,0.0,0.0,0.0,1.0
1463470366645310902,491,1463470366642259293,,-6.68239736557,-2.69300889969,-167.623657227,0.00999800022691,1.0,0.0,0.0,0.0,1.0,0.0,0.0,0.0,1.0,15.6707315445,33.4146347046,-3.10975623131,1.0,0.0,0.0,0.0,1.0,0.0,0.0,0.0,1.0,-0.363918652344,0.684741674805,-10.2759135254,1.0,0.0,0.0,0.0,1.0,0.0,0.0,0.0,1.0
1463470366655409788,492,1463470366652184065,,-6.61495923996,-2.30408358574,-167.744216919,0.0100020002574,1.0,0.0,0.0,0.0,1.0,0.0,0.0,0.0,1.0,21.8902435303,30.9146327972,1.8292683363,1.0,0.0,0.0,0.0,1.0,0.0,0.0,0.0,1.0,0.550666381836,0.392649072266,-10.0748005859,1.0,0.0,0.0,0.0,1.0,0.0,0.0,0.0,1.0
1463470366664114407,493,1463470366662362327,,-6.48280096054,-1.9685331583,-167.80128479,0.0100220004097,1.0,0.0,0.0,0.0,1.0,0.0,0.0,0.0,1.0,26.0975627899,24.3292694092,7.43902492523,1.0,0.0,0.0,0.0,1.0,0.0,0.0,0.0,1.0,0.689530078125,-0.076614453125,-9.8305920166,1.0,0.0,0.0,0.0,1.0,0.0,0.0,0.0,1.0
1463470366675818759,494,1463470366672306630,,-6.32497692108,-1.67071819305,-167.796905518,0.00999699998647,1.0,0.0,0.0,0.0,1.0,0.0,0.0,0.0,1.0,29.0243911743,19.1463432312,12.8658542633,1.0,0.0,0.0,0.0,1.0,0.0,0.0,0.0,1.0,0.866701000977,-0.0814028564453,-9.52413478862,1.0,0.0,0.0,0.0,1.0,0.0,0.0,0.0,1.0
1463470366684454732,495,1463470366682202340,,-6.15399169922,-1.43538689613,-167.729064941,0.00998600013554,1.0,0.0,0.0,0.0,1.0,0.0,0.0,0.0,1.0,31.4634151459,14.0853662491,18.5365848541,1.0,0.0,0.0,0.0,1.0,0.0,0.0,0.0,1.0,0.603338854892,0.0526724365234,-9.46188437642,1.0,0.0,0.0,0.0,1.0,0.0,0.0,0.0,1.0
1463470366694569087,496,1463470366692439612,,-5.96733140945,-1.23298418522,-167.61227417,0.0100260004401,1.0,0.0,0.0,0.0,1.0,0.0,0.0,0.0,1.0,33.0487823486,9.39024448395,22.8048782349,1.0,0.0,0.0,0.0,1.0,0.0,0.0,0.0,1.0,0.77093293457,0.0239420166016,-9.27992563477,1.0,0.0,0.0,0.0,1.0,0.0,0.0,0.0,1.0
1463470366705272035,497,1463470366702299801,,-5.82037734985,-1.03174936771,-167.428695679,0.0100149996579,1.0,0.0,0.0,0.0,1.0,0.0,0.0,0.0,1.0,31.5243930817,2.62195134163,28.6585388184,1.0,0.0,0.0,0.0,1.0,0.0,0.0,0.0,1.0,1.47961662598,0.296881024126,-7.48427438965,1.0,0.0,0.0,0.0,1.0,0.0,0.0,0.0,1.0
1463470366714792641,498,1463470366712300042,,-5.6036272049,-0.922829270363,-167.238204956,0.0100269997492,1.0,0.0,0.0,0.0,1.0,0.0,0.0,0.0,1.0,34.7560997009,-0.731707334518,29.0243911743,1.0,0.0,0.0,0.0,1.0,0.0,0.0,0.0,1.0,0.785298144531,-0.229843359375,-8.37970522602,1.0,0.0,0.0,0.0,1.0,0.0,0.0,0.0,1.0
1463470366725181059,499,1463470366722191221,,-5.36837911606,-0.889450609684,-167.048110962,0.00992900040001,1.0,0.0,0.0,0.0,1.0,0.0,0.0,0.0,1.0,35.1829299927,-4.20731735229,28.8414649963,1.0,0.0,0.0,0.0,1.0,0.0,0.0,0.0,1.0,0.220266552734,-0.517147558594,-8.65743378765,1.0,0.0,0.0,0.0,1.0,0.0,0.0,0.0,1.0
1463470366735134321,500,1463470366732184170,,-5.16682815552,-0.900161623955,-166.847396851,0.0100010000169,1.0,0.0,0.0,0.0,1.0,0.0,0.0,0.0,1.0,32.6219520569,-6.70731735229,29.5121974945,1.0,0.0,0.0,0.0,1.0,0.0,0.0,0.0,1.0,-0.0718260498047,-0.407014282227,-8.76277807617,1.0,0.0,0.0,0.0,1.0,0.0,0.0,0.0,1.0
1463470366745248155,501,1463470366742226025,,-5.01362943649,-0.919828236103,-166.635269165,0.0100320000201,1.0,0.0,0.0,0.0,1.0,0.0,0.0,0.0,1.0,27.8048782349,-5.85365867615,30.6707305908,1.0,0.0,0.0,0.0,1.0,0.0,0.0,0.0,1.0,-0.363918652344,-0.450109912109,-9.13627353516,1.0,0.0,0.0,0.0,1.0,0.0,0.0,0.0,1.0
1463470366755191156,502,1463470366752188141,,-4.83532810211,-0.953858196735,-166.444778442,0.00996499974281,1.0,0.0,0.0,0.0,1.0,0.0,0.0,0.0,1.0,25.1219520569,-7.43902492523,28.5975608826,1.0,0.0,0.0,0.0,1.0,0.0,0.0,0.0,1.0,-0.325611425781,-1.42694418945,-9.62947966167,1.0,0.0,0.0,0.0,1.0,0.0,0.0,0.0,1.0
1463470366764303587,503,1463470366762220414,,-4.7148103714,-0.999374687672,-166.291412354,0.00999999977648,1.0,0.0,0.0,0.0,1.0,0.0,0.0,0.0,1.0,21.0365848541,-8.84146404266,24.6951236725,1.0,0.0,0.0,0.0,1.0,0.0,0.0,0.0,1.0,-0.215478149414,-1.10133276367,-9.34217429341,1.0,0.0,0.0,0.0,1.0,0.0,0.0,0.0,1.0
1463470366775698564,504,1463470366772345967,,-4.59169721603,-1.08150422573,-166.192611694,0.0100140003487,1.0,0.0,0.0,0.0,1.0,0.0,0.0,0.0,1.0,18.475610733,-8.59756088257,19.3292694092,1.0,0.0,0.0,0.0,1.0,0.0,0.0,0.0,1.0,-0.814028564453,-1.63284553223,-9.52892319194,1.0,0.0,0.0,0.0,1.0,0.0,0.0,0.0,1.0
1463470366785202765,505,1463470366782221364,,-4.47301769257,-1.18025243282,-166.170593262,0.0100130001083,1.0,0.0,0.0,0.0,1.0,0.0,0.0,0.0,1.0,17.8048782349,-10.2439022064,11.5853662491,1.0,0.0,0.0,0.0,1.0,0.0,0.0,0.0,1.0,-0.742202514648,-1.71424838867,-9.79707319336,1.0,0.0,0.0,0.0,1.0,0.0,0.0,0.0,1.0
1463470366795521286,506,1463470366792382490,,-4.38189506531,-1.264149189,-166.212280273,0.0100010000169,1.0,0.0,0.0,0.0,1.0,0.0,0.0,0.0,1.0,15.7926826477,-10.3658542633,5.24390268326,1.0,0.0,0.0,0.0,1.0,0.0,0.0,0.0,1.0,-0.368707055664,-1.4844050293,-9.25119521484,1.0,0.0,0.0,0.0,1.0,0.0,0.0,0.0,1.0
1463470366805512725,507,1463470366802216638,,-4.31406402588,-1.35730481148,-166.293380737,0.00997500028461,1.0,0.0,0.0,0.0,1.0,0.0,0.0,0.0,1.0,14.5121955872,-10.6097564697,1.2804877758,1.0,0.0,0.0,0.0,1.0,0.0,0.0,0.0,1.0,-0.45968671875,-1.33596452637,-9.44751916645,1.0,0.0,0.0,0.0,1.0,0.0,0.0,0.0,1.0
1463470366814492551,508,1463470366812189535,,-4.26692533493,-1.4670830965,-166.412307739,0.00999599974602,1.0,0.0,0.0,0.0,1.0,0.0,0.0,0.0,1.0,12.2560977936,-12.9878053665,-2.62195134163,1.0,0.0,0.0,0.0,1.0,0.0,0.0,0.0,1.0,-0.301669427446,-1.34554133301,-9.36611631001,1.0,0.0,0.0,0.0,1.0,0.0,0.0,0.0,1.0
1463470366825010083,509,1463470366822209984,,-4.25645923615,-1.58291900158,-166.541564941,0.0100269997492,1.0,0.0,0.0,0.0,1.0,0.0,0.0,0.0,1.0,10.6707315445,-14.8780498505,-3.7804877758,1.0,0.0,0.0,0.0,1.0,0.0,0.0,0.0,1.0,-0.0861912597656,-0.962469067383,-9.16500395508,1.0,0.0,0.0,0.0,1.0,0.0,0.0,0.0,1.0
1463470366834918084,510,1463470366832179809,,-4.2498626709,-1.71422123909,-166.698608398,0.00997100025415,1.0,0.0,0.0,0.0,1.0,0.0,0.0,0.0,1.0,9.81707286835,-17.1951217651,-6.7682929039,1.0,0.0,0.0,0.0,1.0,0.0,0.0,0.0,1.0,0.0430956298828,-1.00077629395,-8.9591026123,1.0,0.0,0.0,0.0,1.0,0.0,0.0,0.0,1.0
1463470366844571295,511,1463470366842392653,,-4.25345754623,-1.87629461288,-166.876586914,0.0100170001388,1.0,0.0,0.0,0.0,1.0,0.0,0.0,0.0,1.0,8.78048801422,-20.7926826477,-9.02439117432,1.0,0.0,0.0,0.0,1.0,0.0,0.0,0.0,1.0,0.138863696289,-0.976834277344,-8.85854614258,1.0,0.0,0.0,0.0,1.0,0.0,0.0,0.0,1.0
1463470366857761425,512,1463470366852305655,,-4.26113653183,-2.05059409142,-167.067611694,0.00999699998647,1.0,0.0,0.0,0.0,1.0,0.0,0.0,0.0,1.0,8.78048801422,-23.475610733,-10.548781395,1.0,0.0,0.0,0.0,1.0,0.0,0.0,0.0,1.0,0.363918652344,-0.9193734375,-9.08838950195,1.0,0.0,0.0,0.0,1.0,0.0,0.0,0.0,1.0
1463470366868132395,513,1463470366862881832,,-4.29414653778,-2.26146388054,-167.27015686,0.0101140001789,1.0,0.0,0.0,0.0,1.0,0.0,0.0,0.0,1.0,7.37804937363,-26.5243911743,-11.7073173523,1.0,0.0,0.0,0.0,1.0,0.0,0.0,0.0,1.0,0.277727392578,-0.694318481445,-8.73404765625,1.0,0.0,0.0,0.0,1.0,0.0,0.0,0.0,1.0
1463470366878147375,514,1463470366872752438,,-4.31317710876,-2.50583076477,-167.477386475,0.00999199971557,1.0,0.0,0.0,0.0,1.0,0.0,0.0,0.0,1.0,7.43902492523,-28.5365848541,-12.5,1.0,0.0,0.0,0.0,1.0,0.0,0.0,0.0,1.0,0.00957680664062,-0.890643017578,-8.88248815918,1.0,0.0,0.0,0.0,1.0,0.0,0.0,0.0,1.0
1463470366887995325,515,1463470366882779241,,-4.33118581772,-2.77596926689,-167.689453125,0.00990500021726,1.0,0.0,0.0,0.0,1.0,0.0,0.0,0.0,1.0,6.28048801422,-30.5487804413,-13.2317075729,1.0,0.0,0.0,0.0,1.0,0.0,0.0,0.0,1.0,-0.143652099609,-1.05823706072,-8.79150849609,1.0,0.0,0.0,0.0,1.0,0.0,0.0,0.0,1.0
1463470366897757910,516,1463470366892763128,,-4.35577869415,-3.05895900726,-167.91784668,0.0100459996611,1.0,0.0,0.0,0.0,1.0,0.0,0.0,0.0,1.0,4.32926845551,-30.6097583771,-14.4512205124,1.0,0.0,0.0,0.0,1.0,0.0,0.0,0.0,1.0,-0.316034619141,-1.31681091309,-9.30386706685,1.0,0.0,0.0,0.0,1.0,0.0,0.0,0.0,1.0
1463470366907639193,517,1463470366902396495,,-4.39976358414,-3.36014080048,-168.16583252,0.00996800046414,1.0,0.0,0.0,0.0,1.0,0.0,0.0,0.0,1.0,2.31707310677,-31.0975627899,-16.5853652954,1.0,0.0,0.0,0.0,1.0,0.0,0.0,0.0,1.0,-0.61770402832,-1.34075292969,-9.71088193359,1.0,0.0,0.0,0.0,1.0,0.0,0.0,0.0,1.0
1463470366915432823,518,1463470366912290017,,-4.45853233337,-3.65741920471,-168.446640015,0.00997299980372,1.0,0.0,0.0,0.0,1.0,0.0,0.0,0.0,1.0,0.0,-30.1219520569,-19.6951236725,1.0,0.0,0.0,0.0,1.0,0.0,0.0,0.0,1.0,-0.751779321289,-1.4844050293,-10.1274730225,1.0,0.0,0.0,0.0,1.0,0.0,0.0,0.0,1.0
1463470366927561029,519,1463470366922309893,,-4.53409147263,-3.95844769478,-168.758422852,0.0100010000169,1.0,0.0,0.0,0.0,1.0,0.0,0.0,0.0,1.0,-2.5,-29.2682933807,-22.5609760284,1.0,0.0,0.0,0.0,1.0,0.0,0.0,0.0,1.0,-0.976834277344,-1.58974990234,-10.2519715088,1.0,0.0,0.0,0.0,1.0,0.0,0.0,0.0,1.0
1463470366937537416,520,1463470366932360863,,-4.62533473969,-4.23634195328,-169.103149414,0.00999299995601,1.0,0.0,0.0,0.0,1.0,0.0,0.0,0.0,1.0,-5.85365867615,-27.8048782349,-25.6097564697,1.0,0.0,0.0,0.0,1.0,0.0,0.0,0.0,1.0,-0.852335791016,-1.90578452148,-10.6206785645,1.0,0.0,0.0,0.0,1.0,0.0,0.0,0.0,1.0
1463470366945400890,521,1463470366942362146,,-4.75559091568,-4.51570415497,-169.475891113,0.0100339995697,1.0,0.0,0.0,0.0,1.0,0.0,0.0,0.0,1.0,-9.14634132385,-27.1341457367,-28.2317066193,1.0,0.0,0.0,0.0,1.0,0.0,0.0,0.0,1.0,-0.986411083984,-1.70945998535,-10.6398321777,1.0,0.0,0.0,0.0,1.0,0.0,0.0,0.0,1.0
1463470366955471287,522,1463470366952353272,,-4.89877319336,-4.77753829956,-169.877792358,0.00996800046414,1.0,0.0,0.0,0.0,1.0,0.0,0.0,0.0,1.0,-11.8292684555,-26.2195129395,-31.2195129395,1.0,0.0,0.0,0.0,1.0,0.0,0.0,0.0,1.0,-0.852335791016,-1.87226569824,-10.7308118408,1.0,0.0,0.0,0.0,1.0,0.0,0.0,0.0,1.0
1463470366965393195,523,1463470366962323722,,-5.06804656982,-5.03144216537,-170.308578491,0.0100050000474,1.0,0.0,0.0,0.0,1.0,0.0,0.0,0.0,1.0,-14.4512205124,-25.5487804413,-33.9024391174,1.0,0.0,0.0,0.0,1.0,0.0,0.0,0.0,1.0,-0.804451757813,-1.80043964844,-10.8888291504,1.0,0.0,0.0,0.0,1.0,0.0,0.0,0.0,1.0
1463470366977528692,524,1463470366972298233,,-5.26650333405,-5.27220344543,-170.757904053,0.0100029995665,1.0,0.0,0.0,0.0,1.0,0.0,0.0,0.0,1.0,-16.4024391174,-24.6341457367,-35.7926826477,1.0,0.0,0.0,0.0,1.0,0.0,0.0,0.0,1.0,-0.713472094727,-1.48919343262,-10.8265799072,1.0,0.0,0.0,0.0,1.0,0.0,0.0,0.0,1.0
1463470366985504979,525,1463470366982711599,,-5.4933681488,-5.50649881363,-171.21685791,0.0101049998775,1.0,0.0,0.0,0.0,1.0,0.0,0.0,0.0,1.0,-18.658536911,-24.3902435303,-36.3414611816,1.0,0.0,0.0,0.0,1.0,0.0,0.0,0.0,1.0,-0.598550451572,-1.34075292969,-10.8936175537,1.0,0.0,0.0,0.0,1.0,0.0,0.0,0.0,1.0
1463470366995853708,526,1463470366992678142,,-5.73453998566,-5.72756242752,-171.664001465,0.0100290002301,1.0,0.0,0.0,0.0,1.0,0.0,0.0,0.0,1.0,-21.0975627899,-23.9024391174,-35.4268302917,1.0,0.0,0.0,0.0,1.0,0.0,0.0,0.0,1.0,-0.502782348633,-1.47003981934,-11.0707884766,1.0,0.0,0.0,0.0,1.0,0.0,0.0,0.0,1.0
1463470367005705877,527,1463470367002340623,,-5.98351240158,-5.94805860519,-172.096054077,0.00986600015312,1.0,0.0,0.0,0.0,1.0,0.0,0.0,0.0,1.0,-23.9024391174,-24.3902435303,-34.5731735229,1.0,0.0,0.0,0.0,1.0,0.0,0.0,0.0,1.0,-0.502782348633,-1.80522805176,-11.4873795654,1.0,0.0,0.0,0.0,1.0,0.0,0.0,0.0,1.0
1463470367015459087,528,1463470367012376957,,-6.25586938858,-6.16574430466,-172.527618408,0.0100250001997,1.0,0.0,0.0,0.0,1.0,0.0,0.0,0.0,1.0,-25.6097564697,-24.3292694092,-33.9024391174,1.0,0.0,0.0,0.0,1.0,0.0,0.0,0.0,1.0,-0.392649072266,-1.63284553223,-11.1330377197,1.0,0.0,0.0,0.0,1.0,0.0,0.0,0.0,1.0
1463470367025428547,529,1463470367022383240,,-6.53273820877,-6.39001131058,-172.941375732,0.00999599974602,1.0,0.0,0.0,0.0,1.0,0.0,0.0,0.0,1.0,-26.4024391174,-24.6951236725,-32.317073822,1.0,0.0,0.0,0.0,1.0,0.0,0.0,0.0,1.0,-0.512359155273,-1.68072956543,-11.4107651123,1.0,0.0,0.0,0.0,1.0,0.0,0.0,0.0,1.0
1463470367035476860,530,1463470367032383898,,-6.80109882355,-6.60191631317,-173.34072876,0.00997400004417,1.0,0.0,0.0,0.0,1.0,0.0,0.0,0.0,1.0,-26.7073173523,-22.7439041138,-30.6707305908,1.0,0.0,0.0,0.0,1.0,0.0,0.0,0.0,1.0,-0.699106884766,-1.84832368164,-11.3197854492,1.0,0.0,0.0,0.0,1.0,0.0,0.0,0.0,1.0
1463470367045349081,531,1463470367042413826,,-7.08165502548,-6.78777599335,-173.729309082,0.00999999977648,1.0,0.0,0.0,0.0,1.0,0.0,0.0,0.0,1.0,-25.2439041138,-21.0365848541,-29.6341457367,1.0,0.0,0.0,0.0,1.0,0.0,0.0,0.0,1.0,-0.541089611728,-1.23061965332,-11.2431709961,1.0,0.0,0.0,0.0,1.0,0.0,0.0,0.0,1.0
1463470367055499009,532,1463470367052363338,,-7.3407998085,-6.92161655426,-174.109909058,0.00999400019646,1.0,0.0,0.0,0.0,1.0,0.0,0.0,0.0,1.0,-20.4878044128,-19.4512195587,-29.0243911743,1.0,0.0,0.0,0.0,1.0,0.0,0.0,0.0,1.0,0.15322890625,-0.622492431641,-11.1138841064,1.0,0.0,0.0,0.0,1.0,0.0,0.0,0.0,1.0
1463470367068113984,533,1463470367063085609,,-7.49814605713,-7.05170488358,-174.493560791,0.0101490002126,1.0,0.0,0.0,0.0,1.0,0.0,0.0,0.0,1.0,-11.8292684555,-19.5731716156,-28.5975608826,1.0,0.0,0.0,0.0,1.0,0.0,0.0,0.0,1.0,0.282515795898,-0.900219824219,-10.8696755371,1.0,0.0,0.0,0.0,1.0,0.0,0.0,0.0,1.0
1463470367078092090,534,1463470367072903558,,-7.59739732742,-7.1976776123,-174.86416626,0.0101009998471,1.0,0.0,0.0,0.0,1.0,0.0,0.0,0.0,1.0,-5.0,-18.9634151459,-27.5609760284,1.0,0.0,0.0,0.0,1.0,0.0,0.0,0.0,1.0,-0.191536132812,-0.651222851562,-10.8505219238,1.0,0.0,0.0,0.0,1.0,0.0,0.0,0.0,1.0
1463470367085399419,535,1463470367082605258,,-7.66469097137,-7.3807477951,-175.200027466,0.00986099988222,1.0,0.0,0.0,0.0,1.0,0.0,0.0,0.0,1.0,-0.914634168148,-18.1707305908,-24.9390239716,1.0,0.0,0.0,0.0,1.0,0.0,0.0,0.0,1.0,-1.41736738281,-0.555454785156,-12.5551935059,1.0,0.0,0.0,0.0,1.0,0.0,0.0,0.0,1.0
1463470367097838770,536,1463470367092784353,,-7.70611000061,-7.50513458252,-175.52532959,0.0099849998951,1.0,0.0,0.0,0.0,1.0,0.0,0.0,0.0,1.0,4.75609779358,-12.9268293381,-23.1097564697,1.0,0.0,0.0,0.0,1.0,0.0,0.0,0.0,1.0,-1.27850368652,0.114921679688,-12.2343704834,1.0,0.0,0.0,0.0,1.0,0.0,0.0,0.0,1.0
1463470367107969063,537,1463470367102795896,,-7.71754837036,-7.58780622482,-175.834976196,0.0103620002046,1.0,0.0,0.0,0.0,1.0,0.0,0.0,0.0,1.0,7.68292665482,-8.04878044128,-19.6951236725,1.0,0.0,0.0,0.0,1.0,0.0,0.0,0.0,1.0,-1.46525141602,0.0287304199219,-12.1290256104,1.0,0.0,0.0,0.0,1.0,0.0,0.0,0.0,1.0
1463470367115439309,538,1463470367112436815,,-7.68619728088,-7.60846185684,-176.093322754,0.00962499994785,1.0,0.0,0.0,0.0,1.0,0.0,0.0,0.0,1.0,12.3170728683,-4.93902444839,-16.2195110321,1.0,0.0,0.0,0.0,1.0,0.0,0.0,0.0,1.0,-0.957680664062,0.0143652099609,-11.7459533447,1.0,0.0,0.0,0.0,1.0,0.0,0.0,0.0,1.0
1463470367125449029,539,1463470367122562941,,-7.6070227623,-7.56540489197,-176.329345703,0.0100760003552,1.0,0.0,0.0,0.0,1.0,0.0,0.0,0.0,1.0,15.4878053665,-2.19512200356,-12.1951217651,1.0,0.0,0.0,0.0,1.0,0.0,0.0,0.0,1.0,-0.272938989258,-0.349553442383,-10.673351001,1.0,0.0,0.0,0.0,1.0,0.0,0.0,0.0,1.0
1463470367135510780,540,1463470367132350630,,-7.4887046814,-7.48977470398,-176.530090332,0.00984199997038,1.0,0.0,0.0,0.0,1.0,0.0,0.0,0.0,1.0,19.9390239716,-1.03658533096,-9.02439117432,1.0,0.0,0.0,0.0,1.0,0.0,0.0,0.0,1.0,0.076614453125,-0.378283862305,-10.3477395752,1.0,0.0,0.0,0.0,1.0,0.0,0.0,0.0,1.0
1463470367145469354,541,1463470367142458579,,-7.31630897522,-7.4008307457,-176.706741333,0.010037000291,1.0,0.0,0.0,0.0,1.0,0.0,0.0,0.0,1.0,24.6951236725,-1.46341466904,-6.21951246262,1.0,0.0,0.0,0.0,1.0,0.0,0.0,0.0,1.0,0.301669427446,-0.526724328702,-9.89762966309,1.0,0.0,0.0,0.0,1.0,0.0,0.0,0.0,1.0
1463470367155486887,542,1463470367152370747,,-7.14281845093,-7.27133846283,-176.83833313,0.00996499974281,1.0,0.0,0.0,0.0,1.0,0.0,0.0,0.0,1.0,27.1951236725,-0.792682945728,-2.01219511032,1.0,0.0,0.0,0.0,1.0,0.0,0.0,0.0,1.0,0.785298144531,-0.248996972656,-9.40442353657,1.0,0.0,0.0,0.0,1.0,0.0,0.0,0.0,1.0
1463470367165748169,543,1463470367162449894,,-6.96069478989,-7.14368629456,-176.901824951,0.010006999597,1.0,0.0,0.0,0.0,1.0,0.0,0.0,0.0,1.0,30.9146327972,-1.76829278469,4.39024400711,1.0,0.0,0.0,0.0,1.0,0.0,0.0,0.0,1.0,0.742202514648,0.067037651051,-8.93994899902,1.0,0.0,0.0,0.0,1.0,0.0,0.0,0.0,1.0
1463470367175443098,544,1463470367172307115,,-6.74973726273,-7.00257921219,-176.919418335,0.00999400019646,1.0,0.0,0.0,0.0,1.0,0.0,0.0,0.0,1.0,32.865852356,-2.01219511032,9.08536529541,1.0,0.0,0.0,0.0,1.0,0.0,0.0,0.0,1.0,0.952892260742,-0.215478149414,-9.1219083252,1.0,0.0,0.0,0.0,1.0,0.0,0.0,0.0,1.0
1463470367187940261,545,1463470367182988969,,-6.52236938477,-6.89113903046,-176.8697052,0.0101110003889,1.0,0.0,0.0,0.0,1.0,0.0,0.0,0.0,1.0,34.0853691101,-3.7804877758,15.6097564697,1.0,0.0,0.0,0.0,1.0,0.0,0.0,0.0,1.0,0.627280834961,-0.402225878906,-9.07881269531,1.0,0.0,0.0,0.0,1.0,0.0,0.0,0.0,1.0
1463470367198211231,546,1463470367193104782,,-6.28452301025,-6.79096412659,-176.778198242,0.0100919995457,1.0,0.0,0.0,0.0,1.0,0.0,0.0,0.0,1.0,34.2073173523,-3.90243911743,19.8780498505,1.0,0.0,0.0,0.0,1.0,0.0,0.0,0.0,1.0,0.421379492187,-0.679953271484,-9.16021555176,1.0,0.0,0.0,0.0,1.0,0.0,0.0,0.0,1.0
1463470367208064805,547,1463470367202852003,,-6.05381345749,-6.71660137177,-176.656860352,0.00990500021726,1.0,0.0,0.0,0.0,1.0,0.0,0.0,0.0,1.0,32.2560958862,-3.71951246262,23.2926845551,1.0,0.0,0.0,0.0,1.0,0.0,0.0,0.0,1.0,-0.0335188255255,-1.10612116699,-9.55286520855,1.0,0.0,0.0,0.0,1.0,0.0,0.0,0.0,1.0
1463470367215305937,548,1463470367212287349,,-5.8443365097,-6.65494680405,-176.514541626,0.00988900009543,1.0,0.0,0.0,0.0,1.0,0.0,0.0,0.0,1.0,29.6951236725,-3.10975623131,25.5487804413,1.0,0.0,0.0,0.0,1.0,0.0,0.0,0.0,1.0,-0.383072265625,-1.30723410645,-9.85932243652,1.0,0.0,0.0,0.0,1.0,0.0,0.0,0.0,1.0
1463470367228390026,549,1463470367223226495,,-5.67300319672,-6.59222412109,-176.358566284,0.010108999908,1.0,0.0,0.0,0.0,1.0,0.0,0.0,0.0,1.0,26.2195129395,-1.52439022064,26.6463432312,1.0,0.0,0.0,0.0,1.0,0.0,0.0,0.0,1.0,-0.684741674805,-1.25456166992,-10.0939541992,1.0,0.0,0.0,0.0,1.0,0.0,0.0,0.0,1.0
1463470367235642877,550,1463470367232778924,,-5.52174520493,-6.54227876663,-176.207321167,0.00998799968511,1.0,0.0,0.0,0.0,1.0,0.0,0.0,0.0,1.0,23.2317085266,0.18292683363,26.6463432312,1.0,0.0,0.0,0.0,1.0,0.0,0.0,0.0,1.0,-1.20667770978,-1.5322890625,-10.2471831055,1.0,0.0,0.0,0.0,1.0,0.0,0.0,0.0,1.0
1463470367245646399,551,1463470367242572499,,-5.39420604706,-6.47848129272,-176.066055298,0.0101330000907,1.0,0.0,0.0,0.0,1.0,0.0,0.0,0.0,1.0,20.3048782349,3.04878044128,25.7317085266,1.0,0.0,0.0,0.0,1.0,0.0,0.0,0.0,1.0,-1.47961662598,-1.62805712891,-10.3621047852,1.0,0.0,0.0,0.0,1.0,0.0,0.0,0.0,1.0
1463470367255717108,552,1463470367252419146,,-5.3300447464,-6.38592720032,-175.932357788,0.00983200035989,1.0,0.0,0.0,0.0,1.0,0.0,0.0,0.0,1.0,17.0731716156,6.58536624908,25.3658542633,1.0,0.0,0.0,0.0,1.0,0.0,0.0,0.0,1.0,-1.56101948242,-1.11090957031,-10.5296989014,1.0,0.0,0.0,0.0,1.0,0.0,0.0,0.0,1.0
1463470367268244844,553,1463470367262785949,,-5.32179927826,-6.2526307106,-175.79574585,0.0100999996066,1.0,0.0,0.0,0.0,1.0,0.0,0.0,0.0,1.0,14.6341466904,10.3048782349,25.2439041138,1.0,0.0,0.0,0.0,1.0,0.0,0.0,0.0,1.0,-1.5562310791,-0.493205541992,-10.7164466309,1.0,0.0,0.0,0.0,1.0,0.0,0.0,0.0,1.0
1463470367275440195,554,1463470367272711606,,-5.26456928253,-6.10501480103,-175.689727783,0.00992800015956,1.0,0.0,0.0,0.0,1.0,0.0,0.0,0.0,1.0,16.158536911,12.9878053665,22.9878044128,1.0,0.0,0.0,0.0,1.0,0.0,0.0,0.0,1.0,-1.66157595215,-1.09175595703,-10.6111017578,1.0,0.0,0.0,0.0,1.0,0.0,0.0,0.0,1.0
1463470367287788713,555,1463470367282912993,,-5.19385480881,-5.93683862686,-175.615539551,0.00993700046092,1.0,0.0,0.0,0.0,1.0,0.0,0.0,0.0,1.0,16.8902435303,14.6951217651,19.9390239716,1.0,0.0,0.0,0.0,1.0,0.0,0.0,0.0,1.0,-1.47961662598,-1.12527478027,-10.405200415,1.0,0.0,0.0,0.0,1.0,0.0,0.0,0.0,1.0
1463470367298279630,556,1463470367292523860,,-5.11573982239,-5.73160266876,-175.569168091,0.010053999722,1.0,0.0,0.0,0.0,1.0,0.0,0.0,0.0,1.0,18.2317085266,16.158536911,17.0731716156,1.0,0.0,0.0,0.0,1.0,0.0,0.0,0.0,1.0,-0.995987890625,-0.91458503418,-10.1609918457,1.0,0.0,0.0,0.0,1.0,0.0,0.0,0.0,1.0
1463470367307728205,557,1463470367302613840,,-5.1034784317,-5.52501440048,-175.51914978,0.00992299988866,1.0,0.0,0.0,0.0,1.0,0.0,0.0,0.0,1.0,16.5853652954,14.0853662491,16.7682933807,1.0,0.0,0.0,0.0,1.0,0.0,0.0,0.0,1.0,-0.445321508789,-0.0287304199219,-8.75320126953,1.0,0.0,0.0,0.0,1.0,0.0,0.0,0.0,1.0
1463470367315348034,558,1463470367312353300,,-4.99094629288,-5.30184030533,-175.509521484,0.00999299995601,1.0,0.0,0.0,0.0,1.0,0.0,0.0,0.0,1.0,22.5609760284,15.6097564697,13.1707324982,1.0,0.0,0.0,0.0,1.0,0.0,0.0,0.0,1.0,-0.387860668945,-0.656011254883,-9.50019277202,1.0,0.0,0.0,0.0,1.0,0.0,0.0,0.0,1.0
1463470367327859989,559,1463470367323003748,,-4.87034130096,-5.08876657486,-175.503631592,0.0101840002462,1.0,0.0,0.0,0.0,1.0,0.0,0.0,0.0,1.0,25.9146347046,14.0853662491,12.3170728683,1.0,0.0,0.0,0.0,1.0,0.0,0.0,0.0,1.0,-0.335188232422,-0.201112939453,-9.79707319336,1.0,0.0,0.0,0.0,1.0,0.0,0.0,0.0,1.0
1463470367337577157,560,1463470367332843989,,-4.70483875275,-4.88052845001,-175.498199463,0.0100309997797,1.0,0.0,0.0,0.0,1.0,0.0,0.0,0.0,1.0,27.5,12.8048782349,12.3780488968,1.0,0.0,0.0,0.0,1.0,0.0,0.0,0.0,1.0,-0.0957680664062,-0.723048901367,-9.33259748677,1.0,0.0,0.0,0.0,1.0,0.0,0.0,0.0,1.0
1463470367347688544,561,1463470367342605689,,-4.52482748032,-4.68494653702,-175.482772827,0.00995200034231,1.0,0.0,0.0,0.0,1.0,0.0,0.0,0.0,1.0,28.6585388184,11.4634151459,13.2317075729,1.0,0.0,0.0,0.0,1.0,0.0,0.0,0.0,1.0,-0.0335188255255,-0.833182177734,-9.29907866352,1.0,0.0,0.0,0.0,1.0,0.0,0.0,0.0,1.0
1463470367355428633,562,1463470367352407545,,-4.33943271637,-4.48090839386,-175.449615479,0.00990900024772,1.0,0.0,0.0,0.0,1.0,0.0,0.0,0.0,1.0,27.7439041138,10.548781395,15.0000009537,1.0,0.0,0.0,0.0,1.0,0.0,0.0,0.0,1.0,0.282515795898,-1.12527478027,-9.13148513184,1.0,0.0,0.0,0.0,1.0,0.0,0.0,0.0,1.0
1463470367367080537,563,1463470367362563306,,-4.16896390915,-4.29830026627,-175.389022827,0.00992599967867,1.0,0.0,0.0,0.0,1.0,0.0,0.0,0.0,1.0,27.5609760284,8.84146404266,17.4390239716,1.0,0.0,0.0,0.0,1.0,0.0,0.0,0.0,1.0,0.205901342773,-0.972045874023,-9.22246479492,1.0,0.0,0.0,0.0,1.0,0.0,0.0,0.0,1.0
1463470367377070309,564,1463470367372204902,,-3.98324179649,-4.11583518982,-175.318313599,0.0099950004369,1.0,0.0,0.0,0.0,1.0,0.0,0.0,0.0,1.0,26.4024391174,8.10975551605,18.475610733,1.0,0.0,0.0,0.0,1.0,0.0,0.0,0.0,1.0,0.339976635742,-1.47482822266,-9.39963513325,1.0,0.0,0.0,0.0,1.0,0.0,0.0,0.0,1.0
1463470367388049923,565,1463470367382552122,,-3.79033875465,-3.95574975014,-175.25189209,0.0101169999689,1.0,0.0,0.0,0.0,1.0,0.0,0.0,0.0,1.0,23.7195129395,7.07317113876,18.0487823486,1.0,0.0,0.0,0.0,1.0,0.0,0.0,0.0,1.0,0.15322890625,-2.04464821777,-9.33259748677,1.0,0.0,0.0,0.0,1.0,0.0,0.0,0.0,1.0
1463470367394883921,566,1463470367392542206,,-3.65946698189,-3.80423998833,-175.173355103,0.00995399989188,1.0,0.0,0.0,0.0,1.0,0.0,0.0,0.0,1.0,19.2073173523,7.19512224197,19.2073173523,1.0,0.0,0.0,0.0,1.0,0.0,0.0,0.0,1.0,0.0430956298828,-1.84832368164,-9.39005832661,1.0,0.0,0.0,0.0,1.0,0.0,0.0,0.0,1.0
1463470367405574212,567,1463470367402607551,,-3.58039498329,-3.66413664818,-175.091079712,0.0101789999753,1.0,0.0,0.0,0.0,1.0,0.0,0.0,0.0,1.0,13.2317075729,7.31707334518,19.3902435303,1.0,0.0,0.0,0.0,1.0,0.0,0.0,0.0,1.0,-0.205901342773,-2.05422502441,-9.77313117676,1.0,0.0,0.0,0.0,1.0,0.0,0.0,0.0,1.0
1463470367415629453,568,1463470367412780136,,-3.55996990204,-3.53849482536,-175.01071167,0.00985199958086,1.0,0.0,0.0,0.0,1.0,0.0,0.0,0.0,1.0,6.46341466904,6.70731735229,19.4512195587,1.0,0.0,0.0,0.0,1.0,0.0,0.0,0.0,1.0,-0.263362164351,-2.37983659633,-10.2711251221,1.0,0.0,0.0,0.0,1.0,0.0,0.0,0.0,1.0
1463470367425303913,569,1463470367422765429,,-3.62284708023,-3.41231513023,-174.919403076,0.0100670000538,1.0,0.0,0.0,0.0,1.0,0.0,0.0,0.0,1.0,-2.25609779358,8.84146404266,20.4878044128,1.0,0.0,0.0,0.0,1.0,0.0,0.0,0.0,1.0,-0.713472094727,-2.55700737305,-10.6063133545,1.0,0.0,0.0,0.0,1.0,0.0,0.0,0.0,1.0
1463470367435492852,570,1463470367432403639,,-3.75627589226,-3.29072737694,-174.841369629,0.00985000003129,1.0,0.0,0.0,0.0,1.0,0.0,0.0,0.0,1.0,-10.1219511032,10.2439022064,19.4512195587,1.0,0.0,0.0,0.0,1.0,0.0,0.0,0.0,1.0,-1.04387185076,-2.80121594238,-11.2000753662,1.0,0.0,0.0,0.0,1.0,0.0,0.0,0.0,1.0
1463470367445131166,571,1463470367442440859,,-3.97505784035,-3.15223288536,-174.77961731,0.0099950004369,1.0,0.0,0.0,0.0,1.0,0.0,0.0,0.0,1.0,-19.7560977936,12.2560977936,17.9268302917,1.0,0.0,0.0,0.0,1.0,0.0,0.0,0.0,1.0,-1.09654436035,-3.00711728516,-11.0947304932,1.0,0.0,0.0,0.0,1.0,0.0,0.0,0.0,1.0
1463470367455508438,572,1463470367452141153,,-4.32873344421,-2.9961438179,-174.716888428,0.009990000166,1.0,0.0,0.0,0.0,1.0,0.0,0.0,0.0,1.0,-29.7560997009,15.6707315445,18.1097564697,1.0,0.0,0.0,0.0,1.0,0.0,0.0,0.0,1.0,-1.44130939941,-2.26012636719,-11.3772462891,1.0,0.0,0.0,0.0,1.0,0.0,0.0,0.0,1.0
1463470367464567378,573,1463470367462528372,,-4.76047468185,-2.8190112114,-174.649291992,0.010098000057,1.0,0.0,0.0,0.0,1.0,0.0,0.0,0.0,1.0,-37.317073822,18.4146347046,18.841463089,1.0,0.0,0.0,0.0,1.0,0.0,0.0,0.0,1.0,-1.6041151123,-2.24097275391,-11.3963999023,1.0,0.0,0.0,0.0,1.0,0.0,0.0,0.0,1.0
1463470367474321526,574,1463470367472269759,,-5.2279458046,-2.62163734436,-174.595306396,0.00991700030863,1.0,0.0,0.0,0.0,1.0,0.0,0.0,0.0,1.0,-43.2317085266,22.0121955872,18.1097564697,1.0,0.0,0.0,0.0,1.0,0.0,0.0,0.0,1.0,-1.81001645508,-2.45645090332,-11.2910550293,1.0,0.0,0.0,0.0,1.0,0.0,0.0,0.0,1.0
1463470367484448433,575,1463470367482240834,,-5.76303672791,-2.39271831512,-174.546524048,0.0100189996883,1.0,0.0,0.0,0.0,1.0,0.0,0.0,0.0,1.0,-48.4146347046,26.158536911,18.0487823486,1.0,0.0,0.0,0.0,1.0,0.0,0.0,0.0,1.0,-2.03028300781,-2.13083962367,-11.3437274658,1.0,0.0,0.0,0.0,1.0,0.0,0.0,0.0,1.0
1463470367495547526,576,1463470367492279616,,-6.30337381363,-2.13369894028,-174.51701355,0.0100010000169,1.0,0.0,0.0,0.0,1.0,0.0,0.0,0.0,1.0,-49.5731735229,30.4878044128,16.8292694092,1.0,0.0,0.0,0.0,1.0,0.0,0.0,0.0,1.0,-2.24576115723,-2.14041643031,-11.4107651123,1.0,0.0,0.0,0.0,1.0,0.0,0.0,0.0,1.0
1463470367504460634,577,1463470367502270951,,-6.84584236145,-1.84018445015,-174.505645752,0.00999899953604,1.0,0.0,0.0,0.0,1.0,0.0,0.0,0.0,1.0,-50.6097564697,33.1097564697,15.6097564697,1.0,0.0,0.0,0.0,1.0,0.0,0.0,0.0,1.0,-1.96803376465,-2.15478164027,-11.3006318359,1.0,0.0,0.0,0.0,1.0,0.0,0.0,0.0,1.0
1463470367514430511,578,1463470367512254004,,-7.406935215,-1.49260079861,-174.491943359,0.00998099986464,1.0,0.0,0.0,0.0,1.0,0.0,0.0,0.0,1.0,-50.4878082275,36.8292694092,16.5243911743,1.0,0.0,0.0,0.0,1.0,0.0,0.0,0.0,1.0,-1.5083470459,-1.52750065918,-10.9654436035,1.0,0.0,0.0,0.0,1.0,0.0,0.0,0.0,1.0
1463470367524750438,579,1463470367522475807,,-7.96518230438,-1.11039161682,-174.451171875,0.00998600013554,1.0,0.0,0.0,0.0,1.0,0.0,0.0,0.0,1.0,-49.1463432312,36.5853652954,19.5121955872,1.0,0.0,0.0,0.0,1.0,0.0,0.0,0.0,1.0,-0.809240161133,-1.22583125,-11.2000753662,1.0,0.0,0.0,0.0,1.0,0.0,0.0,0.0,1.0
1463470367534663700,580,1463470367532295840,,-8.54128360748,-0.691182851791,-174.348068237,0.0100320000201,1.0,0.0,0.0,0.0,1.0,0.0,0.0,0.0,1.0,-46.2804908752,34.817073822,25.7317085266,1.0,0.0,0.0,0.0,1.0,0.0,0.0,0.0,1.0,0.114921679688,-0.220266552734,-10.6398321777,1.0,0.0,0.0,0.0,1.0,0.0,0.0,0.0,1.0
1463470367544477327,581,1463470367542180769,,-9.07517242432,-0.248883485794,-174.163589478,0.00998799968511,1.0,0.0,0.0,0.0,1.0,0.0,0.0,0.0,1.0,-40.7317085266,32.682926178,33.9634132385,1.0,0.0,0.0,0.0,1.0,0.0,0.0,0.0,1.0,0.775721337891,0.177170922852,-10.285490332,1.0,0.0,0.0,0.0,1.0,0.0,0.0,0.0,1.0
1463470367554762672,582,1463470367552567676,,-9.54774570465,0.106862217188,-173.871505737,0.0100060002878,1.0,0.0,0.0,0.0,1.0,0.0,0.0,0.0,1.0,-36.4634170532,22.682926178,43.4146347046,1.0,0.0,0.0,0.0,1.0,0.0,0.0,0.0,1.0,0.823605371094,-0.0718260498047,-11.2575362061,1.0,0.0,0.0,0.0,1.0,0.0,0.0,0.0,1.0
1463470367564317236,583,1463470367562238907,,-9.95563316345,0.426618039608,-173.491943359,0.00999199971557,1.0,0.0,0.0,0.0,1.0,0.0,0.0,0.0,1.0,-31.5243930817,19.0243911743,51.8292694092,1.0,0.0,0.0,0.0,1.0,0.0,0.0,0.0,1.0,0.550666381836,-0.220266552734,-10.8170031006,1.0,0.0,0.0,0.0,1.0,0.0,0.0,0.0,1.0
1463470367574591070,584,1463470367572261439,,-10.297205925,0.663592040539,-173.036987305,0.00998200010508,1.0,0.0,0.0,0.0,1.0,0.0,0.0,0.0,1.0,-26.3414649963,14.7560987473,58.8414649963,1.0,0.0,0.0,0.0,1.0,0.0,0.0,0.0,1.0,-0.45968671875,-0.378283862305,-11.0660000732,1.0,0.0,0.0,0.0,1.0,0.0,0.0,0.0,1.0
1463470367584457562,585,1463470367582182410,,-10.5750980377,0.858374297619,-172.51210022,0.0100170001388,1.0,0.0,0.0,0.0,1.0,0.0,0.0,0.0,1.0,-20.3658542633,10.6097564697,65.0609741211,1.0,0.0,0.0,0.0,1.0,0.0,0.0,0.0,1.0,-0.727837304687,-0.363918652344,-11.0707884766,1.0,0.0,0.0,0.0,1.0,0.0,0.0,0.0,1.0
1463470367594825250,586,1463470367592446608,,-10.8120937347,1.07453680038,-171.923843384,0.00999800022691,1.0,0.0,0.0,0.0,1.0,0.0,0.0,0.0,1.0,-13.7195129395,10.7317075729,71.707321167,1.0,0.0,0.0,0.0,1.0,0.0,0.0,0.0,1.0,-0.560243188477,0.263362164351,-10.8122146973,1.0,0.0,0.0,0.0,1.0,0.0,0.0,0.0,1.0
1463470367605522885,587,1463470367602262944,,-10.9740304947,1.28042149544,-171.274429321,0.0100020002574,1.0,0.0,0.0,0.0,1.0,0.0,0.0,0.0,1.0,-6.34146356583,7.86585378647,77.3780517578,1.0,0.0,0.0,0.0,1.0,0.0,0.0,0.0,1.0,-0.426167895508,0.349553442383,-10.8600987305,1.0,0.0,0.0,0.0,1.0,0.0,0.0,0.0,1.0
1463470367615786198,588,1463470367612208185,,-11.0416870117,1.46836185455,-170.580093384,0.00999400019646,1.0,0.0,0.0,0.0,1.0,0.0,0.0,0.0,1.0,2.86585378647,5.12195110321,81.4634170532,1.0,0.0,0.0,0.0,1.0,0.0,0.0,0.0,1.0,-0.368707055664,0.383072265625,-10.3429511719,1.0,0.0,0.0,0.0,1.0,0.0,0.0,0.0,1.0
1463470367625381492,589,1463470367622555144,,-10.9749040604,1.63594281673,-169.85585022,0.0100320000201,1.0,0.0,0.0,0.0,1.0,0.0,0.0,0.0,1.0,13.2317075729,3.10975623131,83.7195129395,1.0,0.0,0.0,0.0,1.0,0.0,0.0,0.0,1.0,-0.430956298828,-0.119710083008,-10.1370498291,1.0,0.0,0.0,0.0,1.0,0.0,0.0,0.0,1.0
1463470367635116265,590,1463470367632357520,,-10.8512563705,1.7743948698,-169.093658447,0.00997400004417,1.0,0.0,0.0,0.0,1.0,0.0,0.0,0.0,1.0,20.0609760284,1.64634156227,87.6829299927,1.0,0.0,0.0,0.0,1.0,0.0,0.0,0.0,1.0,-0.713472094727,0.110133276367,-9.44751916645,1.0,0.0,0.0,0.0,1.0,0.0,0.0,0.0,1.0
1463470367645627703,591,1463470367642405001,,-10.6499481201,1.93139469624,-168.300460815,0.00999999977648,1.0,0.0,0.0,0.0,1.0,0.0,0.0,0.0,1.0,25.9146347046,2.31707310677,90.6097564697,1.0,0.0,0.0,0.0,1.0,0.0,0.0,0.0,1.0,-0.536301208408,-0.172382519531,-9.18415756836,1.0,0.0,0.0,0.0,1.0,0.0,0.0,0.0,1.0
1463470367654492165,592,1463470367652251700,,-10.3994560242,2.06593728065,-167.465591431,0.00999599974602,1.0,0.0,0.0,0.0,1.0,0.0,0.0,0.0,1.0,29.0853672028,1.03658533096,94.4512176514,1.0,0.0,0.0,0.0,1.0,0.0,0.0,0.0,1.0,-0.718260498047,-0.430956298828,-8.93037219238,1.0,0.0,0.0,0.0,1.0,0.0,0.0,0.0,1.0
1463470367664923030,593,1463470367662295431,,-10.1781797409,2.23761057854,-166.571533203,0.0100870002061,1.0,0.0,0.0,0.0,1.0,0.0,0.0,0.0,1.0,29.8780498505,3.29268312454,100.060974121,1.0,0.0,0.0,0.0,1.0,0.0,0.0,0.0,1.0,-0.574608398438,0.225054956055,-8.78193168945,1.0,0.0,0.0,0.0,1.0,0.0,0.0,0.0,1.0
1463470367675035302,594,1463470367672355307,,-9.91708850861,2.40167856216,-165.675888062,0.00991499982774,1.0,0.0,0.0,0.0,1.0,0.0,0.0,0.0,1.0,33.4756126404,4.08536577225,101.768295288,1.0,0.0,0.0,0.0,1.0,0.0,0.0,0.0,1.0,-0.737414111328,0.114921679688,-8.82981572266,1.0,0.0,0.0,0.0,1.0,0.0,0.0,0.0,1.0
1463470367685196532,595,1463470367682329767,,-9.58305358887,2.55212306976,-164.777877808,0.0100320000201,1.0,0.0,0.0,0.0,1.0,0.0,0.0,0.0,1.0,35.1829299927,5.67073154449,100.853660583,1.0,0.0,0.0,0.0,1.0,0.0,0.0,0.0,1.0,-1.06302561017,-0.708683691406,-8.3749168227,1.0,0.0,0.0,0.0,1.0,0.0,0.0,0.0,1.0
1463470367695264012,596,1463470367692380320,,-9.26053905487,2.69688272476,-163.911224365,0.00996400043368,1.0,0.0,0.0,0.0,1.0,0.0,0.0,0.0,1.0,35.0000038147,9.02439117432,98.7195129395,1.0,0.0,0.0,0.0,1.0,0.0,0.0,0.0,1.0,-1.50355864258,-0.646434448242,-8.45631967915,1.0,0.0,0.0,0.0,1.0,0.0,0.0,0.0,1.0
1463470367707584249,597,1463470367702537279,,-8.91192626953,2.85138225555,-163.072998047,0.0100440001115,1.0,0.0,0.0,0.0,1.0,0.0,0.0,0.0,1.0,34.7560997009,12.1951217651,95.3658599854,1.0,0.0,0.0,0.0,1.0,0.0,0.0,0.0,1.0,-1.69988317871,-1.11090957031,-8.48983967144,1.0,0.0,0.0,0.0,1.0,0.0,0.0,0.0,1.0
1463470367715378348,598,1463470367712354864,,-8.56814098358,3.05221748352,-162.295944214,0.00996599998325,1.0,0.0,0.0,0.0,1.0,0.0,0.0,0.0,1.0,33.4146347046,17.0121955872,90.3048858643,1.0,0.0,0.0,0.0,1.0,0.0,0.0,0.0,1.0,-1.51313544922,-1.36948334961,-8.68616362305,1.0,0.0,0.0,0.0,1.0,0.0,0.0,0.0,1.0
1463470367725058433,599,1463470367722209637,,-8.26290130615,3.29527926445,-161.571060181,0.00998600013554,1.0,0.0,0.0,0.0,1.0,0.0,0.0,0.0,1.0,33.1707305908,18.5975627899,85.0609817505,1.0,0.0,0.0,0.0,1.0,0.0,0.0,0.0,1.0,-0.804451757813,-0.751779321289,-8.18338127441,1.0,0.0,0.0,0.0,1.0,0.0,0.0,0.0,1.0
1463470367734734769,600,1463470367732620658,,-7.95918035507,3.53383970261,-160.879455566,0.0103019997478,1.0,0.0,0.0,0.0,1.0,0.0,0.0,0.0,1.0,29.6341457367,22.4390239716,79.7560958862,1.0,0.0,0.0,0.0,1.0,0.0,0.0,0.0,1.0,-1.43173259277,-1.25456166992,-8.60954975444,1.0,0.0,0.0,0.0,1.0,0.0,0.0,0.0,1.0
1463470367744205948,601,1463470367742167827,,-7.68516731262,3.76185560226,-160.290512085,0.00969799980521,1.0,0.0,0.0,0.0,1.0,0.0,0.0,0.0,1.0,27.8658542633,24.3292694092,73.2926864624,1.0,0.0,0.0,0.0,1.0,0.0,0.0,0.0,1.0,-1.57538469238,-1.53707746582,-9.32780908345,1.0,0.0,0.0,0.0,1.0,0.0,0.0,0.0,1.0
1463470367754665355,602,1463470367752219787,,-7.44846582413,3.99556255341,-159.745864868,0.00999599974602,1.0,0.0,0.0,0.0,1.0,0.0,0.0,0.0,1.0,25.0,25.182926178,67.0121994019,1.0,0.0,0.0,0.0,1.0,0.0,0.0,0.0,1.0,-1.47482822266,-1.27850368652,-9.14106193848,1.0,0.0,0.0,0.0,1.0,0.0,0.0,0.0,1.0
1463470367766982414,603,1463470367762217996,,-7.23650503159,4.25593900681,-159.265960693,0.0100020002574,1.0,0.0,0.0,0.0,1.0,0.0,0.0,0.0,1.0,23.3536586761,27.8658542633,60.6707382202,1.0,0.0,0.0,0.0,1.0,0.0,0.0,0.0,1.0,-1.2737152832,-1.21625444336,-9.22725319824,1.0,0.0,0.0,0.0,1.0,0.0,0.0,0.0,1.0
1463470367774649743,604,1463470367772263914,,-7.00558614731,4.51584815979,-158.836883545,0.0100109996274,1.0,0.0,0.0,0.0,1.0,0.0,0.0,0.0,1.0,21.8902435303,27.8658542633,55.0609779358,1.0,0.0,0.0,0.0,1.0,0.0,0.0,0.0,1.0,-1.13485158691,-1.89141931152,-9.33738589009,1.0,0.0,0.0,0.0,1.0,0.0,0.0,0.0,1.0
1463470367785347483,605,1463470367782267593,,-6.8117184639,4.79550170898,-158.441497803,0.0100020002574,1.0,0.0,0.0,0.0,1.0,0.0,0.0,0.0,1.0,18.475610733,27.0121955872,51.4024391174,1.0,0.0,0.0,0.0,1.0,0.0,0.0,0.0,1.0,-0.478840332031,-1.79565124512,-8.9591026123,1.0,0.0,0.0,0.0,1.0,0.0,0.0,0.0,1.0
1463470367795096266,606,1463470367792263355,,-6.66753530502,5.08182048798,-158.062011719,0.00998200010508,1.0,0.0,0.0,0.0,1.0,0.0,0.0,0.0,1.0,14.6951217651,26.2804889679,49.6951217651,1.0,0.0,0.0,0.0,1.0,0.0,0.0,0.0,1.0,-0.148440512063,-1.65678754883,-9.18894597168,1.0,0.0,0.0,0.0,1.0,0.0,0.0,0.0,1.0
1463470367804744789,607,1463470367802155783,,-6.56910514832,5.36549043655,-157.682189941,0.0100029995665,1.0,0.0,0.0,0.0,1.0,0.0,0.0,0.0,1.0,10.7317075729,23.4146347046,49.207321167,1.0,0.0,0.0,0.0,1.0,0.0,0.0,0.0,1.0,0.296881024126,-1.35511813965,-8.08282480469,1.0,0.0,0.0,0.0,1.0,0.0,0.0,0.0,1.0
1463470367814347009,608,1463470367812264566,,-6.5350356102,5.62529659271,-157.292739868,0.0100149996579,1.0,0.0,0.0,0.0,1.0,0.0,0.0,0.0,1.0,6.46341466904,18.3536586761,49.634147644,1.0,0.0,0.0,0.0,1.0,0.0,0.0,0.0,1.0,0.756567724609,-1.05823706072,-8.50899328472,1.0,0.0,0.0,0.0,1.0,0.0,0.0,0.0,1.0
1463470367824406677,609,1463470367822243505,,-6.51303386688,5.87336921692,-156.895172119,0.00999899953604,1.0,0.0,0.0,0.0,1.0,0.0,0.0,0.0,1.0,4.20731735229,14.9390249252,49.9390258789,1.0,0.0,0.0,0.0,1.0,0.0,0.0,0.0,1.0,1.08217922346,-1.14442839355,-8.09240161133,1.0,0.0,0.0,0.0,1.0,0.0,0.0,0.0,1.0
1463470367835448843,610,1463470367832230568,,-6.50697135925,6.06207036972,-156.483551025,0.00998799968511,1.0,0.0,0.0,0.0,1.0,0.0,0.0,0.0,1.0,1.15853655338,8.35365867615,50.4268302917,1.0,0.0,0.0,0.0,1.0,0.0,0.0,0.0,1.0,1.26892687988,-1.40300217285,-8.5520889146,1.0,0.0,0.0,0.0,1.0,0.0,0.0,0.0,1.0
1463470367845229762,611,1463470367842250705,,-6.51874876022,6.24001026154,-156.057815552,0.0100100003183,1.0,0.0,0.0,0.0,1.0,0.0,0.0,0.0,1.0,-1.46341466904,2.25609779358,50.9146347046,1.0,0.0,0.0,0.0,1.0,0.0,0.0,0.0,1.0,2.03028300781,-1.5083470459,-8.36055161274,1.0,0.0,0.0,0.0,1.0,0.0,0.0,0.0,1.0
1463470367855035316,612,1463470367852201259,,-6.64615440369,6.3264503479,-155.599319458,0.0100029995665,1.0,0.0,0.0,0.0,1.0,0.0,0.0,0.0,1.0,-7.80487823486,-5.42682933807,53.9024391174,1.0,0.0,0.0,0.0,1.0,0.0,0.0,0.0,1.0,1.86747729492,-0.627280834961,-8.89206496582,1.0,0.0,0.0,0.0,1.0,0.0,0.0,0.0,1.0
1463470367865427066,613,1463470367862220354,,-6.77499055862,6.33682394028,-155.104858398,0.00998899992555,1.0,0.0,0.0,0.0,1.0,0.0,0.0,0.0,1.0,-12.2560977936,-12.9268293381,56.2195129395,1.0,0.0,0.0,0.0,1.0,0.0,0.0,0.0,1.0,1.84832368164,-1.28808049316,-9.1697923584,1.0,0.0,0.0,0.0,1.0,0.0,0.0,0.0,1.0
1463470367874265070,614,1463470367872248355,,-6.9219865799,6.25588417053,-154.603210449,0.0100020002574,1.0,0.0,0.0,0.0,1.0,0.0,0.0,0.0,1.0,-17.1951217651,-18.9024391174,55.7926826477,1.0,0.0,0.0,0.0,1.0,0.0,0.0,0.0,1.0,1.35990654297,-1.87705410156,-9.63426806499,1.0,0.0,0.0,0.0,1.0,0.0,0.0,0.0,1.0
1463470367884506300,615,1463470367882571720,,-7.10566091537,6.09601688385,-154.103668213,0.0103609999642,1.0,0.0,0.0,0.0,1.0,0.0,0.0,0.0,1.0,-21.8292694092,-25.7926845551,52.8048782349,1.0,0.0,0.0,0.0,1.0,0.0,0.0,0.0,1.0,1.36948334961,-2.33674067418,-10.1992990723,1.0,0.0,0.0,0.0,1.0,0.0,0.0,0.0,1.0
1463470367895742372,616,1463470367892302326,,-7.32047176361,5.88028430939,-153.679992676,0.00964600034058,1.0,0.0,0.0,0.0,1.0,0.0,0.0,0.0,1.0,-25.4268302917,-30.9146327972,47.9268302917,1.0,0.0,0.0,0.0,1.0,0.0,0.0,0.0,1.0,1.10133276367,-2.26491477051,-10.4099888184,1.0,0.0,0.0,0.0,1.0,0.0,0.0,0.0,1.0
1463470367905558967,617,1463470367902250692,,-7.58987855911,5.59716081619,-153.286437988,0.0099950004369,1.0,0.0,0.0,0.0,1.0,0.0,0.0,0.0,1.0,-27.8658542633,-36.1585350037,42.8658561707,1.0,0.0,0.0,0.0,1.0,0.0,0.0,0.0,1.0,1.02950671387,-1.92493813477,-10.5823713379,1.0,0.0,0.0,0.0,1.0,0.0,0.0,0.0,1.0
1463470367915461292,618,1463470367912214006,,-7.88913536072,5.26847839355,-152.929931641,0.00999599974602,1.0,0.0,0.0,0.0,1.0,0.0,0.0,0.0,1.0,-29.8170719147,-39.0243911743,38.7804870605,1.0,0.0,0.0,0.0,1.0,0.0,0.0,0.0,1.0,0.689530078125,-1.69030637207,-10.1178962158,1.0,0.0,0.0,0.0,1.0,0.0,0.0,0.0,1.0
1463470367924913304,619,1463470367922372164,,-8.17780780792,4.8992562294,-152.627410889,0.0100029995665,1.0,0.0,0.0,0.0,1.0,0.0,0.0,0.0,1.0,-29.4512195587,-40.7926826477,32.9268302917,1.0,0.0,0.0,0.0,1.0,0.0,0.0,0.0,1.0,0.339976635742,-1.95845695801,-10.4243540283,1.0,0.0,0.0,0.0,1.0,0.0,0.0,0.0,1.0
1463470367935023962,620,1463470367932188707,,-8.47058486938,4.50405883789,-152.374664307,0.00999400019646,1.0,0.0,0.0,0.0,1.0,0.0,0.0,0.0,1.0,-29.2073173523,-42.9268302917,27.6219520569,1.0,0.0,0.0,0.0,1.0,0.0,0.0,0.0,1.0,0.292092584273,-1.87226569824,-10.3477395752,1.0,0.0,0.0,0.0,1.0,0.0,0.0,0.0,1.0
1463470367945258109,621,1463470367942193896,,-8.75252246857,4.1167011261,-152.18850708,0.0100020002574,1.0,0.0,0.0,0.0,1.0,0.0,0.0,0.0,1.0,-27.8048782349,-41.7073173523,21.0365848541,1.0,0.0,0.0,0.0,1.0,0.0,0.0,0.0,1.0,0.316034619141,-1.92493813477,-10.5344873047,1.0,0.0,0.0,0.0,1.0,0.0,0.0,0.0,1.0
1463470367954740851,622,1463470367952167158,,-9.05146217346,3.70695757866,-152.034606934,0.0100010000169,1.0,0.0,0.0,0.0,1.0,0.0,0.0,0.0,1.0,-27.5609760284,-42.8658561707,17.6829280853,1.0,0.0,0.0,0.0,1.0,0.0,0.0,0.0,1.0,0.134075302102,-1.62805712891,-11.0803652832,1.0,0.0,0.0,0.0,1.0,0.0,0.0,0.0,1.0
1463470367964530675,623,1463470367962294690,,-9.35155677795,3.32825946808,-151.909057617,0.0100029995665,1.0,0.0,0.0,0.0,1.0,0.0,0.0,0.0,1.0,-26.9512195587,-41.5853652954,15.0000009537,1.0,0.0,0.0,0.0,1.0,0.0,0.0,0.0,1.0,0.488417138672,-1.4604630127,-10.9510783936,1.0,0.0,0.0,0.0,1.0,0.0,0.0,0.0,1.0
1463470367974786541,624,1463470367972165764,,-9.61428165436,2.97421455383,-151.77935791,0.00999800022691,1.0,0.0,0.0,0.0,1.0,0.0,0.0,0.0,1.0,-26.4634151459,-40.3658561707,15.3658533096,1.0,0.0,0.0,0.0,1.0,0.0,0.0,0.0,1.0,0.612915625,-2.03028300781,-10.6302553711,1.0,0.0,0.0,0.0,1.0,0.0,0.0,0.0,1.0
1463470367985009594,625,1463470367982338557,,-9.95180225372,2.64115715027,-151.628814697,0.0100239999592,1.0,0.0,0.0,0.0,1.0,0.0,0.0,0.0,1.0,-27.9878063202,-40.3658561707,17.6829280853,1.0,0.0,0.0,0.0,1.0,0.0,0.0,0.0,1.0,0.928950244141,-0.842758984375,-11.1474029297,1.0,0.0,0.0,0.0,1.0,0.0,0.0,0.0,1.0
1463470367995158897,626,1463470367992173017,,-10.2550449371,2.34343624115,-151.461959839,0.00997299980372,1.0,0.0,0.0,0.0,1.0,0.0,0.0,0.0,1.0,-26.2804889679,-39.4512214661,19.3902435303,1.0,0.0,0.0,0.0,1.0,0.0,0.0,0.0,1.0,1.23061965332,-1.06302561017,-10.7116582275,1.0,0.0,0.0,0.0,1.0,0.0,0.0,0.0,1.0
1463470368005231273,627,1463470368002271800,,-10.5443191528,2.05535316467,-151.288833618,0.0100260004401,1.0,0.0,0.0,0.0,1.0,0.0,0.0,0.0,1.0,-23.9024391174,-38.4146347046,20.0609760284,1.0,0.0,0.0,0.0,1.0,0.0,0.0,0.0,1.0,1.13006318359,-0.833182177734,-10.4770264648,1.0,0.0,0.0,0.0,1.0,0.0,0.0,0.0,1.0
1463470368014856671,628,1463470368012159853,,-10.7596874237,1.75004208088,-151.129104614,0.00997699983418,1.0,0.0,0.0,0.0,1.0,0.0,0.0,0.0,1.0,-18.7804889679,-37.6219520569,18.7804889679,1.0,0.0,0.0,0.0,1.0,0.0,0.0,0.0,1.0,0.61770402832,-1.22104284668,-10.5680061279,1.0,0.0,0.0,0.0,1.0,0.0,0.0,0.0,1.0
1463470368025636233,629,1463470368022169782,,-10.9388952255,1.46946954727,-150.996231079,0.00999899953604,1.0,0.0,0.0,0.0,1.0,0.0,0.0,0.0,1.0,-14.5121955872,-35.0000038147,16.5243911743,1.0,0.0,0.0,0.0,1.0,0.0,0.0,0.0,1.0,0.651222851562,-1.13485158691,-10.9702320068,1.0,0.0,0.0,0.0,1.0,0.0,0.0,0.0,1.0
1463470368034773351,630,1463470368032162366,,-11.0788345337,1.18375754356,-150.875915527,0.0100029995665,1.0,0.0,0.0,0.0,1.0,0.0,0.0,0.0,1.0,-12.4390249252,-30.3658542633,16.0975608826,1.0,0.0,0.0,0.0,1.0,0.0,0.0,0.0,1.0,-0.383072265625,-1.51313544922,-11.0707884766,1.0,0.0,0.0,0.0,1.0,0.0,0.0,0.0,1.0
1463470368045584007,631,1463470368042162816,,-11.1999940872,0.938705086708,-150.75428772,0.00999599974602,1.0,0.0,0.0,0.0,1.0,0.0,0.0,0.0,1.0,-11.6463422775,-27.7439041138,16.7682933807,1.0,0.0,0.0,0.0,1.0,0.0,0.0,0.0,1.0,-0.177170922852,-1.71903679199,-11.0516348633,1.0,0.0,0.0,0.0,1.0,0.0,0.0,0.0,1.0
1463470368055330238,632,1463470368052157796,,-11.3214082718,0.748796164989,-150.627563477,0.00999899953604,1.0,0.0,0.0,0.0,1.0,0.0,0.0,0.0,1.0,-11.7682924271,-23.1707324982,18.2317085266,1.0,0.0,0.0,0.0,1.0,0.0,0.0,0.0,1.0,-0.076614453125,-1.68072956543,-10.7834842773,1.0,0.0,0.0,0.0,1.0,0.0,0.0,0.0,1.0
1463470368064949230,633,1463470368062184235,,-11.4576005936,0.601477503777,-150.477005005,0.0100109996274,1.0,0.0,0.0,0.0,1.0,0.0,0.0,0.0,1.0,-11.8292684555,-20.1829280853,21.2804889679,1.0,0.0,0.0,0.0,1.0,0.0,0.0,0.0,1.0,0.0287304199219,-1.36948334961,-10.7739074707,1.0,0.0,0.0,0.0,1.0,0.0,0.0,0.0,1.0
1463470368074761033,634,1463470368072204632,,-11.6018352509,0.473395973444,-150.302886963,0.00999199971557,1.0,0.0,0.0,0.0,1.0,0.0,0.0,0.0,1.0,-11.5243911743,-19.0243911743,23.9634151459,1.0,0.0,0.0,0.0,1.0,0.0,0.0,0.0,1.0,0.0383072265625,-1.09654436035,-10.5871597412,1.0,0.0,0.0,0.0,1.0,0.0,0.0,0.0,1.0
1463470368084330129,635,1463470368082228154,,-11.7133131027,0.379128426313,-150.13494873,0.00999800022691,1.0,0.0,0.0,0.0,1.0,0.0,0.0,0.0,1.0,-8.5365858078,-16.2804889679,23.9024391174,1.0,0.0,0.0,0.0,1.0,0.0,0.0,0.0,1.0,0.138863696289,-1.10612116699,-10.299855542,1.0,0.0,0.0,0.0,1.0,0.0,0.0,0.0,1.0
1463470368094879952,636,1463470368092215479,,-11.7983121872,0.277494609356,-149.98223877,0.00999699998647,1.0,0.0,0.0,0.0,1.0,0.0,0.0,0.0,1.0,-4.14634132385,-15.1219511032,22.6219520569,1.0,0.0,0.0,0.0,1.0,0.0,0.0,0.0,1.0,-0.172382519531,-0.746990917969,-10.1083194092,1.0,0.0,0.0,0.0,1.0,0.0,0.0,0.0,1.0
1463470368104797225,637,1463470368102214574,,-11.8272781372,0.170691594481,-149.848861694,0.00999999977648,1.0,0.0,0.0,0.0,1.0,0.0,0.0,0.0,1.0,2.19512200356,-14.5731706619,20.7926826477,1.0,0.0,0.0,0.0,1.0,0.0,0.0,0.0,1.0,-0.320823022461,-0.61770402832,-10.3716815918,1.0,0.0,0.0,0.0,1.0,0.0,0.0,0.0,1.0
1463470368114215904,638,1463470368112234294,,-11.8289842606,0.100701369345,-149.732299805,0.0100159998983,1.0,0.0,0.0,0.0,1.0,0.0,0.0,0.0,1.0,8.78048801422,-12.6219520569,19.5121955872,1.0,0.0,0.0,0.0,1.0,0.0,0.0,0.0,1.0,0.0335188255255,0.100556469727,-9.81143840332,1.0,0.0,0.0,0.0,1.0,0.0,0.0,0.0,1.0
1463470368124727915,639,1463470368122196097,,-11.7183332443,0.018521765247,-149.643737793,0.00998300034553,1.0,0.0,0.0,0.0,1.0,0.0,0.0,0.0,1.0,17.9268302917,-12.6829271317,16.7073173523,1.0,0.0,0.0,0.0,1.0,0.0,0.0,0.0,1.0,-0.0861912597656,-0.287304199219,-10.2807019287,1.0,0.0,0.0,0.0,1.0,0.0,0.0,0.0,1.0
1463470368134180813,640,1463470368132230088,,-11.5274610519,-0.0807682946324,-149.562850952,0.0100090000778,1.0,0.0,0.0,0.0,1.0,0.0,0.0,0.0,1.0,24.7560977936,-13.7195129395,15.7317075729,1.0,0.0,0.0,0.0,1.0,0.0,0.0,0.0,1.0,-0.177170922852,-0.512359155273,-9.94072529297,1.0,0.0,0.0,0.0,1.0,0.0,0.0,0.0,1.0
1463470368144958188,641,1463470368142197517,,-11.283416748,-0.178020209074,-149.493515015,0.00998799968511,1.0,0.0,0.0,0.0,1.0,0.0,0.0,0.0,1.0,30.6097583771,-11.6463422775,15.0609760284,1.0,0.0,0.0,0.0,1.0,0.0,0.0,0.0,1.0,-0.493205541992,-0.46447512207,-10.0029745361,1.0,0.0,0.0,0.0,1.0,0.0,0.0,0.0,1.0
1463470368154905877,642,1463470368152316351,,-10.981470108,-0.287907987833,-149.433990479,0.0100100003183,1.0,0.0,0.0,0.0,1.0,0.0,0.0,0.0,1.0,34.3902435303,-11.5243911743,14.1463422775,1.0,0.0,0.0,0.0,1.0,0.0,0.0,0.0,1.0,-0.727837304687,-0.885854614258,-10.1753570557,1.0,0.0,0.0,0.0,1.0,0.0,0.0,0.0,1.0
1463470368164286067,643,1463470368162208363,,-10.6539916992,-0.390774160624,-149.382247925,0.00999299995601,1.0,0.0,0.0,0.0,1.0,0.0,0.0,0.0,1.0,35.8536605835,-10.4268293381,13.658536911,1.0,0.0,0.0,0.0,1.0,0.0,0.0,0.0,1.0,-0.799663354492,-1.16358193377,-10.2040874756,1.0,0.0,0.0,0.0,1.0,0.0,0.0,0.0,1.0
1463470368174690526,644,1463470368172220479,,-10.3371572495,-0.472563952208,-149.320114136,0.0100050000474,1.0,0.0,0.0,0.0,1.0,0.0,0.0,0.0,1.0,35.4268302917,-8.17073154449,15.1829271317,1.0,0.0,0.0,0.0,1.0,0.0,0.0,0.0,1.0,-0.866701000977,-1.08217922346,-10.0412817627,1.0,0.0,0.0,0.0,1.0,0.0,0.0,0.0,1.0
1463470368184370351,645,1463470368182209522,,-10.0206832886,-0.554050087929,-149.248779297,0.00999699998647,1.0,0.0,0.0,0.0,1.0,0.0,0.0,0.0,1.0,34.8780479431,-8.23170757294,16.158536911,1.0,0.0,0.0,0.0,1.0,0.0,0.0,0.0,1.0,-0.92416184082,-1.28808049316,-10.4099888184,1.0,0.0,0.0,0.0,1.0,0.0,0.0,0.0,1.0
1463470368194751164,646,1463470368192220388,,-9.71509361267,-0.625947833061,-149.1693573,0.0100010000169,1.0,0.0,0.0,0.0,1.0,0.0,0.0,0.0,1.0,33.5365867615,-7.56097555161,17.134147644,1.0,0.0,0.0,0.0,1.0,0.0,0.0,0.0,1.0,-0.876277807617,-1.35032973633,-10.0508585693,1.0,0.0,0.0,0.0,1.0,0.0,0.0,0.0,1.0
1463470368204643853,647,1463470368202207764,,-9.42605209351,-0.694679260254,-149.079879761,0.00999699998647,1.0,0.0,0.0,0.0,1.0,0.0,0.0,0.0,1.0,30.4878044128,-6.34146356583,18.4146347046,1.0,0.0,0.0,0.0,1.0,0.0,0.0,0.0,1.0,-1.12527478027,-1.74776721191,-10.4291424316,1.0,0.0,0.0,0.0,1.0,0.0,0.0,0.0,1.0
1463470368214166543,648,1463470368212240713,,-9.17621517181,-0.759366393089,-148.973403931,0.0100119998679,1.0,0.0,0.0,0.0,1.0,0.0,0.0,0.0,1.0,26.2195129395,-5.73170757294,20.2439022064,1.0,0.0,0.0,0.0,1.0,0.0,0.0,0.0,1.0,-1.2497732666,-1.91536132812,-10.6541973877,1.0,0.0,0.0,0.0,1.0,0.0,0.0,0.0,1.0
1463470368224674491,649,1463470368222226840,,-8.97062492371,-0.799973905087,-148.859405518,0.009990000166,1.0,0.0,0.0,0.0,1.0,0.0,0.0,0.0,1.0,21.0975627899,-3.96341490746,21.341463089,1.0,0.0,0.0,0.0,1.0,0.0,0.0,0.0,1.0,-1.18273554705,-2.15478164027,-10.8265799072,1.0,0.0,0.0,0.0,1.0,0.0,0.0,0.0,1.0
1463470368234119212,650,1463470368232226716,,-8.81364250183,-0.838687539101,-148.737304688,0.0100060002878,1.0,0.0,0.0,0.0,1.0,0.0,0.0,0.0,1.0,16.2804889679,-4.02439022064,22.1341457367,1.0,0.0,0.0,0.0,1.0,0.0,0.0,0.0,1.0,-1.17794714373,-2.22181914063,-11.01811604,1.0,0.0,0.0,0.0,1.0,0.0,0.0,0.0,1.0
1463470368244866587,651,1463470368242196853,,-8.71015071869,-0.872873008251,-148.612457275,0.009990000166,1.0,0.0,0.0,0.0,1.0,0.0,0.0,0.0,1.0,10.9756097794,-4.02439022064,22.4390239716,1.0,0.0,0.0,0.0,1.0,0.0,0.0,0.0,1.0,-1.09654436035,-2.24097275391,-10.9893856201,1.0,0.0,0.0,0.0,1.0,0.0,0.0,0.0,1.0
1463470368254707558,652,1463470368252198292,,-8.67395305634,-0.905828595161,-148.493560791,0.0100020002574,1.0,0.0,0.0,0.0,1.0,0.0,0.0,0.0,1.0,5.54878091812,-3.90243911743,21.8292694092,1.0,0.0,0.0,0.0,1.0,0.0,0.0,0.0,1.0,-1.09175595703,-2.00634099121,-11.1426145264,1.0,0.0,0.0,0.0,1.0,0.0,0.0,0.0,1.0
1463470368264267904,653,1463470368262209783,,-8.65736198425,-0.956648111343,-148.3956604,0.00999599974602,1.0,0.0,0.0,0.0,1.0,0.0,0.0,0.0,1.0,3.10975623131,-5.0,19.5731716156,1.0,0.0,0.0,0.0,1.0,0.0,0.0,0.0,1.0,-1.17315874041,-2.11647412145,-11.152191333,1.0,0.0,0.0,0.0,1.0,0.0,0.0,0.0,1.0
1463470368274672883,654,1463470368272214451,,-8.68827342987,-1.00798106194,-148.331008911,0.0100020002574,1.0,0.0,0.0,0.0,1.0,0.0,0.0,0.0,1.0,0.243902444839,-4.51219558716,16.2804889679,1.0,0.0,0.0,0.0,1.0,0.0,0.0,0.0,1.0,-1.1875240965,-1.70945998535,-11.1809217529,1.0,0.0,0.0,0.0,1.0,0.0,0.0,0.0,1.0
1463470368284298438,655,1463470368282199015,,-8.71496486664,-1.06652152538,-148.304168701,0.0100010000169,1.0,0.0,0.0,0.0,1.0,0.0,0.0,0.0,1.0,-0.0609756112099,-4.14634132385,12.5609760284,1.0,0.0,0.0,0.0,1.0,0.0,0.0,0.0,1.0,-1.2976572998,-1.838746875,-11.1186725098,1.0,0.0,0.0,0.0,1.0,0.0,0.0,0.0,1.0
1463470368294962740,656,1463470368292199464,,-8.76075172424,-1.12544310093,-148.318511963,0.00999899953604,1.0,0.0,0.0,0.0,1.0,0.0,0.0,0.0,1.0,-1.2804877758,-4.57317066193,8.35365867615,1.0,0.0,0.0,0.0,1.0,0.0,0.0,0.0,1.0,-1.08696755371,-1.64242233887,-10.9798088135,1.0,0.0,0.0,0.0,1.0,0.0,0.0,0.0,1.0
1463470368304677096,657,1463470368302224809,,-8.80129528046,-1.17642521858,-148.361938477,0.0100010000169,1.0,0.0,0.0,0.0,1.0,0.0,0.0,0.0,1.0,-2.80487799644,-2.98780488968,5.73170757294,1.0,0.0,0.0,0.0,1.0,0.0,0.0,0.0,1.0,-1.13963999023,-1.99197578125,-10.6446205811,1.0,0.0,0.0,0.0,1.0,0.0,0.0,0.0,1.0
1463470368314099213,658,1463470368312228071,,-8.87812328339,-1.22820031643,-148.421661377,0.0100149996579,1.0,0.0,0.0,0.0,1.0,0.0,0.0,0.0,1.0,-5.60975599289,-1.8902438879,4.2682929039,1.0,0.0,0.0,0.0,1.0,0.0,0.0,0.0,1.0,-1.35990654297,-1.8626888916,-10.912771167,1.0,0.0,0.0,0.0,1.0,0.0,0.0,0.0,1.0
1463470368324229766,659,1463470368322200395,,-8.99649429321,-1.25864255428,-148.492996216,0.00998799968511,1.0,0.0,0.0,0.0,1.0,0.0,0.0,0.0,1.0,-8.5365858078,-1.64634156227,3.10975623131,1.0,0.0,0.0,0.0,1.0,0.0,0.0,0.0,1.0,-0.962469067383,-1.57538469238,-10.9750204102,1.0,0.0,0.0,0.0,1.0,0.0,0.0,0.0,1.0
1463470368333990424,660,1463470368332194021,,-9.11320590973,-1.2877856493,-148.574920654,0.00999599974602,1.0,0.0,0.0,0.0,1.0,0.0,0.0,0.0,1.0,-10.6707315445,-0.731707334518,2.25609779358,1.0,0.0,0.0,0.0,1.0,0.0,0.0,0.0,1.0,-1.08696755371,-2.02070620117,-10.8936175537,1.0,0.0,0.0,0.0,1.0,0.0,0.0,0.0,1.0
1463470368344259519,661,1463470368342212804,,-9.26813697815,-1.3258048296,-148.657211304,0.0100010000169,1.0,0.0,0.0,0.0,1.0,0.0,0.0,0.0,1.0,-15.1829271317,0.0609756112099,2.37804889679,1.0,0.0,0.0,0.0,1.0,0.0,0.0,0.0,1.0,-1.42694418945,-2.15957004359,-10.898405957,1.0,0.0,0.0,0.0,1.0,0.0,0.0,0.0,1.0
1463470368354271635,662,1463470368352219816,,-9.48150348663,-1.35091245174,-148.735214233,0.00999899953604,1.0,0.0,0.0,0.0,1.0,0.0,0.0,0.0,1.0,-20.3048782349,2.62195134163,3.23170733452,1.0,0.0,0.0,0.0,1.0,0.0,0.0,0.0,1.0,-1.78128603516,-2.08295529821,-11.4011883057,1.0,0.0,0.0,0.0,1.0,0.0,0.0,0.0,1.0
1463470368364010939,663,1463470368362191463,,-9.74166202545,-1.34275197983,-148.80696106,0.00999899953604,1.0,0.0,0.0,0.0,1.0,0.0,0.0,0.0,1.0,-25.4878044128,5.85365867615,4.45121955872,1.0,0.0,0.0,0.0,1.0,0.0,0.0,0.0,1.0,-1.78607443848,-2.14520483363,-11.3533042725,1.0,0.0,0.0,0.0,1.0,0.0,0.0,0.0,1.0
1463470368374312898,664,1463470368372237120,,-10.0611839294,-1.30829024315,-148.854537964,0.0100149996579,1.0,0.0,0.0,0.0,1.0,0.0,0.0,0.0,1.0,-31.158536911,8.78048801422,7.43902492523,1.0,0.0,0.0,0.0,1.0,0.0,0.0,0.0,1.0,-1.9105729248,-2.03507141113,-11.1952869629,1.0,0.0,0.0,0.0,1.0,0.0,0.0,0.0,1.0
1463470368384315014,665,1463470368382200643,,-10.4718313217,-1.20052599907,-148.869949341,0.00998899992555,1.0,0.0,0.0,0.0,1.0,0.0,0.0,0.0,1.0,-37.4390220642,12.7439022064,11.4024391174,1.0,0.0,0.0,0.0,1.0,0.0,0.0,0.0,1.0,-1.34554133301,-1.35032973633,-11.3724578857,1.0,0.0,0.0,0.0,1.0,0.0,0.0,0.0,1.0
1463470368394289890,666,1463470368392193227,,-10.8962774277,-1.11948990822,-148.869125366,0.00999800022691,1.0,0.0,0.0,0.0,1.0,0.0,0.0,0.0,1.0,-41.7073173523,17.5609760284,14.0853662491,1.0,0.0,0.0,0.0,1.0,0.0,0.0,0.0,1.0,-3.01190568848,-2.01591779785,-11.3149970459,1.0,0.0,0.0,0.0,1.0,0.0,0.0,0.0,1.0
1463470368404280339,667,1463470368402199875,,-11.3675832748,-1.00504684448,-148.8568573,0.0100010000169,1.0,0.0,0.0,0.0,1.0,0.0,0.0,0.0,1.0,-45.6097564697,21.2804889679,16.0975608826,1.0,0.0,0.0,0.0,1.0,0.0,0.0,0.0,1.0,-3.25132585449,-1.83395847168,-11.7028577148,1.0,0.0,0.0,0.0,1.0,0.0,0.0,0.0,1.0
1463470368414231882,668,1463470368412222824,,-11.8321237564,-0.801825523376,-148.869171143,0.0100100003183,1.0,0.0,0.0,0.0,1.0,0.0,0.0,0.0,1.0,-45.9146347046,30.0609760284,15.6097564697,1.0,0.0,0.0,0.0,1.0,0.0,0.0,0.0,1.0,-3.10288535156,-1.92493813477,-11.5304751953,1.0,0.0,0.0,0.0,1.0,0.0,0.0,0.0,1.0
1463470368424274832,669,1463470368422224992,,-12.2823190689,-0.560334801674,-148.907440186,0.00999199971557,1.0,0.0,0.0,0.0,1.0,0.0,0.0,0.0,1.0,-44.6341438293,34.0243911743,14.0243902206,1.0,0.0,0.0,0.0,1.0,0.0,0.0,0.0,1.0,-3.13161577148,-1.92014973145,-12.1098719971,1.0,0.0,0.0,0.0,1.0,0.0,0.0,0.0,1.0
1463470368434361791,670,1463470368432208097,,-12.7518882751,-0.26834949851,-148.963882446,0.00999999977648,1.0,0.0,0.0,0.0,1.0,0.0,0.0,0.0,1.0,-43.1707305908,37.6219520569,13.1707324982,1.0,0.0,0.0,0.0,1.0,0.0,0.0,0.0,1.0,-2.56658417969,-0.962469067383,-11.7220113281,1.0,0.0,0.0,0.0,1.0,0.0,0.0,0.0,1.0
1463470368444476876,671,1463470368442200317,,-13.1952610016,0.0710553303361,-149.016326904,0.00999599974602,1.0,0.0,0.0,0.0,1.0,0.0,0.0,0.0,1.0,-38.3536567688,41.4024391174,14.6951217651,1.0,0.0,0.0,0.0,1.0,0.0,0.0,0.0,1.0,-2.26012636719,-0.359130249023,-11.3820346924,1.0,0.0,0.0,0.0,1.0,0.0,0.0,0.0,1.0
1463470368454301179,672,1463470368452202121,,-13.6039657593,0.445914030075,-149.062057495,0.00999999977648,1.0,0.0,0.0,0.0,1.0,0.0,0.0,0.0,1.0,-32.4390220642,42.5,15.9146347046,1.0,0.0,0.0,0.0,1.0,0.0,0.0,0.0,1.0,-1.72382519531,0.253785375977,-11.3772462891,1.0,0.0,0.0,0.0,1.0,0.0,0.0,0.0,1.0
1463470368464120639,673,1463470368462205851,,-13.9481840134,0.857003629208,-149.070358276,0.00999699998647,1.0,0.0,0.0,0.0,1.0,0.0,0.0,0.0,1.0,-24.0243911743,41.4634170532,19.7560977936,1.0,0.0,0.0,0.0,1.0,0.0,0.0,0.0,1.0,-0.837970581055,0.727837304687,-10.8313683105,1.0,0.0,0.0,0.0,1.0,0.0,0.0,0.0,1.0
1463470368474249370,674,1463470368472203436,,-14.1926336288,1.30073451996,-149.039321899,0.0100079998374,1.0,0.0,0.0,0.0,1.0,0.0,0.0,0.0,1.0,-14.2682924271,40.0,23.5975627899,1.0,0.0,0.0,0.0,1.0,0.0,0.0,0.0,1.0,-0.0478840332031,0.742202514648,-10.5440641113,1.0,0.0,0.0,0.0,1.0,0.0,0.0,0.0,1.0
1463470368485628670,675,1463470368482266541,,-14.354174614,1.71206474304,-148.955810547,0.0100199999288,1.0,0.0,0.0,0.0,1.0,0.0,0.0,0.0,1.0,-5.54878091812,35.0609741211,27.8048782349,1.0,0.0,0.0,0.0,1.0,0.0,0.0,0.0,1.0,0.114921679688,0.881066210937,-10.3716815918,1.0,0.0,0.0,0.0,1.0,0.0,0.0,0.0,1.0
1463470368494512403,676,1463470368492257616,,-14.4192314148,2.08509850502,-148.814437866,0.0099950004369,1.0,0.0,0.0,0.0,1.0,0.0,0.0,0.0,1.0,2.68292689323,30.9146327972,32.682926178,1.0,0.0,0.0,0.0,1.0,0.0,0.0,0.0,1.0,0.0143652099609,0.708683691406,-10.5296989014,1.0,0.0,0.0,0.0,1.0,0.0,0.0,0.0,1.0
1463470368504506081,677,1463470368502334627,,-14.411608696,2.42530727386,-148.615447998,0.0100809996948,1.0,0.0,0.0,0.0,1.0,0.0,0.0,0.0,1.0,9.08536529541,27.6219520569,37.5,1.0,0.0,0.0,0.0,1.0,0.0,0.0,0.0,1.0,-0.210689746094,0.598550451572,-10.2759135254,1.0,0.0,0.0,0.0,1.0,0.0,0.0,0.0,1.0
1463470368513984032,678,1463470368512238931,,-14.3291845322,2.73705530167,-148.357025146,0.0099139995873,1.0,0.0,0.0,0.0,1.0,0.0,0.0,0.0,1.0,13.3536586761,25.5487804413,43.2317085266,1.0,0.0,0.0,0.0,1.0,0.0,0.0,0.0,1.0,-0.45489831543,0.0526724365234,-10.0317049561,1.0,0.0,0.0,0.0,1.0,0.0,0.0,0.0,1.0
1463470368524306095,679,1463470368522199432,,-14.2210922241,3.05833816528,-148.031463623,0.00998700037599,1.0,0.0,0.0,0.0,1.0,0.0,0.0,0.0,1.0,16.341463089,23.8414649963,49.390247345,1.0,0.0,0.0,0.0,1.0,0.0,0.0,0.0,1.0,-0.229843359375,0.201112939453,-9.58159562847,1.0,0.0,0.0,0.0,1.0,0.0,0.0,0.0,1.0
1463470368533923732,680,1463470368532202330,,-14.1022968292,3.39874243736,-147.636947632,0.00999800022691,1.0,0.0,0.0,0.0,1.0,0.0,0.0,0.0,1.0,17.9878044128,21.7682933807,55.7926826477,1.0,0.0,0.0,0.0,1.0,0.0,0.0,0.0,1.0,0.225054956055,0.378283862305,-9.43794235981,1.0,0.0,0.0,0.0,1.0,0.0,0.0,0.0,1.0
1463470368544272306,681,1463470368542204498,,-13.9454450607,3.73593378067,-147.165252686,0.00999899953604,1.0,0.0,0.0,0.0,1.0,0.0,0.0,0.0,1.0,19.8780498505,18.2926826477,62.5609779358,1.0,0.0,0.0,0.0,1.0,0.0,0.0,0.0,1.0,0.483628735352,0.138863696289,-8.66222219097,1.0,0.0,0.0,0.0,1.0,0.0,0.0,0.0,1.0
1463470368553956610,682,1463470368552203645,,-13.7669744492,4.02933931351,-146.646209717,0.0100010000169,1.0,0.0,0.0,0.0,1.0,0.0,0.0,0.0,1.0,22.6219520569,15.0000009537,66.4634170532,1.0,0.0,0.0,0.0,1.0,0.0,0.0,0.0,1.0,0.229843359375,0.296881024126,-8.60954975444,1.0,0.0,0.0,0.0,1.0,0.0,0.0,0.0,1.0
1463470368563901747,683,1463470368562190240,,-13.5586309433,4.27887296677,-146.102600098,0.00999599974602,1.0,0.0,0.0,0.0,1.0,0.0,0.0,0.0,1.0,25.182926178,13.1097564697,68.3536605835,1.0,0.0,0.0,0.0,1.0,0.0,0.0,0.0,1.0,-0.15801730957,0.272938989258,-8.76756647949,1.0,0.0,0.0,0.0,1.0,0.0,0.0,0.0,1.0
1463470368574090373,684,1463470368572197304,,-13.3407821655,4.50778388977,-145.552337646,0.0100060002878,1.0,0.0,0.0,0.0,1.0,0.0,0.0,0.0,1.0,27.317073822,12.5609760284,68.7804870605,1.0,0.0,0.0,0.0,1.0,0.0,0.0,0.0,1.0,-0.325611425781,0.445321508789,-8.28393774414,1.0,0.0,0.0,0.0,1.0,0.0,0.0,0.0,1.0
1463470368583953947,685,1463470368582218170,,-13.0636711121,4.70865869522,-145.022872925,0.0100029995665,1.0,0.0,0.0,0.0,1.0,0.0,0.0,0.0,1.0,33.6585388184,12.2560977936,66.4634170532,1.0,0.0,0.0,0.0,1.0,0.0,0.0,0.0,1.0,-0.569819995117,0.497993945312,-8.61433815776,1.0,0.0,0.0,0.0,1.0,0.0,0.0,0.0,1.0
1463470368594290490,686,1463470368592196484,,-12.7391052246,4.89187097549,-144.537002563,0.0099950004369,1.0,0.0,0.0,0.0,1.0,0.0,0.0,0.0,1.0,40.5487823486,12.1341466904,62.0121917725,1.0,0.0,0.0,0.0,1.0,0.0,0.0,0.0,1.0,-0.536301208408,0.679953271484,-7.76679018555,1.0,0.0,0.0,0.0,1.0,0.0,0.0,0.0,1.0
1463470368605844061,687,1463470368602387557,,-12.3275289536,5.0520606041,-144.084060669,0.0100020002574,1.0,0.0,0.0,0.0,1.0,0.0,0.0,0.0,1.0,46.1585388184,12.5,58.2317085266,1.0,0.0,0.0,0.0,1.0,0.0,0.0,0.0,1.0,-0.718260498047,0.177170922852,-7.62313808594,1.0,0.0,0.0,0.0,1.0,0.0,0.0,0.0,1.0
1463470368614713054,688,1463470368612234569,,-11.8552474976,5.21910333633,-143.669189453,0.00999299995601,1.0,0.0,0.0,0.0,1.0,0.0,0.0,0.0,1.0,49.6951217651,14.1463422775,54.2682914734,1.0,0.0,0.0,0.0,1.0,0.0,0.0,0.0,1.0,-0.675164868164,-0.268150604204,-7.69975253906,1.0,0.0,0.0,0.0,1.0,0.0,0.0,0.0,1.0
1463470368624042567,689,1463470368622228873,,-11.3368825912,5.36536693573,-143.315261841,0.0100060002878,1.0,0.0,0.0,0.0,1.0,0.0,0.0,0.0,1.0,53.4756126404,15.1219511032,47.8658561707,1.0,0.0,0.0,0.0,1.0,0.0,0.0,0.0,1.0,-0.890643017578,-0.531512805087,-8.00621035156,1.0,0.0,0.0,0.0,1.0,0.0,0.0,0.0,1.0
1463470368634041662,690,1463470368632241249,,-10.797955513,5.4944653511,-143.018081665,0.00999699998647,1.0,0.0,0.0,0.0,1.0,0.0,0.0,0.0,1.0,53.6585388184,15.3658533096,41.7073173523,1.0,0.0,0.0,0.0,1.0,0.0,0.0,0.0,1.0,-0.948103857422,-0.962469067383,-7.98705673828,1.0,0.0,0.0,0.0,1.0,0.0,0.0,0.0,1.0
1463470368643993049,691,1463470368642208417,,-10.2682514191,5.63249063492,-142.765884399,0.00999899953604,1.0,0.0,0.0,0.0,1.0,0.0,0.0,0.0,1.0,51.1585388184,17.0731716156,37.0121955872,1.0,0.0,0.0,0.0,1.0,0.0,0.0,0.0,1.0,-0.938527050781,-1.39821376953,-8.3749168227,1.0,0.0,0.0,0.0,1.0,0.0,0.0,0.0,1.0
1463470368654456727,692,1463470368652197200,,-9.79330730438,5.76470947266,-142.547470093,0.00999899953604,1.0,0.0,0.0,0.0,1.0,0.0,0.0,0.0,1.0,46.6463432312,16.4634151459,33.2926826477,1.0,0.0,0.0,0.0,1.0,0.0,0.0,0.0,1.0,-0.823605371094,-1.43652099609,-8.85854614258,1.0,0.0,0.0,0.0,1.0,0.0,0.0,0.0,1.0
1463470368663958062,693,1463470368662201712,,-9.4559879303,5.90259361267,-142.337005615,0.00999999977648,1.0,0.0,0.0,0.0,1.0,0.0,0.0,0.0,1.0,41.2195129395,16.0975608826,33.0487823486,1.0,0.0,0.0,0.0,1.0,0.0,0.0,0.0,1.0,-0.569819995117,-0.134075302102,-8.68137521973,1.0,0.0,0.0,0.0,1.0,0.0,0.0,0.0,1.0
1463470368674215542,694,1463470368672195078,,-9.09450054169,6.02471399307,-142.14302063,0.010006999597,1.0,0.0,0.0,0.0,1.0,0.0,0.0,0.0,1.0,39.1463432312,15.0000009537,30.5487804413,1.0,0.0,0.0,0.0,1.0,0.0,0.0,0.0,1.0,-0.579396801758,-0.938527050781,-8.90164177246,1.0,0.0,0.0,0.0,1.0,0.0,0.0,0.0,1.0
1463470368684346721,695,1463470368682202350,,-8.74839401245,6.12056016922,-141.969345093,0.0100050000474,1.0,0.0,0.0,0.0,1.0,0.0,0.0,0.0,1.0,33.2317085266,12.7439022064,27.5,1.0,0.0,0.0,0.0,1.0,0.0,0.0,0.0,1.0,-0.560243188477,-1.76213242187,-8.84896933594,1.0,0.0,0.0,0.0,1.0,0.0,0.0,0.0,1.0
1463470368694334722,696,1463470368692240976,,-8.44270801544,6.21114873886,-141.822021484,0.00999800022691,1.0,0.0,0.0,0.0,1.0,0.0,0.0,0.0,1.0,27.9268302917,12.4390249252,24.5121955872,1.0,0.0,0.0,0.0,1.0,0.0,0.0,0.0,1.0,-0.512359155273,-2.10210891149,-8.90164177246,1.0,0.0,0.0,0.0,1.0,0.0,0.0,0.0,1.0
1463470368704464338,697,1463470368702398821,,-8.20490932465,6.27304935455,-141.730056763,0.0099950004369,1.0,0.0,0.0,0.0,1.0,0.0,0.0,0.0,1.0,24.1463432312,8.47560977936,18.5365848541,1.0,0.0,0.0,0.0,1.0,0.0,0.0,0.0,1.0,-0.167594116211,-1.80043964844,-9.2942902602,1.0,0.0,0.0,0.0,1.0,0.0,0.0,0.0,1.0
1463470368713884319,698,1463470368712222031,,-8.00114917755,6.32170009613,-141.667617798,0.0100119998679,1.0,0.0,0.0,0.0,1.0,0.0,0.0,0.0,1.0,19.4512195587,5.79268312454,14.9390249252,1.0,0.0,0.0,0.0,1.0,0.0,0.0,0.0,1.0,0.138863696289,-2.01591779785,-8.82502731934,1.0,0.0,0.0,0.0,1.0,0.0,0.0,0.0,1.0
1463470368724215237,699,1463470368722199199,,-7.87215566635,6.36521434784,-141.630325317,0.00998799968511,1.0,0.0,0.0,0.0,1.0,0.0,0.0,0.0,1.0,14.7560987473,2.86585378647,12.2560977936,1.0,0.0,0.0,0.0,1.0,0.0,0.0,0.0,1.0,0.598550451572,-1.61848032227,-8.78193168945,1.0,0.0,0.0,0.0,1.0,0.0,0.0,0.0,1.0
1463470368734410269,700,1463470368732240846,,-7.77618551254,6.36219358444,-141.589584351,0.0100119998679,1.0,0.0,0.0,0.0,1.0,0.0,0.0,0.0,1.0,9.81707286835,-2.92682933807,11.5853662491,1.0,0.0,0.0,0.0,1.0,0.0,0.0,0.0,1.0,0.751779321289,-1.83395847168,-8.40364724263,1.0,0.0,0.0,0.0,1.0,0.0,0.0,0.0,1.0
1463470368744322177,701,1463470368742208847,,-7.83011627197,6.34959506989,-141.526947021,0.00999100040644,1.0,0.0,0.0,0.0,1.0,0.0,0.0,0.0,1.0,4.32926845551,-5.18292713165,14.5731706619,1.0,0.0,0.0,0.0,1.0,0.0,0.0,0.0,1.0,0.909796630859,-0.31124621582,-8.41801245259,1.0,0.0,0.0,0.0,1.0,0.0,0.0,0.0,1.0
1463470368754091481,702,1463470368752213255,,-7.87711954117,6.28057765961,-141.459121704,0.00999800022691,1.0,0.0,0.0,0.0,1.0,0.0,0.0,0.0,1.0,4.20731735229,-10.0609760284,14.3292694092,1.0,0.0,0.0,0.0,1.0,0.0,0.0,0.0,1.0,0.833182177734,-0.440533105469,-8.89685336914,1.0,0.0,0.0,0.0,1.0,0.0,0.0,0.0,1.0
1463470368763971409,703,1463470368762208131,,-7.91618013382,6.15249681473,-141.406555176,0.0099950004369,1.0,0.0,0.0,0.0,1.0,0.0,0.0,0.0,1.0,3.41463422775,-14.8780498505,11.9512195587,1.0,0.0,0.0,0.0,1.0,0.0,0.0,0.0,1.0,0.684741674805,-0.713472094727,-8.85854614258,1.0,0.0,0.0,0.0,1.0,0.0,0.0,0.0,1.0
1463470368774256337,704,1463470368772210612,,-7.91229534149,5.9931344986,-141.378128052,0.0100109996274,1.0,0.0,0.0,0.0,1.0,0.0,0.0,0.0,1.0,3.96341490746,-16.8902435303,8.84146404266,1.0,0.0,0.0,0.0,1.0,0.0,0.0,0.0,1.0,0.584185168546,-1.47482822266,-9.52413478862,1.0,0.0,0.0,0.0,1.0,0.0,0.0,0.0,1.0
1463470368784261005,705,1463470368782222415,,-7.92446756363,5.76484012604,-141.39390564,0.00999699998647,1.0,0.0,0.0,0.0,1.0,0.0,0.0,0.0,1.0,3.41463422775,-21.8902435303,3.84146332741,1.0,0.0,0.0,0.0,1.0,0.0,0.0,0.0,1.0,0.354341845703,-1.40779057617,-9.84495722656,1.0,0.0,0.0,0.0,1.0,0.0,0.0,0.0,1.0
1463470368794307548,706,1463470368792196615,,-7.92757320404,5.52465963364,-141.445755005,0.00999800022691,1.0,0.0,0.0,0.0,1.0,0.0,0.0,0.0,1.0,1.2195122242,-23.658536911,-0.304878056049,1.0,0.0,0.0,0.0,1.0,0.0,0.0,0.0,1.0,0.517147558594,-2.11647412145,-10.1322614258,1.0,0.0,0.0,0.0,1.0,0.0,0.0,0.0,1.0
1463470368804255654,707,1463470368802226074,,-7.9823384285,5.25240278244,-141.518585205,0.0100020002574,1.0,0.0,0.0,0.0,1.0,0.0,0.0,0.0,1.0,-2.01219511032,-26.5243911743,-2.56097555161,1.0,0.0,0.0,0.0,1.0,0.0,0.0,0.0,1.0,0.488417138672,-1.8148048584,-10.4099888184,1.0,0.0,0.0,0.0,1.0,0.0,0.0,0.0,1.0
1463470368813884489,708,1463470368812211367,,-8.08300685883,4.93746614456,-141.582565308,0.00999800022691,1.0,0.0,0.0,0.0,1.0,0.0,0.0,0.0,1.0,-6.95121955872,-31.2195129395,-2.31707310677,1.0,0.0,0.0,0.0,1.0,0.0,0.0,0.0,1.0,0.497993945312,-1.82917006836,-10.299855542,1.0,0.0,0.0,0.0,1.0,0.0,0.0,0.0,1.0
1463470368824228427,709,1463470368822202494,,-8.26725196838,4.6115694046,-141.645935059,0.0100020002574,1.0,0.0,0.0,0.0,1.0,0.0,0.0,0.0,1.0,-11.0365858078,-31.8902454376,-1.95121955872,1.0,0.0,0.0,0.0,1.0,0.0,0.0,0.0,1.0,0.373495458984,-0.972045874023,-10.2711251221,1.0,0.0,0.0,0.0,1.0,0.0,0.0,0.0,1.0
1463470368834193147,710,1463470368832196380,,-8.42688274384,4.24046230316,-141.712799072,0.0099950004369,1.0,0.0,0.0,0.0,1.0,0.0,0.0,0.0,1.0,-12.1951217651,-34.3902435303,-2.98780488968,1.0,0.0,0.0,0.0,1.0,0.0,0.0,0.0,1.0,-0.0478840332031,-1.69988317871,-10.7499654541,1.0,0.0,0.0,0.0,1.0,0.0,0.0,0.0,1.0
1463470368844258909,711,1463470368842217351,,-8.61188983917,3.86608839035,-141.803237915,0.0100029995665,1.0,0.0,0.0,0.0,1.0,0.0,0.0,0.0,1.0,-13.841463089,-35.3658561707,-5.42682933807,1.0,0.0,0.0,0.0,1.0,0.0,0.0,0.0,1.0,0.0909796630859,-1.52750065918,-10.8457335205,1.0,0.0,0.0,0.0,1.0,0.0,0.0,0.0,1.0
1463470368854258890,712,1463470368852197644,,-8.81218624115,3.49225854874,-141.906265259,0.00999899953604,1.0,0.0,0.0,0.0,1.0,0.0,0.0,0.0,1.0,-14.8780498505,-33.1707305908,-6.34146356583,1.0,0.0,0.0,0.0,1.0,0.0,0.0,0.0,1.0,-0.344765039063,-1.35511813965,-10.5440641113,1.0,0.0,0.0,0.0,1.0,0.0,0.0,0.0,1.0
1463470368864142568,713,1463470368862246999,,-8.98667144775,3.09979557991,-142.045501709,0.0100389998406,1.0,0.0,0.0,0.0,1.0,0.0,0.0,0.0,1.0,-12.5609760284,-32.2560958862,-9.81707286835,1.0,0.0,0.0,0.0,1.0,0.0,0.0,0.0,1.0,-0.818816967773,-1.45088620605,-10.7978494873,1.0,0.0,0.0,0.0,1.0,0.0,0.0,0.0,1.0
1463470368874254059,714,1463470368872197553,,-9.15343379974,2.74836111069,-142.209884644,0.00995900016278,1.0,0.0,0.0,0.0,1.0,0.0,0.0,0.0,1.0,-11.4024391174,-28.1097564697,-11.7682924271,1.0,0.0,0.0,0.0,1.0,0.0,0.0,0.0,1.0,-0.837970581055,-1.26413847656,-10.3381627686,1.0,0.0,0.0,0.0,1.0,0.0,0.0,0.0,1.0
1463470368884196071,715,1463470368882194408,,-9.31097507477,2.44858312607,-142.396530151,0.0100020002574,1.0,0.0,0.0,0.0,1.0,0.0,0.0,0.0,1.0,-9.39024448395,-22.682926178,-12.9878053665,1.0,0.0,0.0,0.0,1.0,0.0,0.0,0.0,1.0,-0.881066210937,-1.06781401349,-10.6350437744,1.0,0.0,0.0,0.0,1.0,0.0,0.0,0.0,1.0
1463470368894691675,716,1463470368892198972,,-9.43821525574,2.19064569473,-142.602828979,0.0100010000169,1.0,0.0,0.0,0.0,1.0,0.0,0.0,0.0,1.0,-6.70731735229,-19.5731716156,-14.4512205124,1.0,0.0,0.0,0.0,1.0,0.0,0.0,0.0,1.0,-0.670376464844,-1.10133276367,-10.6541973877,1.0,0.0,0.0,0.0,1.0,0.0,0.0,0.0,1.0
1463470368904420146,717,1463470368902238952,,-9.52761363983,1.99350726604,-142.826828003,0.00999699998647,1.0,0.0,0.0,0.0,1.0,0.0,0.0,0.0,1.0,-3.65853667259,-15.0609760284,-15.4878053665,1.0,0.0,0.0,0.0,1.0,0.0,0.0,0.0,1.0,-0.359130249023,-1.17794714373,-10.3333743652,1.0,0.0,0.0,0.0,1.0,0.0,0.0,0.0,1.0
1463470368914184971,718,1463470368912224714,,-9.6070766449,1.84322285652,-143.053146362,0.0100140003487,1.0,0.0,0.0,0.0,1.0,0.0,0.0,0.0,1.0,-2.31707310677,-12.0121955872,-15.1219511032,1.0,0.0,0.0,0.0,1.0,0.0,0.0,0.0,1.0,-0.0814028564453,-1.04866025408,-9.97903251953,1.0,0.0,0.0,0.0,1.0,0.0,0.0,0.0,1.0
1463470368924656982,719,1463470368922228601,,-9.68272781372,1.74037671089,-143.275024414,0.00999699998647,1.0,0.0,0.0,0.0,1.0,0.0,0.0,0.0,1.0,-0.18292683363,-9.87804889679,-14.2682924271,1.0,0.0,0.0,0.0,1.0,0.0,0.0,0.0,1.0,0.335188232422,-0.694318481445,-9.8784760498,1.0,0.0,0.0,0.0,1.0,0.0,0.0,0.0,1.0
1463470368933917641,720,1463470368932187800,,-9.69921016693,1.67313492298,-143.500045776,0.009990000166,1.0,0.0,0.0,0.0,1.0,0.0,0.0,0.0,1.0,2.86585378647,-7.86585378647,-14.3292694092,1.0,0.0,0.0,0.0,1.0,0.0,0.0,0.0,1.0,0.593762048251,-1.19710090314,-9.81622680664,1.0,0.0,0.0,0.0,1.0,0.0,0.0,0.0,1.0
1463470368944679338,721,1463470368942228302,,-9.66150379181,1.59135830402,-143.718582153,0.0100140003487,1.0,0.0,0.0,0.0,1.0,0.0,0.0,0.0,1.0,5.48780488968,-7.01219511032,-13.5365858078,1.0,0.0,0.0,0.0,1.0,0.0,0.0,0.0,1.0,0.15801730957,-1.70945998535,-9.87368764648,1.0,0.0,0.0,0.0,1.0,0.0,0.0,0.0,1.0
1463470368954708642,722,1463470368952270053,,-9.62253475189,1.50260841846,-143.930511475,0.009990000166,1.0,0.0,0.0,0.0,1.0,0.0,0.0,0.0,1.0,6.09756088257,-5.18292713165,-12.5609760284,1.0,0.0,0.0,0.0,1.0,0.0,0.0,0.0,1.0,-0.349553442383,-1.70467158203,-10.419565625,1.0,0.0,0.0,0.0,1.0,0.0,0.0,0.0,1.0
1463470368964057061,723,1463470368962248888,,-9.59668731689,1.41762208939,-144.124923706,0.00999899953604,1.0,0.0,0.0,0.0,1.0,0.0,0.0,0.0,1.0,4.32926845551,-2.19512200356,-10.2439022064,1.0,0.0,0.0,0.0,1.0,0.0,0.0,0.0,1.0,-0.976834277344,-1.90578452148,-11.0276928467,1.0,0.0,0.0,0.0,1.0,0.0,0.0,0.0,1.0
1463470368974242041,724,1463470368972184701,,-9.59391117096,1.35003960133,-144.31829834,0.00999800022691,1.0,0.0,0.0,0.0,1.0,0.0,0.0,0.0,1.0,0.487804889679,0.853658556938,-9.63414573669,1.0,0.0,0.0,0.0,1.0,0.0,0.0,0.0,1.0,-1.36948334961,-2.40856701625,-11.7986257812,1.0,0.0,0.0,0.0,1.0,0.0,0.0,0.0,1.0
1463470368983907231,725,1463470368982188744,,-9.61004447937,1.31234335899,-144.520980835,0.0100010000169,1.0,0.0,0.0,0.0,1.0,0.0,0.0,0.0,1.0,-2.19512200356,2.37804889679,-10.3048782349,1.0,0.0,0.0,0.0,1.0,0.0,0.0,0.0,1.0,-1.03429511719,-2.56658417969,-11.7267997314,1.0,0.0,0.0,0.0,1.0,0.0,0.0,0.0,1.0
1463470368994832834,726,1463470368992264923,,-9.68242549896,1.28370511532,-144.725799561,0.0100100003183,1.0,0.0,0.0,0.0,1.0,0.0,0.0,0.0,1.0,-4.69512224197,1.95121955872,-10.4878053665,1.0,0.0,0.0,0.0,1.0,0.0,0.0,0.0,1.0,-0.727837304687,-1.82438166504,-11.645396875,1.0,0.0,0.0,0.0,1.0,0.0,0.0,0.0,1.0
1463470369004240472,727,1463470369002203653,,-9.76822185516,1.2518004179,-144.935638428,0.009990000166,1.0,0.0,0.0,0.0,1.0,0.0,0.0,0.0,1.0,-4.20731735229,1.2804877758,-11.0975618362,1.0,0.0,0.0,0.0,1.0,0.0,0.0,0.0,1.0,-0.612915625,-1.35990654297,-11.3149970459,1.0,0.0,0.0,0.0,1.0,0.0,0.0,0.0,1.0
1463470369013928162,728,1463470369012159363,,-9.82761478424,1.20937848091,-145.160049438,0.0100010000169,1.0,0.0,0.0,0.0,1.0,0.0,0.0,0.0,1.0,-1.58536589146,-0.975609779358,-12.9268293381,1.0,0.0,0.0,0.0,1.0,0.0,0.0,0.0,1.0,-0.3064578125,-1.31681091309,-11.0564232666,1.0,0.0,0.0,0.0,1.0,0.0,0.0,0.0,1.0
1463470369024285590,729,1463470369022273041,,-9.87671089172,1.14379990101,-145.390579224,0.0100060002878,1.0,0.0,0.0,0.0,1.0,0.0,0.0,0.0,1.0,2.98780488968,-3.59756112099,-13.9024391174,1.0,0.0,0.0,0.0,1.0,0.0,0.0,0.0,1.0,-0.210689746094,-0.560243188477,-10.6350437744,1.0,0.0,0.0,0.0,1.0,0.0,0.0,0.0,1.0
1463470369034296560,730,1463470369032164637,,-9.86182022095,1.06576395035,-145.625488281,0.00999299995601,1.0,0.0,0.0,0.0,1.0,0.0,0.0,0.0,1.0,9.02439117432,-5.12195110321,-14.6341466904,1.0,0.0,0.0,0.0,1.0,0.0,0.0,0.0,1.0,-0.148440512063,-0.603338854892,-10.3908352051,1.0,0.0,0.0,0.0,1.0,0.0,0.0,0.0,1.0
1463470369044659144,731,1463470369042229930,,-9.78472805023,0.97670352459,-145.849060059,0.0100109996274,1.0,0.0,0.0,0.0,1.0,0.0,0.0,0.0,1.0,14.9390249252,-7.50000047684,-13.841463089,1.0,0.0,0.0,0.0,1.0,0.0,0.0,0.0,1.0,0.0383072265625,-0.636857641602,-10.1322614258,1.0,0.0,0.0,0.0,1.0,0.0,0.0,0.0,1.0
1463470369054245740,732,1463470369052195431,,-9.64657688141,0.87797832489,-146.063369751,0.00998399965465,1.0,0.0,0.0,0.0,1.0,0.0,0.0,0.0,1.0,19.3902435303,-10.1219511032,-13.4146347046,1.0,0.0,0.0,0.0,1.0,0.0,0.0,0.0,1.0,0.287304199219,-0.957680664062,-10.1562034424,1.0,0.0,0.0,0.0,1.0,0.0,0.0,0.0,1.0
1463470369066085612,733,1463470369062217495,,-9.4693107605,0.756370007992,-146.251602173,0.0100029995665,1.0,0.0,0.0,0.0,1.0,0.0,0.0,0.0,1.0,21.5243911743,-13.1097564697,-11.2195119858,1.0,0.0,0.0,0.0,1.0,0.0,0.0,0.0,1.0,0.320823022461,-1.32159931641,-10.3429511719,1.0,0.0,0.0,0.0,1.0,0.0,0.0,0.0,1.0
1463470369074313200,734,1463470369072224507,,-9.2846364975,0.601468980312,-146.410354614,0.0100170001388,1.0,0.0,0.0,0.0,1.0,0.0,0.0,0.0,1.0,21.7682933807,-16.8902435303,-8.78048801422,1.0,0.0,0.0,0.0,1.0,0.0,0.0,0.0,1.0,0.296881024126,-1.45088620605,-10.4961800781,1.0,0.0,0.0,0.0,1.0,0.0,0.0,0.0,1.0
1463470369084727138,735,1463470369082284070,,-9.13785552979,0.41279566288,-146.534545898,0.0100140003487,1.0,0.0,0.0,0.0,1.0,0.0,0.0,0.0,1.0,21.5243911743,-19.5731716156,-5.60975599289,1.0,0.0,0.0,0.0,1.0,0.0,0.0,0.0,1.0,0.0287304199219,-0.737414111328,-9.8545340332,1.0,0.0,0.0,0.0,1.0,0.0,0.0,0.0,1.0
1463470369095840502,736,1463470369092243061,,-8.96827697754,0.201801344752,-146.635726929,0.00998700037599,1.0,0.0,0.0,0.0,1.0,0.0,0.0,0.0,1.0,21.4634151459,-22.9268302917,-3.7804877758,1.0,0.0,0.0,0.0,1.0,0.0,0.0,0.0,1.0,0.124498486328,-1.24019645996,-10.3333743652,1.0,0.0,0.0,0.0,1.0,0.0,0.0,0.0,1.0
1463470369104748349,737,1463470369102301219,,-8.80193996429,-0.0487141944468,-146.718566895,0.00999699998647,1.0,0.0,0.0,0.0,1.0,0.0,0.0,0.0,1.0,21.158536911,-24.6951236725,-2.07317066193,1.0,0.0,0.0,0.0,1.0,0.0,0.0,0.0,1.0,-0.368707055664,-1.25935007324,-10.3477395752,1.0,0.0,0.0,0.0,1.0,0.0,0.0,0.0,1.0
1463470369114181612,738,1463470369112277345,,-8.62909889221,-0.308461785316,-146.798858643,0.00999199971557,1.0,0.0,0.0,0.0,1.0,0.0,0.0,0.0,1.0,20.6707324982,-24.0853652954,-1.58536589146,1.0,0.0,0.0,0.0,1.0,0.0,0.0,0.0,1.0,-0.723048901367,-1.52271225586,-10.4291424316,1.0,0.0,0.0,0.0,1.0,0.0,0.0,0.0,1.0
1463470369124424405,739,1463470369122290555,,-8.46591472626,-0.563035190105,-146.885101318,0.0100100003183,1.0,0.0,0.0,0.0,1.0,0.0,0.0,0.0,1.0,19.4512195587,-22.8048782349,-1.8292683363,1.0,0.0,0.0,0.0,1.0,0.0,0.0,0.0,1.0,-0.890643017578,-1.5801730957,-10.3285859619,1.0,0.0,0.0,0.0,1.0,0.0,0.0,0.0,1.0
1463470369134734020,740,1463470369132303452,,-8.33719825745,-0.797057569027,-146.973464966,0.0099849998951,1.0,0.0,0.0,0.0,1.0,0.0,0.0,0.0,1.0,18.841463089,-20.2439022064,-1.58536589146,1.0,0.0,0.0,0.0,1.0,0.0,0.0,0.0,1.0,-1.0534486574,-1.07739082014,-10.4482960449,1.0,0.0,0.0,0.0,1.0,0.0,0.0,0.0,1.0
1463470369144658845,741,1463470369142343068,,-8.21607112885,-0.997682988644,-147.066268921,0.0100149996579,1.0,0.0,0.0,0.0,1.0,0.0,0.0,0.0,1.0,19.6951236725,-17.0731716156,-1.46341466904,1.0,0.0,0.0,0.0,1.0,0.0,0.0,0.0,1.0,-1.01514150391,-0.751779321289,-10.0939541992,1.0,0.0,0.0,0.0,1.0,0.0,0.0,0.0,1.0
1463470369154868929,742,1463470369152479871,,-8.06838607788,-1.1719430685,-147.172088623,0.0100349998102,1.0,0.0,0.0,0.0,1.0,0.0,0.0,0.0,1.0,22.3170719147,-13.3536586761,-2.13414645195,1.0,0.0,0.0,0.0,1.0,0.0,0.0,0.0,1.0,-1.24019645996,-0.780509741211,-10.2567599121,1.0,0.0,0.0,0.0,1.0,0.0,0.0,0.0,1.0
1463470369164521775,743,1463470369162316883,,-7.89219331741,-1.3221360445,-147.303421021,0.00997999962419,1.0,0.0,0.0,0.0,1.0,0.0,0.0,0.0,1.0,24.9390239716,-9.14634132385,-4.08536577225,1.0,0.0,0.0,0.0,1.0,0.0,0.0,0.0,1.0,-1.52750065918,-0.837970581055,-9.96945571289,1.0,0.0,0.0,0.0,1.0,0.0,0.0,0.0,1.0
1463470369174197954,744,1463470369172308009,,-7.66757059097,-1.44328474998,-147.467727661,0.00998099986464,1.0,0.0,0.0,0.0,1.0,0.0,0.0,0.0,1.0,26.8292694092,-4.63414621353,-6.64634132385,1.0,0.0,0.0,0.0,1.0,0.0,0.0,0.0,1.0,-1.93930334473,-1.52750065918,-10.793061084,1.0,0.0,0.0,0.0,1.0,0.0,0.0,0.0,1.0
1463470369184487100,745,1463470369182308042,,-7.40574026108,-1.51209485531,-147.694900513,0.0100149996579,1.0,0.0,0.0,0.0,1.0,0.0,0.0,0.0,1.0,28.475610733,0.304878056049,-12.1341466904,1.0,0.0,0.0,0.0,1.0,0.0,0.0,0.0,1.0,-1.77170922852,-1.94409174805,-10.8361567139,1.0,0.0,0.0,0.0,1.0,0.0,0.0,0.0,1.0
1463470369194125050,746,1463470369192380262,,-7.13036727905,-1.52030909061,-147.974777222,0.0099849998951,1.0,0.0,0.0,0.0,1.0,0.0,0.0,0.0,1.0,28.7195110321,3.7804877758,-17.0121955872,1.0,0.0,0.0,0.0,1.0,0.0,0.0,0.0,1.0,-1.05823706072,-1.98239897461,-9.81622680664,1.0,0.0,0.0,0.0,1.0,0.0,0.0,0.0,1.0
1463470369204156281,747,1463470369202259826,,-6.87911987305,-1.50971341133,-148.262130737,0.00999599974602,1.0,0.0,0.0,0.0,1.0,0.0,0.0,0.0,1.0,24.2682933807,8.23170757294,-17.134147644,1.0,0.0,0.0,0.0,1.0,0.0,0.0,0.0,1.0,-1.73340200195,-2.7341782959,-10.9845972168,1.0,0.0,0.0,0.0,1.0,0.0,0.0,0.0,1.0
