%time,field.header.seq,field.header.stamp,field.header.frame_id,field.orientation.x,field.orientation.y,field.orientation.z,field.orientation.w,field.orientation_covariance0,field.orientation_covariance1,field.orientation_covariance2,field.orientation_covariance3,field.orientation_covariance4,field.orientation_covariance5,field.orientation_covariance6,field.orientation_covariance7,field.orientation_covariance8,field.angular_velocity.x,field.angular_velocity.y,field.angular_velocity.z,field.angular_velocity_covariance0,field.angular_velocity_covariance1,field.angular_velocity_covariance2,field.angular_velocity_covariance3,field.angular_velocity_covariance4,field.angular_velocity_covariance5,field.angular_velocity_covariance6,field.angular_velocity_covariance7,field.angular_velocity_covariance8,field.linear_acceleration.x,field.linear_acceleration.y,field.linear_acceleration.z,field.linear_acceleration_covariance0,field.linear_acceleration_covariance1,field.linear_acceleration_covariance2,field.linear_acceleration_covariance3,field.linear_acceleration_covariance4,field.linear_acceleration_covariance5,field.linear_acceleration_covariance6,field.linear_acceleration_covariance7,field.linear_acceleration_covariance8
1463077460284155713,373,1463077460092744100,,27.0009441376,-23.5479640961,-70.1538009644,0.00996800046414,1.0,0.0,0.0,0.0,1.0,0.0,0.0,0.0,1.0,-0.243902444839,3.35365867615,2.43902444839,1.0,0.0,0.0,0.0,1.0,0.0,0.0,0.0,1.0,-5.99508095703,-2.59052619629,-9.19852277832,1.0,0.0,0.0,0.0,1.0,0.0,0.0,0.0,1.0
1463077460284250192,374,1463077460102645839,,26.8841838837,-23.4441051483,-70.0612487793,0.00999800022691,1.0,0.0,0.0,0.0,1.0,0.0,0.0,0.0,1.0,0.0,4.81707286835,1.76829278469,1.0,0.0,0.0,0.0,1.0,0.0,0.0,0.0,1.0,-2.65277543945,-2.63841022949,-8.62870336773,1.0,0.0,0.0,0.0,1.0,0.0,0.0,0.0,1.0
1463077460284293577,375,1463077460112655233,,26.8376331329,-23.3693981171,-70.0133514404,0.00999800022691,1.0,0.0,0.0,0.0,1.0,0.0,0.0,0.0,1.0,0.304878056049,2.74390244484,0.670731723309,1.0,0.0,0.0,0.0,1.0,0.0,0.0,0.0,1.0,-3.63439812012,-4.2521024407,-10.2328178955,1.0,0.0,0.0,0.0,1.0,0.0,0.0,0.0,1.0
1463077460284330192,376,1463077460122524472,,26.7750587463,-23.2769908905,-69.9507293701,0.00999299995601,1.0,0.0,0.0,0.0,1.0,0.0,0.0,0.0,1.0,0.365853667259,5.79268312454,0.12195122242,1.0,0.0,0.0,0.0,1.0,0.0,0.0,0.0,1.0,-3.16513459473,-3.28005627441,-8.45153127583,1.0,0.0,0.0,0.0,1.0,0.0,0.0,0.0,1.0
1463077460284366546,377,1463077460132612095,,26.606256485,-23.2226371765,-69.8681030273,0.0100109996274,1.0,0.0,0.0,0.0,1.0,0.0,0.0,0.0,1.0,-1.15853655338,2.37804889679,-0.12195122242,1.0,0.0,0.0,0.0,1.0,0.0,0.0,0.0,1.0,-3.14598098145,-1.74776721191,-8.77235488281,1.0,0.0,0.0,0.0,1.0,0.0,0.0,0.0,1.0
1463077460284404254,378,1463077460142764405,,26.4474163055,-23.1386013031,-69.7874221802,0.0100999996066,1.0,0.0,0.0,0.0,1.0,0.0,0.0,0.0,1.0,-0.365853667259,2.74390244484,-0.426829278469,1.0,0.0,0.0,0.0,1.0,0.0,0.0,0.0,1.0,-3.22259543457,-2.13562802699,-10.3812583984,1.0,0.0,0.0,0.0,1.0,0.0,0.0,0.0,1.0
1463077460284457431,379,1463077460152792029,,26.3010997772,-23.0673465729,-69.7055892944,0.00998899992555,1.0,0.0,0.0,0.0,1.0,0.0,0.0,0.0,1.0,-0.548780500889,2.19512200356,0.731707334518,1.0,0.0,0.0,0.0,1.0,0.0,0.0,0.0,1.0,-3.45722719727,-2.5234885498,-10.9079827637,1.0,0.0,0.0,0.0,1.0,0.0,0.0,0.0,1.0
1463077460284499202,380,1463077460162713507,,26.1661071777,-23.0496520996,-69.6285552979,0.0100320000201,1.0,0.0,0.0,0.0,1.0,0.0,0.0,0.0,1.0,2.19512200356,0.914634168148,-0.0,1.0,0.0,0.0,0.0,1.0,0.0,0.0,0.0,1.0,-3.68707055664,-1.68551796875,-9.21288798828,1.0,0.0,0.0,0.0,1.0,0.0,0.0,0.0,1.0
1463077460284536493,381,1463077460172529672,,26.1253452301,-23.0149021149,-69.5943908691,0.00987100042403,1.0,0.0,0.0,0.0,1.0,0.0,0.0,0.0,1.0,2.07317066193,0.365853667259,-0.304878056049,1.0,0.0,0.0,0.0,1.0,0.0,0.0,0.0,1.0,-3.35667072754,-3.10767375488,-8.68137521973,1.0,0.0,0.0,0.0,1.0,0.0,0.0,0.0,1.0
1463077460284631753,382,1463077460182626202,,26.046257019,-23.048997879,-69.5444107056,0.00999299995601,1.0,0.0,0.0,0.0,1.0,0.0,0.0,0.0,1.0,2.25609779358,-1.46341466904,0.548780500889,1.0,0.0,0.0,0.0,1.0,0.0,0.0,0.0,1.0,-4.66390454172,-2.67671745605,-9.77313117676,1.0,0.0,0.0,0.0,1.0,0.0,0.0,0.0,1.0
1463077460284676284,383,1463077460193734811,,25.7814445496,-23.0696239471,-69.4093399048,0.0100189996883,1.0,0.0,0.0,0.0,1.0,0.0,0.0,0.0,1.0,2.98780488968,-0.0609756112099,0.914634168148,1.0,0.0,0.0,0.0,1.0,0.0,0.0,0.0,1.0,-3.06936652832,0.646434448242,-7.60877287598,1.0,0.0,0.0,0.0,1.0,0.0,0.0,0.0,1.0
1463077460284719149,384,1463077460202640876,,25.6738147736,-23.0270652771,-69.3412857056,0.0100170001388,1.0,0.0,0.0,0.0,1.0,0.0,0.0,0.0,1.0,2.31707310677,-1.70731711388,1.46341466904,1.0,0.0,0.0,0.0,1.0,0.0,0.0,0.0,1.0,-3.74453139648,-2.89698400879,-12.5456166992,1.0,0.0,0.0,0.0,1.0,0.0,0.0,0.0,1.0
1463077460284790138,385,1463077460212627718,,25.8274688721,-23.0670890808,-69.3839263916,0.00996599998325,1.0,0.0,0.0,0.0,1.0,0.0,0.0,0.0,1.0,3.65853667259,-0.914634168148,-0.487804889679,1.0,0.0,0.0,0.0,1.0,0.0,0.0,0.0,1.0,-4.27125605398,-5.24330163574,-6.88572397461,1.0,0.0,0.0,0.0,1.0,0.0,0.0,0.0,1.0
1463077460284830659,386,1463077460222661800,,25.6009101868,-23.1209354401,-69.2862701416,0.0100079998374,1.0,0.0,0.0,0.0,1.0,0.0,0.0,0.0,1.0,2.31707310677,-1.09756100178,-0.975609779358,1.0,0.0,0.0,0.0,1.0,0.0,0.0,0.0,1.0,-5.43962617188,0.373495458984,-11.2431709961,1.0,0.0,0.0,0.0,1.0,0.0,0.0,0.0,1.0
1463077460285032325,387,1463077460232644371,,25.5448150635,-23.1560287476,-69.2522964478,0.0099950004369,1.0,0.0,0.0,0.0,1.0,0.0,0.0,0.0,1.0,4.51219558716,-3.35365867615,-0.487804889679,1.0,0.0,0.0,0.0,1.0,0.0,0.0,0.0,1.0,-3.29442148437,-1.84353527832,-7.3071034668,1.0,0.0,0.0,0.0,1.0,0.0,0.0,0.0,1.0
1463077460285077533,388,1463077460242536318,,25.4261646271,-23.156414032,-69.2257614136,0.0100050000474,1.0,0.0,0.0,0.0,1.0,0.0,0.0,0.0,1.0,0.243902444839,-2.25609779358,-2.86585378647,1.0,0.0,0.0,0.0,1.0,0.0,0.0,0.0,1.0,-3.55299526367,-1.75255561523,-8.63828017437,1.0,0.0,0.0,0.0,1.0,0.0,0.0,0.0,1.0
1463077460285184876,389,1463077460252654514,,25.6186904907,-23.1739692688,-69.2839355469,0.00999999977648,1.0,0.0,0.0,0.0,1.0,0.0,0.0,0.0,1.0,5.42682933807,-1.64634156227,-0.975609779358,1.0,0.0,0.0,0.0,1.0,0.0,0.0,0.0,1.0,-5.69819995117,-8.15943925781,-10.2328178955,1.0,0.0,0.0,0.0,1.0,0.0,0.0,0.0,1.0
1463077460285231074,390,1463077460263939946,,25.69622612,-23.0448112488,-69.2603759766,0.010208000429,1.0,0.0,0.0,0.0,1.0,0.0,0.0,0.0,1.0,5.91463422775,-2.37804889679,3.41463422775,1.0,0.0,0.0,0.0,1.0,0.0,0.0,0.0,1.0,-1.54186586914,-6.14352145996,-11.6741272949,1.0,0.0,0.0,0.0,1.0,0.0,0.0,0.0,1.0
1463077460285910760,391,1463077460272545491,,25.6305446625,-23.2455844879,-69.2252044678,0.00981699954718,1.0,0.0,0.0,0.0,1.0,0.0,0.0,0.0,1.0,2.01219511032,-3.47560977936,0.426829278469,1.0,0.0,0.0,0.0,1.0,0.0,0.0,0.0,1.0,-6.3637880127,-1.81001645508,-7.23048901367,1.0,0.0,0.0,0.0,1.0,0.0,0.0,0.0,1.0
1463077460286147634,392,1463077460283233685,,25.63904953,-23.2686405182,-69.229309082,0.0103839999065,1.0,0.0,0.0,0.0,1.0,0.0,0.0,0.0,1.0,-0.365853667259,-0.12195122242,-1.2195122242,1.0,0.0,0.0,0.0,1.0,0.0,0.0,0.0,1.0,-5.12359155273,-4.59207878418,-9.39005832661,1.0,0.0,0.0,0.0,1.0,0.0,0.0,0.0,1.0
1463077460294019535,393,1463077460292716883,,25.6776657104,-23.3134288788,-69.2029800415,0.00958000030369,1.0,0.0,0.0,0.0,1.0,0.0,0.0,0.0,1.0,2.07317066193,-3.35365867615,4.51219558716,1.0,0.0,0.0,0.0,1.0,0.0,0.0,0.0,1.0,-4.38138903809,-4.88895979004,-9.01177504883,1.0,0.0,0.0,0.0,1.0,0.0,0.0,0.0,1.0
1463077460304194606,394,1463077460302710965,,25.724521637,-23.2559661865,-69.199546814,0.0100119998679,1.0,0.0,0.0,0.0,1.0,0.0,0.0,0.0,1.0,1.15853655338,1.8292683363,-0.12195122242,1.0,0.0,0.0,0.0,1.0,0.0,0.0,0.0,1.0,-3.81635744629,-5.28639726562,-9.47146118306,1.0,0.0,0.0,0.0,1.0,0.0,0.0,0.0,1.0
1463077460314241865,395,1463077460312513329,,25.6909542084,-23.187461853,-69.1440048218,0.0100029995665,1.0,0.0,0.0,0.0,1.0,0.0,0.0,0.0,1.0,2.92682933807,1.8292683363,1.46341466904,1.0,0.0,0.0,0.0,1.0,0.0,0.0,0.0,1.0,-2.80121594238,-3.08373173828,-8.37012841938,1.0,0.0,0.0,0.0,1.0,0.0,0.0,0.0,1.0
1463077460323933448,396,1463077460322546212,,25.4165802002,-23.2731742859,-69.0244827271,0.0100090000778,1.0,0.0,0.0,0.0,1.0,0.0,0.0,0.0,1.0,0.548780500889,-0.0609756112099,-0.365853667259,1.0,0.0,0.0,0.0,1.0,0.0,0.0,0.0,1.0,-5.13316835937,0.972045874023,-9.13627353516,1.0,0.0,0.0,0.0,1.0,0.0,0.0,0.0,1.0
1463077460334112373,397,1463077460332687846,,25.4927387238,-23.4598884583,-69.0302886963,0.00998600013554,1.0,0.0,0.0,0.0,1.0,0.0,0.0,0.0,1.0,3.35365867615,1.15853655338,-0.609756112099,1.0,0.0,0.0,0.0,1.0,0.0,0.0,0.0,1.0,-5.17626398926,-2.71502468262,-4.60165559082,1.0,0.0,0.0,0.0,1.0,0.0,0.0,0.0,1.0
1463077460343945049,398,1463077460342665209,,25.2578601837,-23.6421642303,-68.928024292,0.00999599974602,1.0,0.0,0.0,0.0,1.0,0.0,0.0,0.0,1.0,0.0,-8.78048801422,3.71951246262,1.0,0.0,0.0,0.0,1.0,0.0,0.0,0.0,1.0,-5.39653054199,0.181959326172,-9.19852277832,1.0,0.0,0.0,0.0,1.0,0.0,0.0,0.0,1.0
1463077460353968766,399,1463077460352655697,,25.1808509827,-23.5683250427,-68.8915100098,0.0100010000169,1.0,0.0,0.0,0.0,1.0,0.0,0.0,0.0,1.0,2.98780488968,-0.792682945728,-1.76829278469,1.0,0.0,0.0,0.0,1.0,0.0,0.0,0.0,1.0,-2.7341782959,-2.28406838379,-9.28950185688,1.0,0.0,0.0,0.0,1.0,0.0,0.0,0.0,1.0
1463077460364062431,400,1463077460362745195,,25.0520324707,-23.4808063507,-68.8383407593,0.0101199997589,1.0,0.0,0.0,0.0,1.0,0.0,0.0,0.0,1.0,0.426829278469,-4.20731735229,0.609756112099,1.0,0.0,0.0,0.0,1.0,0.0,0.0,0.0,1.0,-1.35511813965,-1.5562310791,-7.38371791992,1.0,0.0,0.0,0.0,1.0,0.0,0.0,0.0,1.0
1463077460373907190,401,1463077460372643392,,24.633972168,-23.4977798462,-68.6330947876,0.00989099964499,1.0,0.0,0.0,0.0,1.0,0.0,0.0,0.0,1.0,4.32926845551,-3.53658556938,2.74390244484,1.0,0.0,0.0,0.0,1.0,0.0,0.0,0.0,1.0,-2.30322199707,4.30956328054,-9.10275471191,1.0,0.0,0.0,0.0,1.0,0.0,0.0,0.0,1.0
1463077460383824189,402,1463077460382616172,,24.6038684845,-23.5755729675,-68.6041793823,0.0100490003824,1.0,0.0,0.0,0.0,1.0,0.0,0.0,0.0,1.0,5.48780488968,-1.34146344662,-1.40243899822,1.0,0.0,0.0,0.0,1.0,0.0,0.0,0.0,1.0,-4.95599743652,-2.06859023437,-8.12113203125,1.0,0.0,0.0,0.0,1.0,0.0,0.0,0.0,1.0
1463077460394076291,403,1463077460392705045,,24.5637302399,-23.487859726,-68.5561447144,0.00998099986464,1.0,0.0,0.0,0.0,1.0,0.0,0.0,0.0,1.0,3.71951246262,-0.18292683363,0.792682945728,1.0,0.0,0.0,0.0,1.0,0.0,0.0,0.0,1.0,-2.5234885498,-2.95444484863,-9.5432884019,1.0,0.0,0.0,0.0,1.0,0.0,0.0,0.0,1.0
1463077460403731051,404,1463077460402547044,,24.4911460876,-23.7129631042,-68.5043869019,0.00993300043046,1.0,0.0,0.0,0.0,1.0,0.0,0.0,0.0,1.0,3.35365867615,-3.23170733452,1.15853655338,1.0,0.0,0.0,0.0,1.0,0.0,0.0,0.0,1.0,-3.60087929687,-0.699106884766,-3.79720383301,1.0,0.0,0.0,0.0,1.0,0.0,0.0,0.0,1.0
1463077460414030027,405,1463077460412579095,,24.4513950348,-23.696264267,-68.4727554321,0.0100269997492,1.0,0.0,0.0,0.0,1.0,0.0,0.0,0.0,1.0,4.45121955872,-2.68292689323,-0.426829278469,1.0,0.0,0.0,0.0,1.0,0.0,0.0,0.0,1.0,-4.40054265137,-3.24174904785,-11.8752402344,1.0,0.0,0.0,0.0,1.0,0.0,0.0,0.0,1.0
1463077460423703485,406,1463077460422498854,,24.3946895599,-23.7397670746,-68.4186477661,0.0100130001083,1.0,0.0,0.0,0.0,1.0,0.0,0.0,0.0,1.0,4.02439022064,-0.18292683363,0.487804889679,1.0,0.0,0.0,0.0,1.0,0.0,0.0,0.0,1.0,-4.59207878418,-2.14999323695,-8.51378168804,1.0,0.0,0.0,0.0,1.0,0.0,0.0,0.0,1.0
1463077460433766734,407,1463077460432481998,,24.3219165802,-23.6399059296,-68.3690261841,0.00997000001371,1.0,0.0,0.0,0.0,1.0,0.0,0.0,0.0,1.0,3.35365867615,-0.365853667259,-0.365853667259,1.0,0.0,0.0,0.0,1.0,0.0,0.0,0.0,1.0,-2.46602770996,-2.4995465332,-10.2088758789,1.0,0.0,0.0,0.0,1.0,0.0,0.0,0.0,1.0
1463077460448759549,408,1463077460442902485,,24.2873725891,-23.6282176971,-68.3119506836,0.0100020002574,1.0,0.0,0.0,0.0,1.0,0.0,0.0,0.0,1.0,2.86585378647,2.25609779358,1.40243899822,1.0,0.0,0.0,0.0,1.0,0.0,0.0,0.0,1.0,-4.38617744141,-3.1364041748,-9.30865547017,1.0,0.0,0.0,0.0,1.0,0.0,0.0,0.0,1.0
1463077460454739842,409,1463077460452734901,,24.2554950714,-23.6078395844,-68.2708587646,0.0100520001724,1.0,0.0,0.0,0.0,1.0,0.0,0.0,0.0,1.0,1.58536589146,1.40243899822,0.609756112099,1.0,0.0,0.0,0.0,1.0,0.0,0.0,0.0,1.0,-3.94564433594,-3.17471140137,-8.84896933594,1.0,0.0,0.0,0.0,1.0,0.0,0.0,0.0,1.0
1463077460463884656,410,1463077460462482577,,24.2306938171,-23.5903301239,-68.2297286987,0.00996800046414,1.0,0.0,0.0,0.0,1.0,0.0,0.0,0.0,1.0,2.31707310677,2.13414645195,0.304878056049,1.0,0.0,0.0,0.0,1.0,0.0,0.0,0.0,1.0,-4.08450803223,-3.10767375488,-8.71489404297,1.0,0.0,0.0,0.0,1.0,0.0,0.0,0.0,1.0
1463077460474176653,411,1463077460472527284,,24.0690383911,-23.6788482666,-68.1390686035,0.0099950004369,1.0,0.0,0.0,0.0,1.0,0.0,0.0,0.0,1.0,1.95121955872,3.04878044128,-0.670731723309,1.0,0.0,0.0,0.0,1.0,0.0,0.0,0.0,1.0,-3.9121255127,-0.335188232422,-5.64552751465,1.0,0.0,0.0,0.0,1.0,0.0,0.0,0.0,1.0
1463077460483729539,412,1463077460482510428,,23.8869075775,-23.6045532227,-68.0570831299,0.0100010000169,1.0,0.0,0.0,0.0,1.0,0.0,0.0,0.0,1.0,-2.37804889679,-1.8292683363,1.64634156227,1.0,0.0,0.0,0.0,1.0,0.0,0.0,0.0,1.0,-2.27927998047,-1.50355864258,-9.61511445171,1.0,0.0,0.0,0.0,1.0,0.0,0.0,0.0,1.0
1463077460494103411,413,1463077460492559302,,23.8180484772,-23.5179080963,-68.0013198853,0.00999699998647,1.0,0.0,0.0,0.0,1.0,0.0,0.0,0.0,1.0,-0.487804889679,2.19512200356,1.2804877758,1.0,0.0,0.0,0.0,1.0,0.0,0.0,0.0,1.0,-3.67270534668,-3.90733710937,-11.8177793945,1.0,0.0,0.0,0.0,1.0,0.0,0.0,0.0,1.0
1463077460503900931,414,1463077460502510259,,23.7586174011,-23.4533233643,-67.9562988281,0.00999899953604,1.0,0.0,0.0,0.0,1.0,0.0,0.0,0.0,1.0,0.487804889679,1.8902438879,0.12195122242,1.0,0.0,0.0,0.0,1.0,0.0,0.0,0.0,1.0,-3.26569106445,-2.90656081543,-9.15542714844,1.0,0.0,0.0,0.0,1.0,0.0,0.0,0.0,1.0
1463077460513788399,415,1463077460512517361,,23.6634559631,-23.3790168762,-67.9018707275,0.0100029995665,1.0,0.0,0.0,0.0,1.0,0.0,0.0,0.0,1.0,0.792682945728,1.64634156227,-0.487804889679,1.0,0.0,0.0,0.0,1.0,0.0,0.0,0.0,1.0,-2.93529123535,-2.1691467041,-9.04050546875,1.0,0.0,0.0,0.0,1.0,0.0,0.0,0.0,1.0
1463077460523872949,416,1463077460522506547,,23.5933418274,-23.331653595,-67.8561401367,0.0100020002574,1.0,0.0,0.0,0.0,1.0,0.0,0.0,0.0,1.0,0.304878056049,1.15853655338,0.12195122242,1.0,0.0,0.0,0.0,1.0,0.0,0.0,0.0,1.0,-3.63439812012,-2.87304199219,-9.75397756348,1.0,0.0,0.0,0.0,1.0,0.0,0.0,0.0,1.0
1463077460534198592,417,1463077460532569952,,23.5427722931,-23.3341293335,-67.8038864136,0.0100039998069,1.0,0.0,0.0,0.0,1.0,0.0,0.0,0.0,1.0,1.8902438879,2.19512200356,0.609756112099,1.0,0.0,0.0,0.0,1.0,0.0,0.0,0.0,1.0,-4.07971962891,-2.4756045166,-8.20732329102,1.0,0.0,0.0,0.0,1.0,0.0,0.0,0.0,1.0
1463077460544432205,418,1463077460542526534,,23.3849601746,-23.2987251282,-67.7242279053,0.0100010000169,1.0,0.0,0.0,0.0,1.0,0.0,0.0,0.0,1.0,1.15853655338,0.792682945728,-0.243902444839,1.0,0.0,0.0,0.0,1.0,0.0,0.0,0.0,1.0,-3.64397492676,-1.11569797363,-10.0269165527,1.0,0.0,0.0,0.0,1.0,0.0,0.0,0.0,1.0
1463077460554147329,419,1463077460552543168,,23.3449516296,-23.2074489594,-67.6848907471,0.00999199971557,1.0,0.0,0.0,0.0,1.0,0.0,0.0,0.0,1.0,2.19512200356,0.853658556938,0.0609756112099,1.0,0.0,0.0,0.0,1.0,0.0,0.0,0.0,1.0,-2.89219560547,-3.23217224121,-10.3716815918,1.0,0.0,0.0,0.0,1.0,0.0,0.0,0.0,1.0
1463077460563825943,420,1463077460562531677,,23.2306270599,-23.2105617523,-67.6146011353,0.0100210001692,1.0,0.0,0.0,0.0,1.0,0.0,0.0,0.0,1.0,0.975609779358,-2.68292689323,2.31707310677,1.0,0.0,0.0,0.0,1.0,0.0,0.0,0.0,1.0,-3.58651408691,-1.92972653809,-9.73961235352,1.0,0.0,0.0,0.0,1.0,0.0,0.0,0.0,1.0
1463077460574185805,421,1463077460572534561,,23.1986103058,-23.2165527344,-67.5720291138,0.00997800007463,1.0,0.0,0.0,0.0,1.0,0.0,0.0,0.0,1.0,3.23170733452,-2.07317066193,1.58536589146,1.0,0.0,0.0,0.0,1.0,0.0,0.0,0.0,1.0,-3.75410820312,-2.77248552246,-9.18894597168,1.0,0.0,0.0,0.0,1.0,0.0,0.0,0.0,1.0
1463077460584053794,422,1463077460582536351,,23.1687736511,-23.2230052948,-67.5386657715,0.0100029995665,1.0,0.0,0.0,0.0,1.0,0.0,0.0,0.0,1.0,3.35365867615,-2.25609779358,0.609756112099,1.0,0.0,0.0,0.0,1.0,0.0,0.0,0.0,1.0,-3.64397492676,-2.60010300293,-8.82023891602,1.0,0.0,0.0,0.0,1.0,0.0,0.0,0.0,1.0
1463077460594446624,423,1463077460592527985,,23.1545906067,-23.2308959961,-67.5151748657,0.00999800022691,1.0,0.0,0.0,0.0,1.0,0.0,0.0,0.0,1.0,3.29268312454,-1.2195122242,-0.243902444839,1.0,0.0,0.0,0.0,1.0,0.0,0.0,0.0,1.0,-3.82593425293,-2.73896669922,-8.528146898,1.0,0.0,0.0,0.0,1.0,0.0,0.0,0.0,1.0
1463077460603887947,424,1463077460602493890,,23.1280841827,-23.2157745361,-67.4866943359,0.0100020002574,1.0,0.0,0.0,0.0,1.0,0.0,0.0,0.0,1.0,2.98780488968,0.0,-0.609756112099,1.0,0.0,0.0,0.0,1.0,0.0,0.0,0.0,1.0,-3.73016618652,-2.6862942627,-8.80587370605,1.0,0.0,0.0,0.0,1.0,0.0,0.0,0.0,1.0
1463077460613969269,425,1463077460612609898,,23.0852108002,-23.1957397461,-67.450843811,0.0100109996274,1.0,0.0,0.0,0.0,1.0,0.0,0.0,0.0,1.0,1.8902438879,0.731707334518,-0.304878056049,1.0,0.0,0.0,0.0,1.0,0.0,0.0,0.0,1.0,-3.77326181641,-2.66235224609,-8.90643017578,1.0,0.0,0.0,0.0,1.0,0.0,0.0,0.0,1.0
1463077460624229964,426,1463077460622547261,,23.0468177795,-23.1838779449,-67.4166870117,0.00999100040644,1.0,0.0,0.0,0.0,1.0,0.0,0.0,0.0,1.0,1.64634156227,0.609756112099,-0.12195122242,1.0,0.0,0.0,0.0,1.0,0.0,0.0,0.0,1.0,-3.99831677246,-2.83952316895,-9.10754311523,1.0,0.0,0.0,0.0,1.0,0.0,0.0,0.0,1.0
1463077460633939880,427,1463077460632588531,,22.9976482391,-23.1612377167,-67.3708114624,0.0100260004401,1.0,0.0,0.0,0.0,1.0,0.0,0.0,0.0,1.0,1.34146344662,1.70731711388,0.426829278469,1.0,0.0,0.0,0.0,1.0,0.0,0.0,0.0,1.0,-3.84987626953,-2.71502468262,-8.92079538574,1.0,0.0,0.0,0.0,1.0,0.0,0.0,0.0,1.0
1463077460644338440,428,1463077460642545842,,22.9471988678,-23.1370334625,-67.3273010254,0.00997299980372,1.0,0.0,0.0,0.0,1.0,0.0,0.0,0.0,1.0,1.15853655338,1.15853655338,0.426829278469,1.0,0.0,0.0,0.0,1.0,0.0,0.0,0.0,1.0,-3.73495458984,-2.71502468262,-8.96867941895,1.0,0.0,0.0,0.0,1.0,0.0,0.0,0.0,1.0
1463077460654082627,429,1463077460652520705,,22.8999710083,-23.1104373932,-67.2816238403,0.00999599974602,1.0,0.0,0.0,0.0,1.0,0.0,0.0,0.0,1.0,1.15853655338,1.8292683363,0.548780500889,1.0,0.0,0.0,0.0,1.0,0.0,0.0,0.0,1.0,-3.73974299316,-2.73896669922,-8.81066210937,1.0,0.0,0.0,0.0,1.0,0.0,0.0,0.0,1.0
1463077460664416239,430,1463077460662699786,,22.841791153,-23.0834331512,-67.2364654541,0.0100640002638,1.0,0.0,0.0,0.0,1.0,0.0,0.0,0.0,1.0,0.548780500889,1.8292683363,0.243902444839,1.0,0.0,0.0,0.0,1.0,0.0,0.0,0.0,1.0,-3.83072265625,-2.70065947266,-9.03092866211,1.0,0.0,0.0,0.0,1.0,0.0,0.0,0.0,1.0
1463077460674421519,431,1463077460672661160,,22.7826194763,-23.0514945984,-67.1945877075,0.00993799977005,1.0,0.0,0.0,0.0,1.0,0.0,0.0,0.0,1.0,0.487804889679,1.8292683363,-0.12195122242,1.0,0.0,0.0,0.0,1.0,0.0,0.0,0.0,1.0,-3.73495458984,-2.64319863281,-9.01177504883,1.0,0.0,0.0,0.0,1.0,0.0,0.0,0.0,1.0
1463077460684013727,432,1463077460682512169,,22.728887558,-23.0151805878,-67.1575317383,0.00999599974602,1.0,0.0,0.0,0.0,1.0,0.0,0.0,0.0,1.0,1.15853655338,1.76829278469,-0.731707334518,1.0,0.0,0.0,0.0,1.0,0.0,0.0,0.0,1.0,-3.68707055664,-2.58573779297,-9.04529387207,1.0,0.0,0.0,0.0,1.0,0.0,0.0,0.0,1.0
1463077460694249318,433,1463077460692556824,,22.6766624451,-22.9751415253,-67.1196136475,0.0100410003215,1.0,0.0,0.0,0.0,1.0,0.0,0.0,0.0,1.0,1.58536589146,1.70731711388,-0.731707334518,1.0,0.0,0.0,0.0,1.0,0.0,0.0,0.0,1.0,-3.6056677002,-2.54264216309,-9.07402429199,1.0,0.0,0.0,0.0,1.0,0.0,0.0,0.0,1.0
1463077460703942411,434,1463077460702517781,,22.6360149384,-22.9370193481,-67.0839920044,0.00996599998325,1.0,0.0,0.0,0.0,1.0,0.0,0.0,0.0,1.0,2.01219511032,1.34146344662,-0.487804889679,1.0,0.0,0.0,0.0,1.0,0.0,0.0,0.0,1.0,-3.56736047363,-2.66235224609,-9.07881269531,1.0,0.0,0.0,0.0,1.0,0.0,0.0,0.0,1.0
1463077460714140503,435,1463077460712625508,,22.5912227631,-22.9056339264,-67.0497360229,0.0100229997188,1.0,0.0,0.0,0.0,1.0,0.0,0.0,0.0,1.0,1.52439022064,0.731707334518,-0.365853667259,1.0,0.0,0.0,0.0,1.0,0.0,0.0,0.0,1.0,-3.55778366699,-2.64798703613,-9.03092866211,1.0,0.0,0.0,0.0,1.0,0.0,0.0,0.0,1.0
1463077460724209845,436,1463077460722461882,,22.5351715088,-22.8696556091,-67.0073242188,0.0099670002237,1.0,0.0,0.0,0.0,1.0,0.0,0.0,0.0,1.0,1.2195122242,0.853658556938,0.18292683363,1.0,0.0,0.0,0.0,1.0,0.0,0.0,0.0,1.0,-3.47638081055,-2.57616098633,-9.16021555176,1.0,0.0,0.0,0.0,1.0,0.0,0.0,0.0,1.0
1463077460733994605,437,1463077460732628307,,22.4790630341,-22.847240448,-66.9629898071,0.0100419996306,1.0,0.0,0.0,0.0,1.0,0.0,0.0,0.0,1.0,1.46341466904,0.487804889679,0.426829278469,1.0,0.0,0.0,0.0,1.0,0.0,0.0,0.0,1.0,-3.6296097168,-2.51870014648,-9.1219083252,1.0,0.0,0.0,0.0,1.0,0.0,0.0,0.0,1.0
1463077460744154936,438,1463077460742589472,,22.4290828705,-22.835308075,-66.9221572876,0.0100339995697,1.0,0.0,0.0,0.0,1.0,0.0,0.0,0.0,1.0,1.40243899822,-0.18292683363,0.609756112099,1.0,0.0,0.0,0.0,1.0,0.0,0.0,0.0,1.0,-3.66791694336,-2.58573779297,-9.02135185547,1.0,0.0,0.0,0.0,1.0,0.0,0.0,0.0,1.0
1463077460754030581,439,1463077460752537252,,22.3828601837,-22.8190441132,-66.883895874,0.00993399973959,1.0,0.0,0.0,0.0,1.0,0.0,0.0,0.0,1.0,1.95121955872,-0.304878056049,0.304878056049,1.0,0.0,0.0,0.0,1.0,0.0,0.0,0.0,1.0,-3.62482131348,-2.55700737305,-9.15542714844,1.0,0.0,0.0,0.0,1.0,0.0,0.0,0.0,1.0
1463077460764306485,440,1463077460762649511,,22.3516712189,-22.8101882935,-66.85206604,0.0100570004433,1.0,0.0,0.0,0.0,1.0,0.0,0.0,0.0,1.0,3.17073178291,-0.853658556938,-0.12195122242,1.0,0.0,0.0,0.0,1.0,0.0,0.0,0.0,1.0,-3.64397492676,-2.51870014648,-9.01177504883,1.0,0.0,0.0,0.0,1.0,0.0,0.0,0.0,1.0
1463077460774177859,441,1463077460772516354,,22.3257236481,-22.8026371002,-66.8188095093,0.00994300004095,1.0,0.0,0.0,0.0,1.0,0.0,0.0,0.0,1.0,3.53658556938,-0.792682945728,0.12195122242,1.0,0.0,0.0,0.0,1.0,0.0,0.0,0.0,1.0,-3.67749375,-2.56179577637,-9.04529387207,1.0,0.0,0.0,0.0,1.0,0.0,0.0,0.0,1.0
1463077460784332929,442,1463077460782562467,,22.3134708405,-22.799331665,-66.7910919189,0.0099950004369,1.0,0.0,0.0,0.0,1.0,0.0,0.0,0.0,1.0,3.84146332741,-1.2195122242,0.12195122242,1.0,0.0,0.0,0.0,1.0,0.0,0.0,0.0,1.0,-3.68707055664,-2.71502468262,-8.99262143555,1.0,0.0,0.0,0.0,1.0,0.0,0.0,0.0,1.0
1463077460794124877,443,1463077460792526809,,22.3012447357,-22.7997760773,-66.7606811523,0.0100029995665,1.0,0.0,0.0,0.0,1.0,0.0,0.0,0.0,1.0,3.59756112099,-1.2195122242,0.548780500889,1.0,0.0,0.0,0.0,1.0,0.0,0.0,0.0,1.0,-3.69185895996,-2.74854350586,-8.88248815918,1.0,0.0,0.0,0.0,1.0,0.0,0.0,0.0,1.0
1463077460804060209,444,1463077460802532193,,22.2882404327,-22.8002204895,-66.734375,0.0100260004401,1.0,0.0,0.0,0.0,1.0,0.0,0.0,0.0,1.0,2.5,-0.975609779358,0.426829278469,1.0,0.0,0.0,0.0,1.0,0.0,0.0,0.0,1.0,-3.75410820312,-2.90656081543,-8.84418093262,1.0,0.0,0.0,0.0,1.0,0.0,0.0,0.0,1.0
1463077460814277206,445,1463077460812529452,,22.2562427521,-22.8011016846,-66.6980209351,0.00997400004417,1.0,0.0,0.0,0.0,1.0,0.0,0.0,0.0,1.0,1.64634156227,-0.426829278469,0.914634168148,1.0,0.0,0.0,0.0,1.0,0.0,0.0,0.0,1.0,-3.82114584961,-2.7820623291,-8.8872765625,1.0,0.0,0.0,0.0,1.0,0.0,0.0,0.0,1.0
1463077460824316601,446,1463077460822460773,,22.2148189545,-22.7880706787,-66.6582870483,0.00998300034553,1.0,0.0,0.0,0.0,1.0,0.0,0.0,0.0,1.0,1.34146344662,0.12195122242,0.792682945728,1.0,0.0,0.0,0.0,1.0,0.0,0.0,0.0,1.0,-3.68707055664,-2.7102362793,-8.98783303223,1.0,0.0,0.0,0.0,1.0,0.0,0.0,0.0,1.0
1463077460834206360,447,1463077460832635584,,22.1743068695,-22.7773780823,-66.6194763184,0.0100339995697,1.0,0.0,0.0,0.0,1.0,0.0,0.0,0.0,1.0,1.15853655338,0.426829278469,0.670731723309,1.0,0.0,0.0,0.0,1.0,0.0,0.0,0.0,1.0,-3.77805021973,-2.7341782959,-8.9351605957,1.0,0.0,0.0,0.0,1.0,0.0,0.0,0.0,1.0
1463077460844233567,448,1463077460842523781,,22.1244182587,-22.7648525238,-66.5779495239,0.00998799968511,1.0,0.0,0.0,0.0,1.0,0.0,0.0,0.0,1.0,0.914634168148,0.609756112099,0.609756112099,1.0,0.0,0.0,0.0,1.0,0.0,0.0,0.0,1.0,-3.7493197998,-2.60010300293,-8.91600698242,1.0,0.0,0.0,0.0,1.0,0.0,0.0,0.0,1.0
1463077460854259680,449,1463077460852533800,,22.0792541504,-22.7498130798,-66.5358047485,0.00999599974602,1.0,0.0,0.0,0.0,1.0,0.0,0.0,0.0,1.0,1.70731711388,0.731707334518,0.487804889679,1.0,0.0,0.0,0.0,1.0,0.0,0.0,0.0,1.0,-3.73974299316,-2.54743056641,-8.96389101563,1.0,0.0,0.0,0.0,1.0,0.0,0.0,0.0,1.0
1463077460864162720,450,1463077460862534288,,22.0427322388,-22.7325496674,-66.495010376,0.0100060002878,1.0,0.0,0.0,0.0,1.0,0.0,0.0,0.0,1.0,2.25609779358,0.548780500889,0.548780500889,1.0,0.0,0.0,0.0,1.0,0.0,0.0,0.0,1.0,-3.65834013672,-2.59052619629,-8.94473740234,1.0,0.0,0.0,0.0,1.0,0.0,0.0,0.0,1.0
1463077460874287010,451,1463077460872547484,,22.0077476501,-22.7155437469,-66.4536590576,0.00999299995601,1.0,0.0,0.0,0.0,1.0,0.0,0.0,0.0,1.0,2.19512200356,0.365853667259,0.792682945728,1.0,0.0,0.0,0.0,1.0,0.0,0.0,0.0,1.0,-3.64397492676,-2.65277543945,-9.01177504883,1.0,0.0,0.0,0.0,1.0,0.0,0.0,0.0,1.0
1463077460884118071,452,1463077460882672191,,21.9721565247,-22.7019710541,-66.4073944092,0.0100630000234,1.0,0.0,0.0,0.0,1.0,0.0,0.0,0.0,1.0,2.37804889679,0.243902444839,1.2804877758,1.0,0.0,0.0,0.0,1.0,0.0,0.0,0.0,1.0,-3.69664736328,-2.67192905273,-9.12669672852,1.0,0.0,0.0,0.0,1.0,0.0,0.0,0.0,1.0
1463077460894215695,453,1463077460892622783,,21.9348011017,-22.6955337524,-66.3608398438,0.00997599959373,1.0,0.0,0.0,0.0,1.0,0.0,0.0,0.0,1.0,2.13414645195,0.18292683363,1.40243899822,1.0,0.0,0.0,0.0,1.0,0.0,0.0,0.0,1.0,-3.78762702637,-2.65756384277,-9.06923588867,1.0,0.0,0.0,0.0,1.0,0.0,0.0,0.0,1.0
1463077460904247068,454,1463077460902536553,,21.8989009857,-22.6840648651,-66.315284729,0.00996300019324,1.0,0.0,0.0,0.0,1.0,0.0,0.0,0.0,1.0,2.19512200356,0.304878056049,1.2804877758,1.0,0.0,0.0,0.0,1.0,0.0,0.0,0.0,1.0,-3.72058937988,-2.66235224609,-9.06923588867,1.0,0.0,0.0,0.0,1.0,0.0,0.0,0.0,1.0
1463077460914198390,455,1463077460912539124,,21.8636798859,-22.6725311279,-66.2735214233,0.0100039998069,1.0,0.0,0.0,0.0,1.0,0.0,0.0,0.0,1.0,2.01219511032,0.365853667259,0.914634168148,1.0,0.0,0.0,0.0,1.0,0.0,0.0,0.0,1.0,-3.73016618652,-2.65756384277,-9.00219824219,1.0,0.0,0.0,0.0,1.0,0.0,0.0,0.0,1.0
1463077460924235023,456,1463077460922505498,,21.8335819244,-22.6569576263,-66.2379226685,0.0099849998951,1.0,0.0,0.0,0.0,1.0,0.0,0.0,0.0,1.0,2.13414645195,0.243902444839,0.426829278469,1.0,0.0,0.0,0.0,1.0,0.0,0.0,0.0,1.0,-3.67749375,-2.69108266602,-9.02614025879,1.0,0.0,0.0,0.0,1.0,0.0,0.0,0.0,1.0
1463077460934672229,457,1463077460932581142,,21.8063678741,-22.6479377747,-66.2034301758,0.00999699998647,1.0,0.0,0.0,0.0,1.0,0.0,0.0,0.0,1.0,2.13414645195,-0.0609756112099,0.548780500889,1.0,0.0,0.0,0.0,1.0,0.0,0.0,0.0,1.0,-3.74453139648,-2.7341782959,-9.02614025879,1.0,0.0,0.0,0.0,1.0,0.0,0.0,0.0,1.0
1463077460944162979,458,1463077460942542620,,21.77161026,-22.6333580017,-66.1730804443,0.0100109996274,1.0,0.0,0.0,0.0,1.0,0.0,0.0,0.0,1.0,1.52439022064,-0.0609756112099,-0.0,1.0,0.0,0.0,0.0,1.0,0.0,0.0,0.0,1.0,-3.64876333008,-2.65756384277,-8.98304462891,1.0,0.0,0.0,0.0,1.0,0.0,0.0,0.0,1.0
1463077460954275394,459,1463077460952530556,,21.7336559296,-22.6195011139,-66.1411361694,0.0099950004369,1.0,0.0,0.0,0.0,1.0,0.0,0.0,0.0,1.0,1.40243899822,-0.12195122242,0.12195122242,1.0,0.0,0.0,0.0,1.0,0.0,0.0,0.0,1.0,-3.6296097168,-2.61925661621,-8.96867941895,1.0,0.0,0.0,0.0,1.0,0.0,0.0,0.0,1.0
1463077460964701349,460,1463077460962612189,,21.695608139,-22.6103172302,-66.1093673706,0.0100330002606,1.0,0.0,0.0,0.0,1.0,0.0,0.0,0.0,1.0,1.76829278469,0.0,-0.12195122242,1.0,0.0,0.0,0.0,1.0,0.0,0.0,0.0,1.0,-3.73495458984,-2.52827695312,-8.94952580566,1.0,0.0,0.0,0.0,1.0,0.0,0.0,0.0,1.0
1463077460974171318,461,1463077460972523563,,21.6627025604,-22.593788147,-66.0825805664,0.00997299980372,1.0,0.0,0.0,0.0,1.0,0.0,0.0,0.0,1.0,1.8902438879,-0.0609756112099,-0.487804889679,1.0,0.0,0.0,0.0,1.0,0.0,0.0,0.0,1.0,-3.64397492676,-2.58573779297,-9.02614025879,1.0,0.0,0.0,0.0,1.0,0.0,0.0,0.0,1.0
1463077460984574826,462,1463077460982581812,,21.6340770721,-22.5801963806,-66.057472229,0.00999299995601,1.0,0.0,0.0,0.0,1.0,0.0,0.0,0.0,1.0,2.01219511032,-0.0609756112099,-0.548780500889,1.0,0.0,0.0,0.0,1.0,0.0,0.0,0.0,1.0,-3.69664736328,-2.61925661621,-8.99740983887,1.0,0.0,0.0,0.0,1.0,0.0,0.0,0.0,1.0
1463077460994496512,463,1463077460992635008,,21.6062068939,-22.5690631866,-66.0333709717,0.0100210001692,1.0,0.0,0.0,0.0,1.0,0.0,0.0,0.0,1.0,2.01219511032,-0.12195122242,-0.609756112099,1.0,0.0,0.0,0.0,1.0,0.0,0.0,0.0,1.0,-3.69185895996,-2.59052619629,-8.89206496582,1.0,0.0,0.0,0.0,1.0,0.0,0.0,0.0,1.0
1463077461003984554,464,1463077461002615288,,21.5789813995,-22.5607566833,-66.0066375732,0.00998899992555,1.0,0.0,0.0,0.0,1.0,0.0,0.0,0.0,1.0,2.25609779358,0.0,-0.426829278469,1.0,0.0,0.0,0.0,1.0,0.0,0.0,0.0,1.0,-3.76847341309,-2.58094938965,-8.93994899902,1.0,0.0,0.0,0.0,1.0,0.0,0.0,0.0,1.0
1463077461015151080,465,1463077461012511245,,21.554901123,-22.5516090393,-65.9794769287,0.00998399965465,1.0,0.0,0.0,0.0,1.0,0.0,0.0,0.0,1.0,2.01219511032,0.0,-0.12195122242,1.0,0.0,0.0,0.0,1.0,0.0,0.0,0.0,1.0,-3.73016618652,-2.68150585937,-8.90164177246,1.0,0.0,0.0,0.0,1.0,0.0,0.0,0.0,1.0
1463077461024203446,466,1463077461022546681,,21.5310916901,-22.5443782806,-65.9518737793,0.0100360000506,1.0,0.0,0.0,0.0,1.0,0.0,0.0,0.0,1.0,1.8292683363,0.18292683363,-0.0609756112099,1.0,0.0,0.0,0.0,1.0,0.0,0.0,0.0,1.0,-3.76368500977,-2.69587106934,-8.8154505127,1.0,0.0,0.0,0.0,1.0,0.0,0.0,0.0,1.0
1463077461034256695,467,1463077461032510607,,21.5040512085,-22.5299606323,-65.9262542725,0.00997199956328,1.0,0.0,0.0,0.0,1.0,0.0,0.0,0.0,1.0,1.70731711388,0.18292683363,-0.365853667259,1.0,0.0,0.0,0.0,1.0,0.0,0.0,0.0,1.0,-3.67749375,-2.66714064941,-8.9112185791,1.0,0.0,0.0,0.0,1.0,0.0,0.0,0.0,1.0
1463077461044735827,468,1463077461042757188,,21.4804096222,-22.5132312775,-65.9038314819,0.0101730003953,1.0,0.0,0.0,0.0,1.0,0.0,0.0,0.0,1.0,1.8292683363,0.18292683363,-0.670731723309,1.0,0.0,0.0,0.0,1.0,0.0,0.0,0.0,1.0,-3.71101257324,-2.72460148926,-9.03092866211,1.0,0.0,0.0,0.0,1.0,0.0,0.0,0.0,1.0
1463077461054088869,469,1463077461052504187,,21.458316803,-22.5008335114,-65.8822479248,0.00982800032943,1.0,0.0,0.0,0.0,1.0,0.0,0.0,0.0,1.0,1.64634156227,0.304878056049,-0.609756112099,1.0,0.0,0.0,0.0,1.0,0.0,0.0,0.0,1.0,-3.76368500977,-2.73896669922,-8.93037219238,1.0,0.0,0.0,0.0,1.0,0.0,0.0,0.0,1.0
1463077461064710449,470,1463077461062566290,,21.4275932312,-22.478471756,-65.8585205078,0.00999699998647,1.0,0.0,0.0,0.0,1.0,0.0,0.0,0.0,1.0,1.34146344662,0.548780500889,-0.731707334518,1.0,0.0,0.0,0.0,1.0,0.0,0.0,0.0,1.0,-3.69185895996,-2.70544787598,-9.1219083252,1.0,0.0,0.0,0.0,1.0,0.0,0.0,0.0,1.0
1463077461074169272,471,1463077461072517299,,21.3956794739,-22.4606781006,-65.8355407715,0.0100039998069,1.0,0.0,0.0,0.0,1.0,0.0,0.0,0.0,1.0,1.2804877758,0.731707334518,-0.914634168148,1.0,0.0,0.0,0.0,1.0,0.0,0.0,0.0,1.0,-3.76847341309,-2.64319863281,-9.00219824219,1.0,0.0,0.0,0.0,1.0,0.0,0.0,0.0,1.0
1463077461084256792,472,1463077461082524870,,21.3652744293,-22.4420928955,-65.8134002686,0.00999800022691,1.0,0.0,0.0,0.0,1.0,0.0,0.0,0.0,1.0,1.2195122242,0.731707334518,-0.914634168148,1.0,0.0,0.0,0.0,1.0,0.0,0.0,0.0,1.0,-3.74453139648,-2.66714064941,-8.97825622559,1.0,0.0,0.0,0.0,1.0,0.0,0.0,0.0,1.0
1463077461094698945,473,1463077461092701556,,21.3369846344,-22.4230537415,-65.7906188965,0.0100969998166,1.0,0.0,0.0,0.0,1.0,0.0,0.0,0.0,1.0,1.46341466904,0.548780500889,-0.792682945728,1.0,0.0,0.0,0.0,1.0,0.0,0.0,0.0,1.0,-3.69664736328,-2.66714064941,-8.98304462891,1.0,0.0,0.0,0.0,1.0,0.0,0.0,0.0,1.0
1463077461104130893,474,1463077461102526159,,21.3032684326,-22.3988132477,-65.762588501,0.00990699976683,1.0,0.0,0.0,0.0,1.0,0.0,0.0,0.0,1.0,1.46341466904,0.792682945728,-0.487804889679,1.0,0.0,0.0,0.0,1.0,0.0,0.0,0.0,1.0,-3.62003291016,-2.60489140625,-9.04050546875,1.0,0.0,0.0,0.0,1.0,0.0,0.0,0.0,1.0
1463077461114770754,475,1463077461112603105,,21.276260376,-22.379327774,-65.734046936,0.0100039998069,1.0,0.0,0.0,0.0,1.0,0.0,0.0,0.0,1.0,1.70731711388,0.609756112099,-0.18292683363,1.0,0.0,0.0,0.0,1.0,0.0,0.0,0.0,1.0,-3.64876333008,-2.67671745605,-8.98783303223,1.0,0.0,0.0,0.0,1.0,0.0,0.0,0.0,1.0
1463077461124082130,476,1463077461122481406,,21.2438373566,-22.3597736359,-65.7032089233,0.00997800007463,1.0,0.0,0.0,0.0,1.0,0.0,0.0,0.0,1.0,1.64634156227,0.609756112099,-0.12195122242,1.0,0.0,0.0,0.0,1.0,0.0,0.0,0.0,1.0,-3.64397492676,-2.60489140625,-9.03092866211,1.0,0.0,0.0,0.0,1.0,0.0,0.0,0.0,1.0
1463077461134223868,477,1463077461132512415,,21.2144012451,-22.3506622314,-65.6733856201,0.0100010000169,1.0,0.0,0.0,0.0,1.0,0.0,0.0,0.0,1.0,1.52439022064,0.304878056049,0.0609756112099,1.0,0.0,0.0,0.0,1.0,0.0,0.0,0.0,1.0,-3.78283862305,-2.67192905273,-9.02614025879,1.0,0.0,0.0,0.0,1.0,0.0,0.0,0.0,1.0
1463077461144551542,478,1463077461142776236,,21.1823577881,-22.3344535828,-65.6427230835,0.010156000033,1.0,0.0,0.0,0.0,1.0,0.0,0.0,0.0,1.0,1.2804877758,0.304878056049,0.12195122242,1.0,0.0,0.0,0.0,1.0,0.0,0.0,0.0,1.0,-3.66791694336,-2.69587106934,-9.07881269531,1.0,0.0,0.0,0.0,1.0,0.0,0.0,0.0,1.0
1463077461154104897,479,1463077461152621933,,21.1532058716,-22.3180866241,-65.6150894165,0.00986799970269,1.0,0.0,0.0,0.0,1.0,0.0,0.0,0.0,1.0,1.46341466904,0.304878056049,-0.12195122242,1.0,0.0,0.0,0.0,1.0,0.0,0.0,0.0,1.0,-3.63439812012,-2.65277543945,-8.99740983887,1.0,0.0,0.0,0.0,1.0,0.0,0.0,0.0,1.0
1463077461164260905,480,1463077461162497473,,21.1357593536,-22.3071250916,-65.5944213867,0.00998799968511,1.0,0.0,0.0,0.0,1.0,0.0,0.0,0.0,1.0,2.01219511032,-0.18292683363,-0.487804889679,1.0,0.0,0.0,0.0,1.0,0.0,0.0,0.0,1.0,-3.64397492676,-2.69108266602,-8.89206496582,1.0,0.0,0.0,0.0,1.0,0.0,0.0,0.0,1.0
1463077461174375455,481,1463077461172538118,,21.1137676239,-22.296043396,-65.5703735352,0.0099950004369,1.0,0.0,0.0,0.0,1.0,0.0,0.0,0.0,1.0,2.01219511032,0.304878056049,-0.487804889679,1.0,0.0,0.0,0.0,1.0,0.0,0.0,0.0,1.0,-3.75410820312,-2.64798703613,-8.98304462891,1.0,0.0,0.0,0.0,1.0,0.0,0.0,0.0,1.0
1463077461184203340,482,1463077461182526523,,21.0933036804,-22.2826576233,-65.5468902588,0.00998799968511,1.0,0.0,0.0,0.0,1.0,0.0,0.0,0.0,1.0,1.8902438879,0.304878056049,-0.426829278469,1.0,0.0,0.0,0.0,1.0,0.0,0.0,0.0,1.0,-3.69664736328,-2.6862942627,-8.94952580566,1.0,0.0,0.0,0.0,1.0,0.0,0.0,0.0,1.0
1463077461194704139,483,1463077461192817218,,21.0658779144,-22.2636070251,-65.5152206421,0.010214000009,1.0,0.0,0.0,0.0,1.0,0.0,0.0,0.0,1.0,1.70731711388,0.304878056049,0.243902444839,1.0,0.0,0.0,0.0,1.0,0.0,0.0,0.0,1.0,-3.62003291016,-2.7102362793,-9.14106193848,1.0,0.0,0.0,0.0,1.0,0.0,0.0,0.0,1.0
1463077461204073535,484,1463077461202462603,,21.0384998322,-22.2531337738,-65.4818649292,0.00979200005531,1.0,0.0,0.0,0.0,1.0,0.0,0.0,0.0,1.0,1.76829278469,0.548780500889,0.426829278469,1.0,0.0,0.0,0.0,1.0,0.0,0.0,0.0,1.0,-3.7014357666,-2.61925661621,-8.90643017578,1.0,0.0,0.0,0.0,1.0,0.0,0.0,0.0,1.0
1463077461214339335,485,1463077461212527414,,21.0165920258,-22.2419471741,-65.4510116577,0.00999599974602,1.0,0.0,0.0,0.0,1.0,0.0,0.0,0.0,1.0,2.37804889679,0.0609756112099,0.243902444839,1.0,0.0,0.0,0.0,1.0,0.0,0.0,0.0,1.0,-3.64397492676,-2.61446821289,-8.98304462891,1.0,0.0,0.0,0.0,1.0,0.0,0.0,0.0,1.0
1463077461224079564,486,1463077461222493371,,20.9930076599,-22.2337093353,-65.4193572998,0.0100039998069,1.0,0.0,0.0,0.0,1.0,0.0,0.0,0.0,1.0,2.25609779358,0.243902444839,0.243902444839,1.0,0.0,0.0,0.0,1.0,0.0,0.0,0.0,1.0,-3.71580097656,-2.59531459961,-8.94952580566,1.0,0.0,0.0,0.0,1.0,0.0,0.0,0.0,1.0
1463077461234078385,487,1463077461232469224,,20.9693031311,-22.223859787,-65.3881225586,0.0099950004369,1.0,0.0,0.0,0.0,1.0,0.0,0.0,0.0,1.0,1.95121955872,0.304878056049,0.304878056049,1.0,0.0,0.0,0.0,1.0,0.0,0.0,0.0,1.0,-3.7253777832,-2.66714064941,-9.01656345215,1.0,0.0,0.0,0.0,1.0,0.0,0.0,0.0,1.0
1463077461244587205,488,1463077461242651014,,20.9535636902,-22.2175045013,-65.3602218628,0.0101070003584,1.0,0.0,0.0,0.0,1.0,0.0,0.0,0.0,1.0,1.8292683363,0.12195122242,0.365853667259,1.0,0.0,0.0,0.0,1.0,0.0,0.0,0.0,1.0,-3.71580097656,-2.77727392578,-8.86812294922,1.0,0.0,0.0,0.0,1.0,0.0,0.0,0.0,1.0
1463077461254222434,489,1463077461252559158,,20.9305210114,-22.2066040039,-65.3334503174,0.00990500021726,1.0,0.0,0.0,0.0,1.0,0.0,0.0,0.0,1.0,1.58536589146,0.304878056049,-0.0,1.0,0.0,0.0,0.0,1.0,0.0,0.0,0.0,1.0,-3.73974299316,-2.71981308594,-9.04529387207,1.0,0.0,0.0,0.0,1.0,0.0,0.0,0.0,1.0
1463077461264284172,490,1463077461262475740,,20.9032669067,-22.1991710663,-65.3061904907,0.009990000166,1.0,0.0,0.0,0.0,1.0,0.0,0.0,0.0,1.0,1.2804877758,0.426829278469,-0.0609756112099,1.0,0.0,0.0,0.0,1.0,0.0,0.0,0.0,1.0,-3.78283862305,-2.66235224609,-8.9351605957,1.0,0.0,0.0,0.0,1.0,0.0,0.0,0.0,1.0
1463077461274104400,491,1463077461272510239,,20.8764076233,-22.1848316193,-65.2819976807,0.0100119998679,1.0,0.0,0.0,0.0,1.0,0.0,0.0,0.0,1.0,1.46341466904,0.609756112099,-0.548780500889,1.0,0.0,0.0,0.0,1.0,0.0,0.0,0.0,1.0,-3.73016618652,-2.62404501953,-8.98783303223,1.0,0.0,0.0,0.0,1.0,0.0,0.0,0.0,1.0
1463077461289335809,492,1463077461282514269,,20.8531227112,-22.1691265106,-65.2586517334,0.00999199971557,1.0,0.0,0.0,0.0,1.0,0.0,0.0,0.0,1.0,1.8292683363,0.670731723309,-0.670731723309,1.0,0.0,0.0,0.0,1.0,0.0,0.0,0.0,1.0,-3.73016618652,-2.61925661621,-9.01656345215,1.0,0.0,0.0,0.0,1.0,0.0,0.0,0.0,1.0
1463077461296640368,493,1463077461293937825,,20.8297424316,-22.1542339325,-65.2361373901,0.0100029995665,1.0,0.0,0.0,0.0,1.0,0.0,0.0,0.0,1.0,1.70731711388,0.548780500889,-0.670731723309,1.0,0.0,0.0,0.0,1.0,0.0,0.0,0.0,1.0,-3.7253777832,-2.63362182617,-9.02135185547,1.0,0.0,0.0,0.0,1.0,0.0,0.0,0.0,1.0
1463077461304195552,494,1463077461302552328,,20.8029823303,-22.1337165833,-65.209815979,0.0100100003183,1.0,0.0,0.0,0.0,1.0,0.0,0.0,0.0,1.0,1.52439022064,0.731707334518,-0.365853667259,1.0,0.0,0.0,0.0,1.0,0.0,0.0,0.0,1.0,-3.62482131348,-2.62883342285,-9.01656345215,1.0,0.0,0.0,0.0,1.0,0.0,0.0,0.0,1.0
1463077461313991353,495,1463077461312502973,,20.7740287781,-22.1146659851,-65.1784896851,0.00998700037599,1.0,0.0,0.0,0.0,1.0,0.0,0.0,0.0,1.0,1.64634156227,0.914634168148,-0.0,1.0,0.0,0.0,0.0,1.0,0.0,0.0,0.0,1.0,-3.64876333008,-2.59052619629,-9.01177504883,1.0,0.0,0.0,0.0,1.0,0.0,0.0,0.0,1.0
1463077461324326059,496,1463077461322556638,,20.7539043427,-22.1004524231,-65.1525115967,0.0099950004369,1.0,0.0,0.0,0.0,1.0,0.0,0.0,0.0,1.0,2.01219511032,0.365853667259,-0.18292683363,1.0,0.0,0.0,0.0,1.0,0.0,0.0,0.0,1.0,-3.62003291016,-2.61925661621,-8.9112185791,1.0,0.0,0.0,0.0,1.0,0.0,0.0,0.0,1.0
1463077461334375818,497,1463077461332495564,,20.7319927216,-22.0885734558,-65.1233520508,0.00999599974602,1.0,0.0,0.0,0.0,1.0,0.0,0.0,0.0,1.0,2.25609779358,0.365853667259,-0.0,1.0,0.0,0.0,0.0,1.0,0.0,0.0,0.0,1.0,-3.71101257324,-2.60489140625,-9.08360109863,1.0,0.0,0.0,0.0,1.0,0.0,0.0,0.0,1.0
1463077461344419014,498,1463077461342888446,,20.712562561,-22.0700454712,-65.095703125,0.0102479998022,1.0,0.0,0.0,0.0,1.0,0.0,0.0,0.0,1.0,1.76829278469,0.609756112099,-0.0,1.0,0.0,0.0,0.0,1.0,0.0,0.0,0.0,1.0,-3.60087929687,-2.70544787598,-8.95431420898,1.0,0.0,0.0,0.0,1.0,0.0,0.0,0.0,1.0
1463077461354106899,499,1463077461352591800,,20.6938247681,-22.0582027435,-65.0736923218,0.00976200029254,1.0,0.0,0.0,0.0,1.0,0.0,0.0,0.0,1.0,1.8902438879,0.0609756112099,-0.365853667259,1.0,0.0,0.0,0.0,1.0,0.0,0.0,0.0,1.0,-3.63439812012,-2.64319863281,-8.96867941895,1.0,0.0,0.0,0.0,1.0,0.0,0.0,0.0,1.0
1463077461363994732,500,1463077461362534528,,20.6730747223,-22.0358963013,-65.0468597412,0.00999699998647,1.0,0.0,0.0,0.0,1.0,0.0,0.0,0.0,1.0,2.07317066193,0.18292683363,-0.0609756112099,1.0,0.0,0.0,0.0,1.0,0.0,0.0,0.0,1.0,-3.54341845703,-2.69108266602,-9.24640681152,1.0,0.0,0.0,0.0,1.0,0.0,0.0,0.0,1.0
1463077461374430166,501,1463077461372597360,,20.6558837891,-22.0231609344,-65.0235977173,0.0100079998374,1.0,0.0,0.0,0.0,1.0,0.0,0.0,0.0,1.0,1.95121955872,0.12195122242,-0.243902444839,1.0,0.0,0.0,0.0,1.0,0.0,0.0,0.0,1.0,-3.67749375,-2.7102362793,-9.10275471191,1.0,0.0,0.0,0.0,1.0,0.0,0.0,0.0,1.0
1463077461384432217,502,1463077461382599515,,20.6324234009,-22.0121917725,-64.9989013672,0.0100189996883,1.0,0.0,0.0,0.0,1.0,0.0,0.0,0.0,1.0,1.52439022064,0.0,-0.12195122242,1.0,0.0,0.0,0.0,1.0,0.0,0.0,0.0,1.0,-3.6535517334,-2.66235224609,-9.05008227539,1.0,0.0,0.0,0.0,1.0,0.0,0.0,0.0,1.0
1463077461394242185,503,1463077461392538701,,20.6086273193,-21.9994068146,-64.975189209,0.00997000001371,1.0,0.0,0.0,0.0,1.0,0.0,0.0,0.0,1.0,1.70731711388,0.12195122242,-0.365853667259,1.0,0.0,0.0,0.0,1.0,0.0,0.0,0.0,1.0,-3.62482131348,-2.59052619629,-8.99740983887,1.0,0.0,0.0,0.0,1.0,0.0,0.0,0.0,1.0
1463077461404099653,504,1463077461402567991,,20.5860080719,-21.9915523529,-64.9529647827,0.010050999932,1.0,0.0,0.0,0.0,1.0,0.0,0.0,0.0,1.0,1.64634156227,0.0,-0.426829278469,1.0,0.0,0.0,0.0,1.0,0.0,0.0,0.0,1.0,-3.73495458984,-2.63362182617,-9.07402429199,1.0,0.0,0.0,0.0,1.0,0.0,0.0,0.0,1.0
1463077461414025402,505,1463077461412525042,,20.5647792816,-21.9821300507,-64.9281768799,0.00994899962097,1.0,0.0,0.0,0.0,1.0,0.0,0.0,0.0,1.0,1.8292683363,-0.18292683363,-0.0609756112099,1.0,0.0,0.0,0.0,1.0,0.0,0.0,0.0,1.0,-3.6296097168,-2.62883342285,-9.03571706543,1.0,0.0,0.0,0.0,1.0,0.0,0.0,0.0,1.0
1463077461424160421,506,1463077461422507822,,20.5491466522,-21.9716854095,-64.9057922363,0.00999899953604,1.0,0.0,0.0,0.0,1.0,0.0,0.0,0.0,1.0,2.37804889679,-0.12195122242,-0.365853667259,1.0,0.0,0.0,0.0,1.0,0.0,0.0,0.0,1.0,-3.64397492676,-2.61446821289,-9.05008227539,1.0,0.0,0.0,0.0,1.0,0.0,0.0,0.0,1.0
1463077461434430335,507,1463077461432571278,,20.5399875641,-21.9625644684,-64.8844299316,0.0100520001724,1.0,0.0,0.0,0.0,1.0,0.0,0.0,0.0,1.0,2.56097555161,-0.243902444839,-0.243902444839,1.0,0.0,0.0,0.0,1.0,0.0,0.0,0.0,1.0,-3.6535517334,-2.70065947266,-9.05965908203,1.0,0.0,0.0,0.0,1.0,0.0,0.0,0.0,1.0
1463077461444249574,508,1463077461442721558,,20.5225715637,-21.9622077942,-64.8602981567,0.0101779997349,1.0,0.0,0.0,0.0,1.0,0.0,0.0,0.0,1.0,2.07317066193,-0.670731723309,0.0609756112099,1.0,0.0,0.0,0.0,1.0,0.0,0.0,0.0,1.0,-3.68228215332,-2.62883342285,-8.97825622559,1.0,0.0,0.0,0.0,1.0,0.0,0.0,0.0,1.0
1463077461454125375,509,1463077461452516370,,20.5110206604,-21.9614238739,-64.8358306885,0.00977899972349,1.0,0.0,0.0,0.0,1.0,0.0,0.0,0.0,1.0,2.19512200356,-0.609756112099,0.365853667259,1.0,0.0,0.0,0.0,1.0,0.0,0.0,0.0,1.0,-3.67270534668,-2.71502468262,-8.96867941895,1.0,0.0,0.0,0.0,1.0,0.0,0.0,0.0,1.0
1463077461464037946,510,1463077461462551285,,20.495508194,-21.9609584808,-64.8058929443,0.0100170001388,1.0,0.0,0.0,0.0,1.0,0.0,0.0,0.0,1.0,2.19512200356,-0.670731723309,0.792682945728,1.0,0.0,0.0,0.0,1.0,0.0,0.0,0.0,1.0,-3.6535517334,-2.69108266602,-9.01656345215,1.0,0.0,0.0,0.0,1.0,0.0,0.0,0.0,1.0
1463077461474172236,511,1463077461472516460,,20.4841518402,-21.9587249756,-64.7788543701,0.0099849998951,1.0,0.0,0.0,0.0,1.0,0.0,0.0,0.0,1.0,1.8902438879,-0.548780500889,0.731707334518,1.0,0.0,0.0,0.0,1.0,0.0,0.0,0.0,1.0,-3.64876333008,-2.80121594238,-8.98304462891,1.0,0.0,0.0,0.0,1.0,0.0,0.0,0.0,1.0
1463077461484464390,512,1463077461482594761,,20.4723815918,-21.9573402405,-64.7561950684,0.0100220004097,1.0,0.0,0.0,0.0,1.0,0.0,0.0,0.0,1.0,1.8292683363,-0.426829278469,0.18292683363,1.0,0.0,0.0,0.0,1.0,0.0,0.0,0.0,1.0,-3.71101257324,-2.76290871582,-8.96389101563,1.0,0.0,0.0,0.0,1.0,0.0,0.0,0.0,1.0
1463077461494344514,513,1463077461492470458,,20.462146759,-21.9531345367,-64.7350845337,0.00997000001371,1.0,0.0,0.0,0.0,1.0,0.0,0.0,0.0,1.0,1.64634156227,0.0,-0.0,1.0,0.0,0.0,0.0,1.0,0.0,0.0,0.0,1.0,-3.72058937988,-2.79163913574,-8.8872765625,1.0,0.0,0.0,0.0,1.0,0.0,0.0,0.0,1.0
1463077461504109534,514,1463077461502500998,,20.4438514709,-21.9394416809,-64.7140731812,0.0100039998069,1.0,0.0,0.0,0.0,1.0,0.0,0.0,0.0,1.0,1.64634156227,0.487804889679,-0.548780500889,1.0,0.0,0.0,0.0,1.0,0.0,0.0,0.0,1.0,-3.69185895996,-2.66714064941,-9.01177504883,1.0,0.0,0.0,0.0,1.0,0.0,0.0,0.0,1.0
1463077461514066064,515,1463077461512542111,,20.4243354797,-21.9271030426,-64.6954345703,0.0100119998679,1.0,0.0,0.0,0.0,1.0,0.0,0.0,0.0,1.0,1.03658533096,0.487804889679,-0.609756112099,1.0,0.0,0.0,0.0,1.0,0.0,0.0,0.0,1.0,-3.73016618652,-2.74375510254,-9.01177504883,1.0,0.0,0.0,0.0,1.0,0.0,0.0,0.0,1.0
1463077461524568217,516,1463077461522546453,,20.3885269165,-21.9136638641,-64.6630859375,0.00998300034553,1.0,0.0,0.0,0.0,1.0,0.0,0.0,0.0,1.0,1.09756100178,0.487804889679,0.243902444839,1.0,0.0,0.0,0.0,1.0,0.0,0.0,0.0,1.0,-3.60087929687,-2.49475812988,-8.97346782227,1.0,0.0,0.0,0.0,1.0,0.0,0.0,0.0,1.0
1463077461534418185,517,1463077461532555743,,20.4630317688,-21.9166545868,-64.6684646606,0.0100159998983,1.0,0.0,0.0,0.0,1.0,0.0,0.0,0.0,1.0,2.74390244484,1.34146344662,-0.365853667259,1.0,0.0,0.0,0.0,1.0,0.0,0.0,0.0,1.0,-3.84508786621,-3.66791694336,-7.8960770752,1.0,0.0,0.0,0.0,1.0,0.0,0.0,0.0,1.0
1463077461544151643,518,1463077461542650085,,20.4587078094,-22.029253006,-64.6465148926,0.00998300034553,1.0,0.0,0.0,0.0,1.0,0.0,0.0,0.0,1.0,4.63414621353,-4.69512224197,0.792682945728,1.0,0.0,0.0,0.0,1.0,0.0,0.0,0.0,1.0,-5.33428129883,-2.39899020961,-9.41400034321,1.0,0.0,0.0,0.0,1.0,0.0,0.0,0.0,1.0
1463077461553999632,519,1463077461552504949,,20.5214653015,-22.0490283966,-64.6408843994,0.0100159998983,1.0,0.0,0.0,0.0,1.0,0.0,0.0,0.0,1.0,3.35365867615,-0.426829278469,0.792682945728,1.0,0.0,0.0,0.0,1.0,0.0,0.0,0.0,1.0,-4.18985261301,-3.80199223633,-8.81066210937,1.0,0.0,0.0,0.0,1.0,0.0,0.0,0.0,1.0
1463077461563930849,520,1463077461562526375,,20.7923374176,-22.6415843964,-64.7291259766,0.00999299995601,1.0,0.0,0.0,0.0,1.0,0.0,0.0,0.0,1.0,5.0,-8.71951198578,1.46341466904,1.0,0.0,0.0,0.0,1.0,0.0,0.0,0.0,1.0,-13.0483990479,-4.08450803223,2.63362182617,1.0,0.0,0.0,0.0,1.0,0.0,0.0,0.0,1.0
1463077461574287690,521,1463077461572587436,,20.4727802277,-22.4101295471,-64.6423339844,0.0100109996274,1.0,0.0,0.0,0.0,1.0,0.0,0.0,0.0,1.0,-9.39024448395,4.69512224197,-3.04878044128,1.0,0.0,0.0,0.0,1.0,0.0,0.0,0.0,1.0,-0.641646044922,0.354341845703,-12.2870429199,1.0,0.0,0.0,0.0,1.0,0.0,0.0,0.0,1.0
1463077461584334116,522,1463077461582575476,,20.5216827393,-22.3581371307,-64.6073532104,0.00998799968511,1.0,0.0,0.0,0.0,1.0,0.0,0.0,0.0,1.0,5.36585378647,-2.74390244484,3.59756112099,1.0,0.0,0.0,0.0,1.0,0.0,0.0,0.0,1.0,-2.20266552734,-3.23696064453,-8.58081933452,1.0,0.0,0.0,0.0,1.0,0.0,0.0,0.0,1.0
1463077461594217677,523,1463077461592617318,,20.4353694916,-22.3142127991,-64.5418243408,0.0100279999897,1.0,0.0,0.0,0.0,1.0,0.0,0.0,0.0,1.0,-1.8902438879,7.62195110321,0.426829278469,1.0,0.0,0.0,0.0,1.0,0.0,0.0,0.0,1.0,-5.81791003418,-3.1124621582,-11.9949503174,1.0,0.0,0.0,0.0,1.0,0.0,0.0,0.0,1.0
1463077461603983010,524,1463077461602499890,,20.3759918213,-22.2410545349,-64.5121307373,0.00996199995279,1.0,0.0,0.0,0.0,1.0,0.0,0.0,0.0,1.0,-2.62195134163,3.65853667259,-0.670731723309,1.0,0.0,0.0,0.0,1.0,0.0,0.0,0.0,1.0,-3.28005627441,-2.82515795898,-9.19852277832,1.0,0.0,0.0,0.0,1.0,0.0,0.0,0.0,1.0
1463077461614024436,525,1463077461612542670,,20.3165283203,-22.1739234924,-64.4882736206,0.00999999977648,1.0,0.0,0.0,0.0,1.0,0.0,0.0,0.0,1.0,1.2195122242,4.02439022064,-3.17073178291,1.0,0.0,0.0,0.0,1.0,0.0,0.0,0.0,1.0,-3.28005627441,-1.8626888916,-8.5999729478,1.0,0.0,0.0,0.0,1.0,0.0,0.0,0.0,1.0
1463077461624053726,526,1463077461622468158,,20.2517356873,-22.0879192352,-64.453666687,0.0100010000169,1.0,0.0,0.0,0.0,1.0,0.0,0.0,0.0,1.0,1.03658533096,2.25609779358,-1.40243899822,1.0,0.0,0.0,0.0,1.0,0.0,0.0,0.0,1.0,-3.17949980469,-2.36068269078,-10.7068698242,1.0,0.0,0.0,0.0,1.0,0.0,0.0,0.0,1.0
1463077461634291192,527,1463077461632519583,,20.1472606659,-22.0999298096,-64.4299316406,0.00999999977648,1.0,0.0,0.0,0.0,1.0,0.0,0.0,0.0,1.0,-2.13414645195,2.5,-3.10975623131,1.0,0.0,0.0,0.0,1.0,0.0,0.0,0.0,1.0,-4.683058155,-1.65678754883,-9.1458503418,1.0,0.0,0.0,0.0,1.0,0.0,0.0,0.0,1.0
1463077461644183243,528,1463077461642670019,,20.1185970306,-22.1423950195,-64.423538208,0.00999999977648,1.0,0.0,0.0,0.0,1.0,0.0,0.0,0.0,1.0,-1.52439022064,-0.12195122242,-1.09756100178,1.0,0.0,0.0,0.0,1.0,0.0,0.0,0.0,1.0,-3.73016618652,-2.26012636719,-6.98628044434,1.0,0.0,0.0,0.0,1.0,0.0,0.0,0.0,1.0
1463077461654143315,529,1463077461652560039,,20.0779094696,-22.1743068695,-64.3877792358,0.010006999597,1.0,0.0,0.0,0.0,1.0,0.0,0.0,0.0,1.0,0.914634168148,-2.37804889679,1.52439022064,1.0,0.0,0.0,0.0,1.0,0.0,0.0,0.0,1.0,-3.82114584961,-2.35110588414,-8.79150849609,1.0,0.0,0.0,0.0,1.0,0.0,0.0,0.0,1.0
1463077461664002241,530,1463077461662518131,,20.0072498322,-22.121919632,-64.3488616943,0.0100050000474,1.0,0.0,0.0,0.0,1.0,0.0,0.0,0.0,1.0,0.365853667259,1.2195122242,-0.487804889679,1.0,0.0,0.0,0.0,1.0,0.0,0.0,0.0,1.0,-2.71502468262,-1.76213242187,-8.02057556152,1.0,0.0,0.0,0.0,1.0,0.0,0.0,0.0,1.0
1463077461674847414,531,1463077461672625025,,19.834695816,-22.0417442322,-64.2582855225,0.0100389998406,1.0,0.0,0.0,0.0,1.0,0.0,0.0,0.0,1.0,4.08536577225,-1.58536589146,0.426829278469,1.0,0.0,0.0,0.0,1.0,0.0,0.0,0.0,1.0,-2.28406838379,0.234631762695,-11.5687824219,1.0,0.0,0.0,0.0,1.0,0.0,0.0,0.0,1.0
1463077461684346445,532,1463077461682498899,,19.8553199768,-21.9189834595,-64.2472610474,0.00996000040323,1.0,0.0,0.0,0.0,1.0,0.0,0.0,0.0,1.0,3.23170733452,0.365853667259,-0.609756112099,1.0,0.0,0.0,0.0,1.0,0.0,0.0,0.0,1.0,-1.97761057129,-3.3949779541,-10.3046439453,1.0,0.0,0.0,0.0,1.0,0.0,0.0,0.0,1.0
1463077461694038289,533,1463077461692593033,,19.8392868042,-21.8811817169,-64.231880188,0.0100659998134,1.0,0.0,0.0,0.0,1.0,0.0,0.0,0.0,1.0,3.90243911743,-2.98780488968,-0.792682945728,1.0,0.0,0.0,0.0,1.0,0.0,0.0,0.0,1.0,-3.44765039062,-2.85867678223,-11.9374894775,1.0,0.0,0.0,0.0,1.0,0.0,0.0,0.0,1.0
1463077461704020183,534,1463077461702555969,,19.908039093,-21.9399547577,-64.2327651978,0.00998700037599,1.0,0.0,0.0,0.0,1.0,0.0,0.0,0.0,1.0,4.81707286835,-2.19512200356,0.304878056049,1.0,0.0,0.0,0.0,1.0,0.0,0.0,0.0,1.0,-3.84987626953,-2.89698400879,-7.37414111328,1.0,0.0,0.0,0.0,1.0,0.0,0.0,0.0,1.0
1463077461713915307,535,1463077461712481145,,19.996137619,-22.015001297,-64.2499847412,0.00994400028139,1.0,0.0,0.0,0.0,1.0,0.0,0.0,0.0,1.0,4.2682929039,-1.52439022064,-0.731707334518,1.0,0.0,0.0,0.0,1.0,0.0,0.0,0.0,1.0,-6.20577070312,-4.61123239746,-10.3908352051,1.0,0.0,0.0,0.0,1.0,0.0,0.0,0.0,1.0
1463077461724670897,536,1463077461722605122,,20.1338176727,-22.1984405518,-64.2690582275,0.0100410003215,1.0,0.0,0.0,0.0,1.0,0.0,0.0,0.0,1.0,5.97560977936,-1.8292683363,0.548780500889,1.0,0.0,0.0,0.0,1.0,0.0,0.0,0.0,1.0,-4.31914008718,-2.58573779297,-4.69263496165,1.0,0.0,0.0,0.0,1.0,0.0,0.0,0.0,1.0
1463077461734321855,537,1463077461732539569,,20.0692958832,-22.2721042633,-64.2611999512,0.00996099971235,1.0,0.0,0.0,0.0,1.0,0.0,0.0,0.0,1.0,0.914634168148,0.548780500889,-3.84146332741,1.0,0.0,0.0,0.0,1.0,0.0,0.0,0.0,1.0,-4.41011945801,-1.25456166992,-7.06768330078,1.0,0.0,0.0,0.0,1.0,0.0,0.0,0.0,1.0
1463077461744242187,538,1463077461742505005,,20.0615291595,-22.2940216064,-64.203742981,0.00999299995601,1.0,0.0,0.0,0.0,1.0,0.0,0.0,0.0,1.0,2.98780488968,-2.92682933807,4.75609779358,1.0,0.0,0.0,0.0,1.0,0.0,0.0,0.0,1.0,-3.46680400391,-2.80121594238,-8.9351605957,1.0,0.0,0.0,0.0,1.0,0.0,0.0,0.0,1.0
1463077461753877156,539,1463077461752567733,,19.9502334595,-22.3861904144,-64.1591949463,0.0100459996611,1.0,0.0,0.0,0.0,1.0,0.0,0.0,0.0,1.0,2.68292689323,0.792682945728,-2.56097555161,1.0,0.0,0.0,0.0,1.0,0.0,0.0,0.0,1.0,-7.81467421875,-0.675164868164,-12.1290256104,1.0,0.0,0.0,0.0,1.0,0.0,0.0,0.0,1.0
1463077461764267538,540,1463077461762515982,,19.8438339233,-22.3953990936,-64.091255188,0.00995500013232,1.0,0.0,0.0,0.0,1.0,0.0,0.0,0.0,1.0,0.975609779358,1.03658533096,1.03658533096,1.0,0.0,0.0,0.0,1.0,0.0,0.0,0.0,1.0,-3.4428619873,-1.11090957031,-7.72369455566,1.0,0.0,0.0,0.0,1.0,0.0,0.0,0.0,1.0
1463077461774430005,541,1463077461772606209,,19.6410636902,-22.2994251251,-64.0152359009,0.0100440001115,1.0,0.0,0.0,0.0,1.0,0.0,0.0,0.0,1.0,-1.40243899822,0.731707334518,-1.09756100178,1.0,0.0,0.0,0.0,1.0,0.0,0.0,0.0,1.0,-2.48039291992,-0.162805712891,-10.8409451172,1.0,0.0,0.0,0.0,1.0,0.0,0.0,0.0,1.0
1463077461784394139,542,1463077461782578781,,19.4944572449,-22.2462482452,-63.9365348816,0.00996199995279,1.0,0.0,0.0,0.0,1.0,0.0,0.0,0.0,1.0,1.2195122242,-0.609756112099,1.03658533096,1.0,0.0,0.0,0.0,1.0,0.0,0.0,0.0,1.0,-2.78685073242,-0.699106884766,-10.0508585693,1.0,0.0,0.0,0.0,1.0,0.0,0.0,0.0,1.0
1463077461793953223,543,1463077461792526456,,19.6097373962,-22.4971199036,-63.9534034729,0.0100039998069,1.0,0.0,0.0,0.0,1.0,0.0,0.0,0.0,1.0,1.52439022064,-3.84146332741,2.5,1.0,0.0,0.0,0.0,1.0,0.0,0.0,0.0,1.0,-7.43639035645,-4.22815983957,-6.61757338867,1.0,0.0,0.0,0.0,1.0,0.0,0.0,0.0,1.0
1463077461803988294,544,1463077461802549028,,19.3145484924,-22.4358634949,-63.8135948181,0.00998300034553,1.0,0.0,0.0,0.0,1.0,0.0,0.0,0.0,1.0,4.32926845551,2.56097555161,-1.09756100178,1.0,0.0,0.0,0.0,1.0,0.0,0.0,0.0,1.0,-1.61369191895,1.59932670898,-5.62158549805,1.0,0.0,0.0,0.0,1.0,0.0,0.0,0.0,1.0
1463077461814457947,545,1463077461812622693,,19.1740283966,-22.8594474792,-63.7321395874,0.0100589999929,1.0,0.0,0.0,0.0,1.0,0.0,0.0,0.0,1.0,1.2804877758,-0.12195122242,1.15853655338,1.0,0.0,0.0,0.0,1.0,0.0,0.0,0.0,1.0,-7.36935270996,1.07739082014,-2.89219560547,1.0,0.0,0.0,0.0,1.0,0.0,0.0,0.0,1.0
1463077461824525779,546,1463077461822530004,,19.1856765747,-22.6858921051,-63.6738739014,0.00995299965143,1.0,0.0,0.0,0.0,1.0,0.0,0.0,0.0,1.0,4.57317066193,2.43902444839,3.10975623131,1.0,0.0,0.0,0.0,1.0,0.0,0.0,0.0,1.0,-1.20188930646,-3.06936652832,-9.94551369629,1.0,0.0,0.0,0.0,1.0,0.0,0.0,0.0,1.0
1463077461834248039,547,1463077461832519815,,19.0567398071,-22.8621139526,-63.6148338318,0.0100010000169,1.0,0.0,0.0,0.0,1.0,0.0,0.0,0.0,1.0,3.59756112099,-1.15853655338,-1.52439022064,1.0,0.0,0.0,0.0,1.0,0.0,0.0,0.0,1.0,-8.44195446919,0.445321508789,-10.3381627686,1.0,0.0,0.0,0.0,1.0,0.0,0.0,0.0,1.0
1463077461844006653,548,1463077461842684470,,18.9757804871,-22.7086029053,-63.5575180054,0.0100050000474,1.0,0.0,0.0,0.0,1.0,0.0,0.0,0.0,1.0,0.670731723309,3.35365867615,0.243902444839,1.0,0.0,0.0,0.0,1.0,0.0,0.0,0.0,1.0,-2.09253210485,-2.15478164027,-11.1474029297,1.0,0.0,0.0,0.0,1.0,0.0,0.0,0.0,1.0
1463077461854083703,549,1463077461852645583,,18.9674987793,-22.7414340973,-63.5280456543,0.0100520001724,1.0,0.0,0.0,0.0,1.0,0.0,0.0,0.0,1.0,1.09756100178,-2.98780488968,2.25609779358,1.0,0.0,0.0,0.0,1.0,0.0,0.0,0.0,1.0,-3.76847341309,-2.66235224609,-8.60476135112,1.0,0.0,0.0,0.0,1.0,0.0,0.0,0.0,1.0
1463077461864100441,550,1463077461862509457,,18.8645305634,-22.7398490906,-63.4965209961,0.00994700007141,1.0,0.0,0.0,0.0,1.0,0.0,0.0,0.0,1.0,-2.80487799644,1.46341466904,-1.52439022064,1.0,0.0,0.0,0.0,1.0,0.0,0.0,0.0,1.0,-3.9600095459,-1.57059628906,-8.52335849468,1.0,0.0,0.0,0.0,1.0,0.0,0.0,0.0,1.0
1463077461874299366,551,1463077461872541091,,18.4402580261,-23.1353988647,-63.2804450989,0.00998600013554,1.0,0.0,0.0,0.0,1.0,0.0,0.0,0.0,1.0,6.0365858078,-4.93902444839,3.29268312454,1.0,0.0,0.0,0.0,1.0,0.0,0.0,0.0,1.0,-5.1379567627,6.44997927246,-1.39342536621,1.0,0.0,0.0,0.0,1.0,0.0,0.0,0.0,1.0
1463077461884349854,552,1463077461882562725,,18.2128639221,-23.1231822968,-63.1948699951,0.0100109996274,1.0,0.0,0.0,0.0,1.0,0.0,0.0,0.0,1.0,-1.8902438879,1.58536589146,-1.46341466904,1.0,0.0,0.0,0.0,1.0,0.0,0.0,0.0,1.0,-5.19062919922,0.823605371094,-12.4115414062,1.0,0.0,0.0,0.0,1.0,0.0,0.0,0.0,1.0
1463077461895143725,553,1463077461892580921,,18.2287731171,-23.2985286713,-63.1564598083,0.00999800022691,1.0,0.0,0.0,0.0,1.0,0.0,0.0,0.0,1.0,0.0,-1.58536589146,4.32926845551,1.0,0.0,0.0,0.0,1.0,0.0,0.0,0.0,1.0,-6.61757338867,-3.064578125,-7.76200178223,1.0,0.0,0.0,0.0,1.0,0.0,0.0,0.0,1.0
1463077461904050519,554,1463077461902505316,,18.1687297821,-23.205083847,-63.1419258118,0.00999899953604,1.0,0.0,0.0,0.0,1.0,0.0,0.0,0.0,1.0,0.426829278469,3.41463422775,-3.65853667259,1.0,0.0,0.0,0.0,1.0,0.0,0.0,0.0,1.0,-1.98718737793,-1.09654436035,-5.87537087402,1.0,0.0,0.0,0.0,1.0,0.0,0.0,0.0,1.0
1463077461914220486,555,1463077461912514398,,18.2584228516,-23.2006568909,-63.1207847595,0.00999299995601,1.0,0.0,0.0,0.0,1.0,0.0,0.0,0.0,1.0,3.71951246262,-1.8292683363,4.14634132385,1.0,0.0,0.0,0.0,1.0,0.0,0.0,0.0,1.0,-6.04775339355,-6.92881960449,-15.2223341553,1.0,0.0,0.0,0.0,1.0,0.0,0.0,0.0,1.0
1463077461924334619,556,1463077461922490355,,18.4109325409,-23.190738678,-63.1163063049,0.0100060002878,1.0,0.0,0.0,0.0,1.0,0.0,0.0,0.0,1.0,3.71951246262,7.07317113876,2.13414645195,1.0,0.0,0.0,0.0,1.0,0.0,0.0,0.0,1.0,-3.35667072754,-3.3470939209,-5.33906970215,1.0,0.0,0.0,0.0,1.0,0.0,0.0,0.0,1.0
1463077461934458493,557,1463077461932530791,,18.328245163,-23.171546936,-63.0872116089,0.0100020002574,1.0,0.0,0.0,0.0,1.0,0.0,0.0,0.0,1.0,-0.731707334518,-3.53658556938,-0.18292683363,1.0,0.0,0.0,0.0,1.0,0.0,0.0,0.0,1.0,-4.51546433105,-2.4516625,-13.6804682861,1.0,0.0,0.0,0.0,1.0,0.0,0.0,0.0,1.0
1463077461944211638,558,1463077461942592841,,18.2284164429,-23.2283344269,-63.0032920837,0.0100039998069,1.0,0.0,0.0,0.0,1.0,0.0,0.0,0.0,1.0,2.5,1.15853655338,2.25609779358,1.0,0.0,0.0,0.0,1.0,0.0,0.0,0.0,1.0,-5.44920297852,-0.981622680664,-9.72045874023,1.0,0.0,0.0,0.0,1.0,0.0,0.0,0.0,1.0
1463077461954083793,559,1463077461952511350,,18.0512065887,-23.3086128235,-62.9075775146,0.00999299995601,1.0,0.0,0.0,0.0,1.0,0.0,0.0,0.0,1.0,-4.14634132385,0.0,3.47560977936,1.0,0.0,0.0,0.0,1.0,0.0,0.0,0.0,1.0,-4.5729251709,-0.651222851562,-7.88171186523,1.0,0.0,0.0,0.0,1.0,0.0,0.0,0.0,1.0
1463077461964284593,560,1463077461962479391,,17.9268913269,-23.3557052612,-62.8897018433,0.0100039998069,1.0,0.0,0.0,0.0,1.0,0.0,0.0,0.0,1.0,0.18292683363,-1.15853655338,-4.63414621353,1.0,0.0,0.0,0.0,1.0,0.0,0.0,0.0,1.0,-4.14675698313,-0.287304199219,-7.80988581543,1.0,0.0,0.0,0.0,1.0,0.0,0.0,0.0,1.0
1463077461974166748,561,1463077461972519931,,18.3450603485,-23.5394878387,-63.0025444031,0.0100090000778,1.0,0.0,0.0,0.0,1.0,0.0,0.0,0.0,1.0,7.01219511032,-5.85365867615,3.65853667259,1.0,0.0,0.0,0.0,1.0,0.0,0.0,0.0,1.0,-7.38371791992,-10.7068698242,-6.36857641602,1.0,0.0,0.0,0.0,1.0,0.0,0.0,0.0,1.0
1463077461984375777,562,1463077461982567242,,18.2438316345,-23.438791275,-62.9843788147,0.00999699998647,1.0,0.0,0.0,0.0,1.0,0.0,0.0,0.0,1.0,-1.15853655338,-0.0609756112099,-3.29268312454,1.0,0.0,0.0,0.0,1.0,0.0,0.0,0.0,1.0,-2.36068269078,-1.30723410645,-9.20331118164,1.0,0.0,0.0,0.0,1.0,0.0,0.0,0.0,1.0
1463077461994366266,563,1463077461992631428,,18.2751159668,-23.4171867371,-62.9571075439,0.00999899953604,1.0,0.0,0.0,0.0,1.0,0.0,0.0,0.0,1.0,4.51219558716,0.18292683363,1.15853655338,1.0,0.0,0.0,0.0,1.0,0.0,0.0,0.0,1.0,-4.85065256348,-3.63439812012,-11.8512982178,1.0,0.0,0.0,0.0,1.0,0.0,0.0,0.0,1.0
1463077462003893891,564,1463077462002532124,,18.2399082184,-23.3165130615,-62.9104347229,0.0099950004369,1.0,0.0,0.0,0.0,1.0,0.0,0.0,0.0,1.0,0.731707334518,2.25609779358,1.40243899822,1.0,0.0,0.0,0.0,1.0,0.0,0.0,0.0,1.0,-2.98317526855,-2.79163913574,-10.6254669678,1.0,0.0,0.0,0.0,1.0,0.0,0.0,0.0,1.0
1463077462014326305,565,1463077462012598602,,18.3340950012,-23.594078064,-62.9410438538,0.0100530004129,1.0,0.0,0.0,0.0,1.0,0.0,0.0,0.0,1.0,2.37804889679,-3.59756112099,-0.426829278469,1.0,0.0,0.0,0.0,1.0,0.0,0.0,0.0,1.0,-11.1090957031,-4.35265861816,-8.65264538433,1.0,0.0,0.0,0.0,1.0,0.0,0.0,0.0,1.0
1463077462023805232,566,1463077462022491903,,18.3008747101,-23.6860084534,-62.9453811646,0.00994800031185,1.0,0.0,0.0,0.0,1.0,0.0,0.0,0.0,1.0,-1.34146344662,-0.18292683363,-2.68292689323,1.0,0.0,0.0,0.0,1.0,0.0,0.0,0.0,1.0,-5.67425793457,-2.10689731481,-8.16422766113,1.0,0.0,0.0,0.0,1.0,0.0,0.0,0.0,1.0
1463077462034409729,567,1463077462032589735,,18.4957809448,-23.5925369263,-63.003993988,0.010006999597,1.0,0.0,0.0,0.0,1.0,0.0,0.0,0.0,1.0,9.20731735229,-2.56097555161,-2.37804889679,1.0,0.0,0.0,0.0,1.0,0.0,0.0,0.0,1.0,-1.90099611816,-3.80199223633,-7.62792648926,1.0,0.0,0.0,0.0,1.0,0.0,0.0,0.0,1.0
1463077462044220426,568,1463077462042547723,,18.5175971985,-23.3593616486,-63.0152015686,0.009990000166,1.0,0.0,0.0,0.0,1.0,0.0,0.0,0.0,1.0,1.03658533096,5.85365867615,-3.96341490746,1.0,0.0,0.0,0.0,1.0,0.0,0.0,0.0,1.0,-1.13006318359,-2.94486804199,-8.80587370605,1.0,0.0,0.0,0.0,1.0,0.0,0.0,0.0,1.0
1463077462054003727,569,1463077462052621805,,18.2584018707,-23.6698055267,-62.8768730164,0.0100090000778,1.0,0.0,0.0,0.0,1.0,0.0,0.0,0.0,1.0,2.62195134163,0.548780500889,1.15853655338,1.0,0.0,0.0,0.0,1.0,0.0,0.0,0.0,1.0,-7.68059892578,2.94965644531,-5.29118566895,1.0,0.0,0.0,0.0,1.0,0.0,0.0,0.0,1.0
1463077462064326871,570,1463077462062599481,,18.2468166351,-23.6117782593,-62.8583450317,0.00999800022691,1.0,0.0,0.0,0.0,1.0,0.0,0.0,0.0,1.0,-3.10975623131,-0.365853667259,1.8902438879,1.0,0.0,0.0,0.0,1.0,0.0,0.0,0.0,1.0,-4.2521024407,-4.84107575684,-12.9143237549,1.0,0.0,0.0,0.0,1.0,0.0,0.0,0.0,1.0
1463077462073916423,571,1463077462072578927,,18.0240840912,-23.5373783112,-62.755897522,0.010045000352,1.0,0.0,0.0,0.0,1.0,0.0,0.0,0.0,1.0,-0.609756112099,3.04878044128,-0.548780500889,1.0,0.0,0.0,0.0,1.0,0.0,0.0,0.0,1.0,-3.02627089844,0.555454785156,-9.30865547017,1.0,0.0,0.0,0.0,1.0,0.0,0.0,0.0,1.0
1463077462084272379,572,1463077462082515249,,17.7862262726,-23.5317268372,-62.6649436951,0.00995399989188,1.0,0.0,0.0,0.0,1.0,0.0,0.0,0.0,1.0,-3.96341490746,0.914634168148,-0.304878056049,1.0,0.0,0.0,0.0,1.0,0.0,0.0,0.0,1.0,-4.11323845215,0.474051928711,-9.7348239502,1.0,0.0,0.0,0.0,1.0,0.0,0.0,0.0,1.0
1463077462094480314,573,1463077462092632456,,18.0913734436,-23.6633472443,-62.7815208435,0.0100299995393,1.0,0.0,0.0,0.0,1.0,0.0,0.0,0.0,1.0,-1.8292683363,2.56097555161,-0.548780500889,1.0,0.0,0.0,0.0,1.0,0.0,0.0,0.0,1.0,-4.2521024407,-4.99430466309,-3.20823022461,1.0,0.0,0.0,0.0,1.0,0.0,0.0,0.0,1.0
1463077462103827888,574,1463077462102514142,,18.0511417389,-23.5222797394,-62.754825592,0.00997199956328,1.0,0.0,0.0,0.0,1.0,0.0,0.0,0.0,1.0,0.304878056049,-0.18292683363,-0.12195122242,1.0,0.0,0.0,0.0,1.0,0.0,0.0,0.0,1.0,-1.88184250488,-2.70544787598,-11.152191333,1.0,0.0,0.0,0.0,1.0,0.0,0.0,0.0,1.0
1463077462114206969,575,1463077462112542391,,17.9521865845,-23.635509491,-62.6934432983,0.0100119998679,1.0,0.0,0.0,0.0,1.0,0.0,0.0,0.0,1.0,0.426829278469,-3.7804877758,2.19512200356,1.0,0.0,0.0,0.0,1.0,0.0,0.0,0.0,1.0,-5.12837995605,-1.0534486574,-8.60476135112,1.0,0.0,0.0,0.0,1.0,0.0,0.0,0.0,1.0
1463077462124071624,576,1463077462122505744,,18.2024478912,-23.4502487183,-62.7425460815,0.00997900031507,1.0,0.0,0.0,0.0,1.0,0.0,0.0,0.0,1.0,9.08536529541,1.52439022064,-0.0,1.0,0.0,0.0,0.0,1.0,0.0,0.0,0.0,1.0,-1.13006318359,-6.28717355957,-9.71567033691,1.0,0.0,0.0,0.0,1.0,0.0,0.0,0.0,1.0
1463077462134361382,577,1463077462132644721,,18.1530323029,-23.4948043823,-62.7263793945,0.0100609995425,1.0,0.0,0.0,0.0,1.0,0.0,0.0,0.0,1.0,5.0,-4.57317066193,-2.5,1.0,0.0,0.0,0.0,1.0,0.0,0.0,0.0,1.0,-4.07014282227,-0.952892260742,-9.01656345215,1.0,0.0,0.0,0.0,1.0,0.0,0.0,0.0,1.0
1463077462144421141,578,1463077462142500835,,18.2919578552,-23.7337875366,-62.6894645691,0.00994099956006,1.0,0.0,0.0,0.0,1.0,0.0,0.0,0.0,1.0,6.82926845551,-3.59756112099,7.43902492523,1.0,0.0,0.0,0.0,1.0,0.0,0.0,0.0,1.0,-7.45075556641,-4.09887324219,-7.0964137207,1.0,0.0,0.0,0.0,1.0,0.0,0.0,0.0,1.0
1463077462153949495,579,1463077462152516531,,18.0429115295,-23.5129051208,-62.6081428528,0.00999800022691,1.0,0.0,0.0,0.0,1.0,0.0,0.0,0.0,1.0,-6.82926845551,1.40243899822,-0.731707334518,1.0,0.0,0.0,0.0,1.0,0.0,0.0,0.0,1.0,-0.320823022461,-0.162805712891,-10.8457335205,1.0,0.0,0.0,0.0,1.0,0.0,0.0,0.0,1.0
1463077462164071858,580,1463077462162570092,,18.2950172424,-23.6458950043,-62.6558837891,0.010048000142,1.0,0.0,0.0,0.0,1.0,0.0,0.0,0.0,1.0,10.1219511032,-6.52439069748,2.31707310677,1.0,0.0,0.0,0.0,1.0,0.0,0.0,0.0,1.0,-6.8138979248,-6.7181298584,-10.0029745361,1.0,0.0,0.0,0.0,1.0,0.0,0.0,0.0,1.0
1463077462175367967,581,1463077462172626361,,18.2309017181,-23.4591808319,-62.5945892334,0.00998700037599,1.0,0.0,0.0,0.0,1.0,0.0,0.0,0.0,1.0,-0.12195122242,3.41463422775,1.76829278469,1.0,0.0,0.0,0.0,1.0,0.0,0.0,0.0,1.0,-1.40779057617,-2.45645090332,-10.4530844482,1.0,0.0,0.0,0.0,1.0,0.0,0.0,0.0,1.0
1463077462184199084,582,1463077462182499402,,18.1509723663,-23.3819732666,-62.5546989441,0.00997199956328,1.0,0.0,0.0,0.0,1.0,0.0,0.0,0.0,1.0,0.670731723309,-2.56097555161,0.18292683363,1.0,0.0,0.0,0.0,1.0,0.0,0.0,0.0,1.0,-2.11168571813,-1.47482822266,-8.94952580566,1.0,0.0,0.0,0.0,1.0,0.0,0.0,0.0,1.0
1463077462193953115,583,1463077462192523171,,18.0813407898,-23.4861507416,-62.5512695312,0.00999599974602,1.0,0.0,0.0,0.0,1.0,0.0,0.0,0.0,1.0,-2.37804889679,0.0609756112099,-3.04878044128,1.0,0.0,0.0,0.0,1.0,0.0,0.0,0.0,1.0,-8.00142194824,-2.1930887207,-11.1330377197,1.0,0.0,0.0,0.0,1.0,0.0,0.0,0.0,1.0
1463077462204765215,584,1463077462202561472,,18.0571041107,-23.4159984589,-62.574798584,0.0100010000169,1.0,0.0,0.0,0.0,1.0,0.0,0.0,0.0,1.0,1.15853655338,-3.53658556938,-4.45121955872,1.0,0.0,0.0,0.0,1.0,0.0,0.0,0.0,1.0,-2.39420180629,-1.93451494141,-9.02135185547,1.0,0.0,0.0,0.0,1.0,0.0,0.0,0.0,1.0
1463077462214184768,585,1463077462212528315,,17.8273601532,-23.6279277802,-62.4885215759,0.0100279999897,1.0,0.0,0.0,0.0,1.0,0.0,0.0,0.0,1.0,-1.76829278469,-2.07317066193,-0.548780500889,1.0,0.0,0.0,0.0,1.0,0.0,0.0,0.0,1.0,-5.17147558594,1.04387185076,-5.74129558105,1.0,0.0,0.0,0.0,1.0,0.0,0.0,0.0,1.0
1463077462223791976,586,1463077462222511876,,17.9051361084,-23.3592357635,-62.5051651001,0.00997500028461,1.0,0.0,0.0,0.0,1.0,0.0,0.0,0.0,1.0,2.68292689323,2.31707310677,-1.52439022064,1.0,0.0,0.0,0.0,1.0,0.0,0.0,0.0,1.0,0.320823022461,-4.6591161384,-11.5496288086,1.0,0.0,0.0,0.0,1.0,0.0,0.0,0.0,1.0
1463077462234231629,587,1463077462232624499,,17.8012580872,-23.4896793365,-62.4724464417,0.0100440001115,1.0,0.0,0.0,0.0,1.0,0.0,0.0,0.0,1.0,2.86585378647,-5.0,-2.01219511032,1.0,0.0,0.0,0.0,1.0,0.0,0.0,0.0,1.0,-4.5489831543,-0.162805712891,-7.32146867676,1.0,0.0,0.0,0.0,1.0,0.0,0.0,0.0,1.0
1463077462244559460,588,1463077462242532800,,18.2443714142,-23.6112670898,-62.528301239,0.00994499959052,1.0,0.0,0.0,0.0,1.0,0.0,0.0,0.0,1.0,11.1585359573,5.67073154449,5.85365867615,1.0,0.0,0.0,0.0,1.0,0.0,0.0,0.0,1.0,-7.64229169922,-9.96945571289,-5.09486113281,1.0,0.0,0.0,0.0,1.0,0.0,0.0,0.0,1.0
1463077462254216095,589,1463077462252641309,,17.9727592468,-24.0109825134,-62.4244728088,0.010006999597,1.0,0.0,0.0,0.0,1.0,0.0,0.0,0.0,1.0,-0.914634168148,-5.97560977936,0.243902444839,1.0,0.0,0.0,0.0,1.0,0.0,0.0,0.0,1.0,-9.02135185547,3.33751711426,-5.28639726562,1.0,0.0,0.0,0.0,1.0,0.0,0.0,0.0,1.0
1463077462264302208,590,1463077462262529506,,17.8771514893,-23.9464683533,-62.3104820251,0.0100180003792,1.0,0.0,0.0,0.0,1.0,0.0,0.0,0.0,1.0,-0.12195122242,7.68292665482,4.87804889679,1.0,0.0,0.0,0.0,1.0,0.0,0.0,0.0,1.0,-5.00388146973,-2.25054956055,-11.2671130127,1.0,0.0,0.0,0.0,1.0,0.0,0.0,0.0,1.0
1463077462273859938,591,1463077462272531765,,18.0155315399,-23.8048934937,-62.3894386292,0.00998399965465,1.0,0.0,0.0,0.0,1.0,0.0,0.0,0.0,1.0,5.18292713165,-2.25609779358,-5.54878091812,1.0,0.0,0.0,0.0,1.0,0.0,0.0,0.0,1.0,-1.89141931152,-4.59207878418,-10.6972930176,1.0,0.0,0.0,0.0,1.0,0.0,0.0,0.0,1.0
1463077462287769632,592,1463077462282548763,,17.8697013855,-23.7997665405,-62.3257598877,0.00998899992555,1.0,0.0,0.0,0.0,1.0,0.0,0.0,0.0,1.0,-3.7804877758,2.43902444839,0.18292683363,1.0,0.0,0.0,0.0,1.0,0.0,0.0,0.0,1.0,-5.22893642578,-1.32638771973,-10.8792523438,1.0,0.0,0.0,0.0,1.0,0.0,0.0,0.0,1.0
1463077462294423256,593,1463077462292666126,,17.9573516846,-23.7519989014,-62.3091430664,0.0100290002301,1.0,0.0,0.0,0.0,1.0,0.0,0.0,0.0,1.0,4.02439022064,1.40243899822,2.37804889679,1.0,0.0,0.0,0.0,1.0,0.0,0.0,0.0,1.0,-3.25611425781,-3.58651408691,-8.29830236958,1.0,0.0,0.0,0.0,1.0,0.0,0.0,0.0,1.0
1463077462304185516,594,1463077462302545990,,18.181470871,-23.8194561005,-62.3284111023,0.00998600013554,1.0,0.0,0.0,0.0,1.0,0.0,0.0,0.0,1.0,7.68292665482,1.40243899822,2.92682933807,1.0,0.0,0.0,0.0,1.0,0.0,0.0,0.0,1.0,-6.49307490234,-6.36857641602,-9.01656345215,1.0,0.0,0.0,0.0,1.0,0.0,0.0,0.0,1.0
1463077462314174337,595,1463077462312683457,,18.0731582642,-24.0005741119,-62.2595024109,0.0100229997188,1.0,0.0,0.0,0.0,1.0,0.0,0.0,0.0,1.0,-3.17073178291,2.74390244484,2.07317066193,1.0,0.0,0.0,0.0,1.0,0.0,0.0,0.0,1.0,-6.21055910645,-1.03429511719,-6.20577070312,1.0,0.0,0.0,0.0,1.0,0.0,0.0,0.0,1.0
1463077462323809150,596,1463077462322548581,,18.0231456757,-24.1783103943,-62.2570610046,0.00997000001371,1.0,0.0,0.0,0.0,1.0,0.0,0.0,0.0,1.0,-4.14634132385,-1.34146344662,-1.03658533096,1.0,0.0,0.0,0.0,1.0,0.0,0.0,0.0,1.0,-6.57447775879,-2.01591779785,-7.11077893066,1.0,0.0,0.0,0.0,1.0,0.0,0.0,0.0,1.0
1463077462334123074,597,1463077462332553600,,17.715473175,-24.1516704559,-62.1462516785,0.0100260004401,1.0,0.0,0.0,0.0,1.0,0.0,0.0,0.0,1.0,-3.71951246262,6.7682929039,-3.59756112099,1.0,0.0,0.0,0.0,1.0,0.0,0.0,0.0,1.0,-3.90733710937,1.63284553223,-7.62792648926,1.0,0.0,0.0,0.0,1.0,0.0,0.0,0.0,1.0
1463077462343804918,598,1463077462342552682,,17.5289154053,-24.0351543427,-62.0807647705,0.00997400004417,1.0,0.0,0.0,0.0,1.0,0.0,0.0,0.0,1.0,-6.34146356583,1.76829278469,-0.12195122242,1.0,0.0,0.0,0.0,1.0,0.0,0.0,0.0,1.0,-2.7581203125,-1.12048637695,-11.1282493164,1.0,0.0,0.0,0.0,1.0,0.0,0.0,0.0,1.0
1463077462354228321,599,1463077462352534993,,17.7971439362,-23.8497238159,-62.1416397095,0.00999599974602,1.0,0.0,0.0,0.0,1.0,0.0,0.0,0.0,1.0,4.51219558716,2.86585378647,1.34146344662,1.0,0.0,0.0,0.0,1.0,0.0,0.0,0.0,1.0,-1.5083470459,-9.10754311523,-11.0995188965,1.0,0.0,0.0,0.0,1.0,0.0,0.0,0.0,1.0
1463077462364140372,600,1463077462362499128,,17.8355712891,-23.5933532715,-62.1667747498,0.00999800022691,1.0,0.0,0.0,0.0,1.0,0.0,0.0,0.0,1.0,2.5,3.35365867615,-4.57317066193,1.0,0.0,0.0,0.0,1.0,0.0,0.0,0.0,1.0,-0.588973571866,-4.2329482429,-13.5224509766,1.0,0.0,0.0,0.0,1.0,0.0,0.0,0.0,1.0
1463077462375506481,601,1463077462372540397,,17.624250412,-23.8208179474,-62.0332603455,0.0100060002878,1.0,0.0,0.0,0.0,1.0,0.0,0.0,0.0,1.0,3.59756112099,1.8292683363,1.8902438879,1.0,0.0,0.0,0.0,1.0,0.0,0.0,0.0,1.0,-6.57447775879,1.75255561523,-6.12436784668,1.0,0.0,0.0,0.0,1.0,0.0,0.0,0.0,1.0
1463077462384485358,602,1463077462382554844,,17.7585697174,-23.5410842896,-62.0900230408,0.0100710000843,1.0,0.0,0.0,0.0,1.0,0.0,0.0,0.0,1.0,3.71951246262,2.13414645195,-3.90243911743,1.0,0.0,0.0,0.0,1.0,0.0,0.0,0.0,1.0,0.397437475586,-5.53539423828,-11.8704518311,1.0,0.0,0.0,0.0,1.0,0.0,0.0,0.0,1.0
1463077462393884911,603,1463077462392505280,,17.9543075562,-23.4740810394,-62.1476898193,0.00992900040001,1.0,0.0,0.0,0.0,1.0,0.0,0.0,0.0,1.0,12.0121955872,-1.64634156227,-3.84146332741,1.0,0.0,0.0,0.0,1.0,0.0,0.0,0.0,1.0,-1.95366855469,-2.58573779297,-6.04775339355,1.0,0.0,0.0,0.0,1.0,0.0,0.0,0.0,1.0
1463077462404316595,604,1463077462402568476,,18.0541858673,-23.2464580536,-62.2230377197,0.0100050000474,1.0,0.0,0.0,0.0,1.0,0.0,0.0,0.0,1.0,3.96341490746,5.12195110321,-8.78048801422,1.0,0.0,0.0,0.0,1.0,0.0,0.0,0.0,1.0,-1.88184250488,-4.55855996094,-12.1625444336,1.0,0.0,0.0,0.0,1.0,0.0,0.0,0.0,1.0
1463077462414009793,605,1463077462412557246,,17.8893871307,-23.3543987274,-62.1652336121,0.0100119998679,1.0,0.0,0.0,0.0,1.0,0.0,0.0,0.0,1.0,0.853658556938,-4.57317066193,-1.09756100178,1.0,0.0,0.0,0.0,1.0,0.0,0.0,0.0,1.0,-5.29597407227,0.368707055664,-9.47146118306,1.0,0.0,0.0,0.0,1.0,0.0,0.0,0.0,1.0
1463077462423834709,606,1463077462422560442,,17.8929290771,-23.1318759918,-62.2090187073,0.00998300034553,1.0,0.0,0.0,0.0,1.0,0.0,0.0,0.0,1.0,-6.28048801422,2.31707310677,-3.96341490746,1.0,0.0,0.0,0.0,1.0,0.0,0.0,0.0,1.0,-0.900219824219,-4.76446159597,-11.4873795654,1.0,0.0,0.0,0.0,1.0,0.0,0.0,0.0,1.0
1463077462434508164,607,1463077462432529733,,18.1851043701,-23.1413173676,-62.3704414368,0.0100029995665,1.0,0.0,0.0,0.0,1.0,0.0,0.0,0.0,1.0,6.7682929039,-3.71951246262,-8.35365867615,1.0,0.0,0.0,0.0,1.0,0.0,0.0,0.0,1.0,-1.18273554705,-1.70945998535,-2.30801040039,1.0,0.0,0.0,0.0,1.0,0.0,0.0,0.0,1.0
1463077462443897300,608,1463077462442551419,,17.945898056,-23.0383529663,-62.353187561,0.00999800022691,1.0,0.0,0.0,0.0,1.0,0.0,0.0,0.0,1.0,2.80487799644,0.792682945728,-11.6463422775,1.0,0.0,0.0,0.0,1.0,0.0,0.0,0.0,1.0,-1.1875240965,1.13485158691,-4.5968671875,1.0,0.0,0.0,0.0,1.0,0.0,0.0,0.0,1.0
1463077462454190339,609,1463077462452546907,,17.7192592621,-23.2146778107,-62.3092536926,0.00999299995601,1.0,0.0,0.0,0.0,1.0,0.0,0.0,0.0,1.0,-0.304878056049,-9.02439117432,-3.47560977936,1.0,0.0,0.0,0.0,1.0,0.0,0.0,0.0,1.0,-5.57848986816,1.70945998535,-9.02614025879,1.0,0.0,0.0,0.0,1.0,0.0,0.0,0.0,1.0
1463077462463869058,610,1463077462462454843,,17.3070487976,-22.8917045593,-62.2176856995,0.00999699998647,1.0,0.0,0.0,0.0,1.0,0.0,0.0,0.0,1.0,-6.82926845551,0.914634168148,-6.52439069748,1.0,0.0,0.0,0.0,1.0,0.0,0.0,0.0,1.0,2.41814367676,3.57693728027,-9.39963513325,1.0,0.0,0.0,0.0,1.0,0.0,0.0,0.0,1.0
1463077462474146472,611,1463077462472648456,,17.4287891388,-22.7629394531,-62.2615852356,0.0100279999897,1.0,0.0,0.0,0.0,1.0,0.0,0.0,0.0,1.0,10.8536586761,-5.36585378647,-3.96341490746,1.0,0.0,0.0,0.0,1.0,0.0,0.0,0.0,1.0,-1.32159931641,-3.48595761719,-12.1002951904,1.0,0.0,0.0,0.0,1.0,0.0,0.0,0.0,1.0
1463077462484156908,612,1463077462482595559,,17.6378440857,-22.4672985077,-62.3676948547,0.0100279999897,1.0,0.0,0.0,0.0,1.0,0.0,0.0,0.0,1.0,7.92682981491,0.426829278469,-7.68292665482,1.0,0.0,0.0,0.0,1.0,0.0,0.0,0.0,1.0,0.952892260742,-4.5250411377,-9.10275471191,1.0,0.0,0.0,0.0,1.0,0.0,0.0,0.0,1.0
1463077462495029893,613,1463077462492610006,,17.5637302399,-22.3265266418,-62.3642959595,0.0100229997188,1.0,0.0,0.0,0.0,1.0,0.0,0.0,0.0,1.0,-0.426829278469,2.92682933807,-4.81707286835,1.0,0.0,0.0,0.0,1.0,0.0,0.0,0.0,1.0,-2.60010300293,-1.84832368164,-11.5017447754,1.0,0.0,0.0,0.0,1.0,0.0,0.0,0.0,1.0
1463077462503919760,614,1463077462502503619,,17.9194755554,-22.4111289978,-62.4341621399,0.00992900040001,1.0,0.0,0.0,0.0,1.0,0.0,0.0,0.0,1.0,11.0365858078,1.40243899822,1.09756100178,1.0,0.0,0.0,0.0,1.0,0.0,0.0,0.0,1.0,-5.63595070801,-6.96233842773,-6.79474431152,1.0,0.0,0.0,0.0,1.0,0.0,0.0,0.0,1.0
1463077462513879363,615,1463077462512457389,,18.0069446564,-22.3174552917,-62.4675445557,0.00999100040644,1.0,0.0,0.0,0.0,1.0,0.0,0.0,0.0,1.0,5.24390268326,1.76829278469,-4.08536577225,1.0,0.0,0.0,0.0,1.0,0.0,0.0,0.0,1.0,-3.71580097656,-4.30477487722,-12.0476227539,1.0,0.0,0.0,0.0,1.0,0.0,0.0,0.0,1.0
1463077462524024591,616,1463077462522480116,,17.956735611,-21.9789123535,-62.4734230042,0.0100060002878,1.0,0.0,0.0,0.0,1.0,0.0,0.0,0.0,1.0,-0.853658556938,4.32926845551,-5.06097555161,1.0,0.0,0.0,0.0,1.0,0.0,0.0,0.0,1.0,1.96803376465,-3.29442148437,-15.0164328125,1.0,0.0,0.0,0.0,1.0,0.0,0.0,0.0,1.0
1463077462534292474,617,1463077462532517844,,18.0497398376,-21.8810157776,-62.5637779236,0.0100360000506,1.0,0.0,0.0,0.0,1.0,0.0,0.0,0.0,1.0,-1.52439022064,0.365853667259,-6.95121955872,1.0,0.0,0.0,0.0,1.0,0.0,0.0,0.0,1.0,-3.3470939209,-5.48272180176,-11.4682259521,1.0,0.0,0.0,0.0,1.0,0.0,0.0,0.0,1.0
1463077462543997963,618,1463077462542608905,,17.818605423,-21.8503913879,-62.4470062256,0.00996599998325,1.0,0.0,0.0,0.0,1.0,0.0,0.0,0.0,1.0,0.609756112099,0.609756112099,1.70731711388,1.0,0.0,0.0,0.0,1.0,0.0,0.0,0.0,1.0,-2.38462499965,0.751779321289,-7.57046564941,1.0,0.0,0.0,0.0,1.0,0.0,0.0,0.0,1.0
1463077462554397148,619,1463077462552513144,,17.5994815826,-21.7798461914,-62.3972892761,0.0100029995665,1.0,0.0,0.0,0.0,1.0,0.0,0.0,0.0,1.0,-5.67073154449,-3.17073178291,-1.46341466904,1.0,0.0,0.0,0.0,1.0,0.0,0.0,0.0,1.0,-2.14041643031,-0.143652099609,-10.553640918,1.0,0.0,0.0,0.0,1.0,0.0,0.0,0.0,1.0
1463077462563912533,620,1463077462562484882,,17.5800304413,-21.8008575439,-62.3912963867,0.0099950004369,1.0,0.0,0.0,0.0,1.0,0.0,0.0,0.0,1.0,0.548780500889,-1.2804877758,-1.2195122242,1.0,0.0,0.0,0.0,1.0,0.0,0.0,0.0,1.0,-4.20900622629,-2.37025978969,-9.47146118306,1.0,0.0,0.0,0.0,1.0,0.0,0.0,0.0,1.0
1463077462574002917,621,1463077462572538443,,17.6017456055,-22.0538139343,-62.3204460144,0.0100020002574,1.0,0.0,0.0,0.0,1.0,0.0,0.0,0.0,1.0,4.39024400711,-3.90243911743,7.01219511032,1.0,0.0,0.0,0.0,1.0,0.0,0.0,0.0,1.0,-6.07169541016,-1.97282216797,-6.40209523926,1.0,0.0,0.0,0.0,1.0,0.0,0.0,0.0,1.0
1463077462584193874,622,1463077462582489452,,17.9622440338,-22.1220169067,-62.3563575745,0.0100029995665,1.0,0.0,0.0,0.0,1.0,0.0,0.0,0.0,1.0,9.45121955872,3.41463422775,5.0,1.0,0.0,0.0,0.0,1.0,0.0,0.0,0.0,1.0,-3.63439812012,-5.17147558594,-4.40054265137,1.0,0.0,0.0,0.0,1.0,0.0,0.0,0.0,1.0
1463077462594810089,623,1463077462592540461,,18.1557998657,-22.2896690369,-62.3459663391,0.00999199971557,1.0,0.0,0.0,0.0,1.0,0.0,0.0,0.0,1.0,8.90243911743,-2.86585378647,5.36585378647,1.0,0.0,0.0,0.0,1.0,0.0,0.0,0.0,1.0,-3.97437475586,-3.0166940918,-4.91769020996,1.0,0.0,0.0,0.0,1.0,0.0,0.0,0.0,1.0
1463077462604354589,624,1463077462602532616,,18.1982822418,-22.4844837189,-62.320274353,0.0100090000778,1.0,0.0,0.0,0.0,1.0,0.0,0.0,0.0,1.0,6.95121955872,1.34146344662,-0.0,1.0,0.0,0.0,0.0,1.0,0.0,0.0,0.0,1.0,-4.8554409668,-1.2497732666,-4.86501777344,1.0,0.0,0.0,0.0,1.0,0.0,0.0,0.0,1.0
1463077462613828204,625,1463077462612496125,,18.0070095062,-22.6480674744,-62.2349700928,0.0100039998069,1.0,0.0,0.0,0.0,1.0,0.0,0.0,0.0,1.0,-2.5,-0.975609779358,1.40243899822,1.0,0.0,0.0,0.0,1.0,0.0,0.0,0.0,1.0,-6.742071875,0.234631762695,-8.92079538574,1.0,0.0,0.0,0.0,1.0,0.0,0.0,0.0,1.0
1463077462624214993,626,1463077462622621873,,18.2114982605,-22.5855026245,-62.3199691772,0.009990000166,1.0,0.0,0.0,0.0,1.0,0.0,0.0,0.0,1.0,-2.07317066193,1.64634156227,-1.52439022064,1.0,0.0,0.0,0.0,1.0,0.0,0.0,0.0,1.0,-5.81312163086,-12.0428343506,-14.4418244141,1.0,0.0,0.0,0.0,1.0,0.0,0.0,0.0,1.0
1463077462634119232,627,1463077462632528403,,18.0326766968,-22.8422832489,-62.2366256714,0.0100079998374,1.0,0.0,0.0,0.0,1.0,0.0,0.0,0.0,1.0,-2.74390244484,-0.0609756112099,1.46341466904,1.0,0.0,0.0,0.0,1.0,0.0,0.0,0.0,1.0,-7.50821640625,0.359130249023,-6.7181298584,1.0,0.0,0.0,0.0,1.0,0.0,0.0,0.0,1.0
1463077462645049613,628,1463077462642579933,,17.8838043213,-23.1095199585,-62.2365722656,0.0100149996579,1.0,0.0,0.0,0.0,1.0,0.0,0.0,0.0,1.0,-1.95121955872,-2.25609779358,-6.40243911743,1.0,0.0,0.0,0.0,1.0,0.0,0.0,0.0,1.0,-9.20331118164,0.799663354492,-7.76200178223,1.0,0.0,0.0,0.0,1.0,0.0,0.0,0.0,1.0
1463077462654360259,629,1463077462652534744,,17.8992919922,-23.0056228638,-62.2717323303,0.00997900031507,1.0,0.0,0.0,0.0,1.0,0.0,0.0,0.0,1.0,-2.56097555161,-2.25609779358,-2.68292689323,1.0,0.0,0.0,0.0,1.0,0.0,0.0,0.0,1.0,-2.83473476562,-4.81234562918,-13.1154366943,1.0,0.0,0.0,0.0,1.0,0.0,0.0,0.0,1.0
1463077462664226061,630,1463077462662589712,,18.3402061462,-23.2144355774,-62.429058075,0.0100560002029,1.0,0.0,0.0,0.0,1.0,0.0,0.0,0.0,1.0,4.45121955872,-5.36585378647,0.365853667259,1.0,0.0,0.0,0.0,1.0,0.0,0.0,0.0,1.0,-8.71968244629,-12.2918313232,-5.49708701172,1.0,0.0,0.0,0.0,1.0,0.0,0.0,0.0,1.0
1463077462674106185,631,1463077462672522231,,18.424287796,-23.0937633514,-62.5200004578,0.00994499959052,1.0,0.0,0.0,0.0,1.0,0.0,0.0,0.0,1.0,-1.8902438879,0.487804889679,-7.19512224197,1.0,0.0,0.0,0.0,1.0,0.0,0.0,0.0,1.0,-2.92092602539,-5.05655390625,-10.7451770508,1.0,0.0,0.0,0.0,1.0,0.0,0.0,0.0,1.0
1463077462684175162,632,1463077462682497303,,18.5911769867,-23.0675582886,-62.6095504761,0.00999899953604,1.0,0.0,0.0,0.0,1.0,0.0,0.0,0.0,1.0,4.51219558716,-2.68292689323,-5.12195110321,1.0,0.0,0.0,0.0,1.0,0.0,0.0,0.0,1.0,-3.86902988281,-5.07091911621,-9.63905646831,1.0,0.0,0.0,0.0,1.0,0.0,0.0,0.0,1.0
1463077462694830284,633,1463077462692530916,,18.6582260132,-23.0148639679,-62.6108398438,0.0100020002574,1.0,0.0,0.0,0.0,1.0,0.0,0.0,0.0,1.0,2.37804889679,2.68292689323,-0.365853667259,1.0,0.0,0.0,0.0,1.0,0.0,0.0,0.0,1.0,-3.88339509277,-3.9839515625,-9.48582756206,1.0,0.0,0.0,0.0,1.0,0.0,0.0,0.0,1.0
1463077462704175409,634,1463077462702495415,,18.7207565308,-22.6995315552,-62.6462669373,0.0099950004369,1.0,0.0,0.0,0.0,1.0,0.0,0.0,0.0,1.0,-4.81707286835,4.02439022064,-1.64634156227,1.0,0.0,0.0,0.0,1.0,0.0,0.0,0.0,1.0,1.34075292969,-6.3877300293,-11.6980693115,1.0,0.0,0.0,0.0,1.0,0.0,0.0,0.0,1.0
1463077462713886315,635,1463077462712512361,,18.5453853607,-22.3275222778,-62.6140441895,0.0100039998069,1.0,0.0,0.0,0.0,1.0,0.0,0.0,0.0,1.0,-4.20731735229,3.53658556938,-4.57317066193,1.0,0.0,0.0,0.0,1.0,0.0,0.0,0.0,1.0,3.19386501465,-1.03429511719,-14.1736738281,1.0,0.0,0.0,0.0,1.0,0.0,0.0,0.0,1.0
1463077462724045813,636,1463077462722649933,,18.4437732697,-22.193359375,-62.5696334839,0.0100330002606,1.0,0.0,0.0,0.0,1.0,0.0,0.0,0.0,1.0,-4.02439022064,0.914634168148,0.853658556938,1.0,0.0,0.0,0.0,1.0,0.0,0.0,0.0,1.0,-2.08774370153,-2.77727392578,-12.1864864502,1.0,0.0,0.0,0.0,1.0,0.0,0.0,0.0,1.0
1463077462734146249,637,1463077462732510161,,18.5015735626,-22.1387557983,-62.5663146973,0.00996899977326,1.0,0.0,0.0,0.0,1.0,0.0,0.0,0.0,1.0,1.2195122242,-1.2195122242,1.52439022064,1.0,0.0,0.0,0.0,1.0,0.0,0.0,0.0,1.0,-3.0406361084,-4.3622354248,-10.2902787354,1.0,0.0,0.0,0.0,1.0,0.0,0.0,0.0,1.0
1463077462744764965,638,1463077462742571951,,18.339302063,-22.1455612183,-62.5025978088,0.0100050000474,1.0,0.0,0.0,0.0,1.0,0.0,0.0,0.0,1.0,0.792682945728,-2.62195134163,-0.487804889679,1.0,0.0,0.0,0.0,1.0,0.0,0.0,0.0,1.0,-2.9927520752,-0.0622492431641,-8.3270327895,1.0,0.0,0.0,0.0,1.0,0.0,0.0,0.0,1.0
1463077462754099934,639,1463077462752630512,,18.5764522552,-22.2606182098,-62.5461196899,0.0100520001724,1.0,0.0,0.0,0.0,1.0,0.0,0.0,0.0,1.0,4.63414621353,-3.65853667259,3.23170733452,1.0,0.0,0.0,0.0,1.0,0.0,0.0,0.0,1.0,-5.22893642578,-6.1770402832,-7.52737001953,1.0,0.0,0.0,0.0,1.0,0.0,0.0,0.0,1.0
1463077462764212974,640,1463077462762576990,,18.8412895203,-22.0571269989,-62.5855903625,0.00994899962097,1.0,0.0,0.0,0.0,1.0,0.0,0.0,0.0,1.0,6.40243911743,2.25609779358,2.25609779358,1.0,0.0,0.0,0.0,1.0,0.0,0.0,0.0,1.0,-0.368707055664,-8.53293530132,-10.658985791,1.0,0.0,0.0,0.0,1.0,0.0,0.0,0.0,1.0
1463077462774222733,641,1463077462772667999,,18.5311431885,-22.2710342407,-62.4485702515,0.0100589999929,1.0,0.0,0.0,0.0,1.0,0.0,0.0,0.0,1.0,0.609756112099,-2.74390244484,1.52439022064,1.0,0.0,0.0,0.0,1.0,0.0,0.0,0.0,1.0,-5.71256516113,2.76769711914,-7.10120212402,1.0,0.0,0.0,0.0,1.0,0.0,0.0,0.0,1.0
1463077462783881452,642,1463077462782661664,,18.7807922363,-22.2394943237,-62.4310035706,0.0100050000474,1.0,0.0,0.0,0.0,1.0,0.0,0.0,0.0,1.0,9.08536529541,3.53658556938,6.46341466904,1.0,0.0,0.0,0.0,1.0,0.0,0.0,0.0,1.0,-4.08929643555,-6.94797321777,-9.14106193848,1.0,0.0,0.0,0.0,1.0,0.0,0.0,0.0,1.0
1463077462794999488,643,1463077462792597829,,18.7068023682,-22.5299186707,-62.3392906189,0.00992699991912,1.0,0.0,0.0,0.0,1.0,0.0,0.0,0.0,1.0,1.2804877758,1.8292683363,4.75609779358,1.0,0.0,0.0,0.0,1.0,0.0,0.0,0.0,1.0,-4.89374819336,-0.483628735352,-3.57214887695,1.0,0.0,0.0,0.0,1.0,0.0,0.0,0.0,1.0
1463077462804160917,644,1463077462802483683,,18.4593830109,-22.3595333099,-62.2402839661,0.0100020002574,1.0,0.0,0.0,0.0,1.0,0.0,0.0,0.0,1.0,-2.07317066193,2.31707310677,-0.670731723309,1.0,0.0,0.0,0.0,1.0,0.0,0.0,0.0,1.0,-1.07739082014,0.593762048251,-9.89762966309,1.0,0.0,0.0,0.0,1.0,0.0,0.0,0.0,1.0
1463077462814545258,645,1463077462812556254,,18.522403717,-22.5466270447,-62.2479515076,0.0100029995665,1.0,0.0,0.0,0.0,1.0,0.0,0.0,0.0,1.0,1.2195122242,2.13414645195,-0.670731723309,1.0,0.0,0.0,0.0,1.0,0.0,0.0,0.0,1.0,-9.94551369629,-4.25689084402,-9.27513723145,1.0,0.0,0.0,0.0,1.0,0.0,0.0,0.0,1.0
1463077462824185383,646,1463077462822735804,,18.4868907928,-22.9406356812,-62.2395553589,0.0100039998069,1.0,0.0,0.0,0.0,1.0,0.0,0.0,0.0,1.0,-0.975609779358,0.426829278469,-1.70731711388,1.0,0.0,0.0,0.0,1.0,0.0,0.0,0.0,1.0,-7.38371791992,-0.488417138672,-2.91134921875,1.0,0.0,0.0,0.0,1.0,0.0,0.0,0.0,1.0
1463077462833977330,647,1463077462832576293,,18.3309116364,-23.0498065948,-62.2278137207,0.00999699998647,1.0,0.0,0.0,0.0,1.0,0.0,0.0,0.0,1.0,-1.46341466904,-0.365853667259,-6.21951246262,1.0,0.0,0.0,0.0,1.0,0.0,0.0,0.0,1.0,-3.2992098877,0.100556469727,-4.72136538157,1.0,0.0,0.0,0.0,1.0,0.0,0.0,0.0,1.0
1463077462845503907,648,1463077462842736260,,18.2427806854,-23.0225009918,-62.1740951538,0.0100260004401,1.0,0.0,0.0,0.0,1.0,0.0,0.0,0.0,1.0,2.92682933807,0.18292683363,-0.487804889679,1.0,0.0,0.0,0.0,1.0,0.0,0.0,0.0,1.0,-2.44687409668,-0.699106884766,-6.52180532227,1.0,0.0,0.0,0.0,1.0,0.0,0.0,0.0,1.0
1463077462854293982,649,1463077462852571957,,18.2439289093,-22.8567409515,-62.1750946045,0.00996599998325,1.0,0.0,0.0,0.0,1.0,0.0,0.0,0.0,1.0,0.426829278469,3.41463422775,-2.62195134163,1.0,0.0,0.0,0.0,1.0,0.0,0.0,0.0,1.0,-1.5322890625,-2.42293208008,-7.8960770752,1.0,0.0,0.0,0.0,1.0,0.0,0.0,0.0,1.0
1463077462863802701,650,1463077462862524476,,18.0964317322,-22.6882820129,-62.0893783569,0.0100060002878,1.0,0.0,0.0,0.0,1.0,0.0,0.0,0.0,1.0,-1.40243899822,3.65853667259,1.40243899822,1.0,0.0,0.0,0.0,1.0,0.0,0.0,0.0,1.0,-1.40779057617,-1.01514150391,-9.2942902602,1.0,0.0,0.0,0.0,1.0,0.0,0.0,0.0,1.0
1463077462873880533,651,1463077462872632048,,18.0980968475,-22.2976932526,-62.0799789429,0.010048000142,1.0,0.0,0.0,0.0,1.0,0.0,0.0,0.0,1.0,3.90243911743,3.17073178291,-2.80487799644,1.0,0.0,0.0,0.0,1.0,0.0,0.0,0.0,1.0,3.83072265625,-3.28005627441,-13.7187755127,1.0,0.0,0.0,0.0,1.0,0.0,0.0,0.0,1.0
1463077462884096594,652,1463077462882640453,,18.0658493042,-22.2793960571,-62.0583839417,0.0100090000778,1.0,0.0,0.0,0.0,1.0,0.0,0.0,0.0,1.0,-0.609756112099,-0.731707334518,0.304878056049,1.0,0.0,0.0,0.0,1.0,0.0,0.0,0.0,1.0,-3.85945307617,-2.78685073242,-10.2711251221,1.0,0.0,0.0,0.0,1.0,0.0,0.0,0.0,1.0
1463077462895324474,653,1463077462892644482,,17.884929657,-21.9705410004,-61.9754981995,0.00998600013554,1.0,0.0,0.0,0.0,1.0,0.0,0.0,0.0,1.0,-0.853658556938,6.34146356583,-1.2804877758,1.0,0.0,0.0,0.0,1.0,0.0,0.0,0.0,1.0,0.814028564453,-0.316034619141,-11.5735708252,1.0,0.0,0.0,0.0,1.0,0.0,0.0,0.0,1.0
1463077462904181945,654,1463077462902587054,,17.9431838989,-21.8388195038,-61.9412117004,0.00996300019324,1.0,0.0,0.0,0.0,1.0,0.0,0.0,0.0,1.0,1.8292683363,-2.98780488968,5.36585378647,1.0,0.0,0.0,0.0,1.0,0.0,0.0,0.0,1.0,-0.847547387695,-4.75009638601,-11.2335941895,1.0,0.0,0.0,0.0,1.0,0.0,0.0,0.0,1.0
1463077462914536130,655,1463077462912548220,,18.0575408936,-21.9081439972,-61.9426689148,0.00999699998647,1.0,0.0,0.0,0.0,1.0,0.0,0.0,0.0,1.0,3.96341490746,-0.792682945728,2.01219511032,1.0,0.0,0.0,0.0,1.0,0.0,0.0,0.0,1.0,-5.516240625,-4.66390454172,-9.47146118306,1.0,0.0,0.0,0.0,1.0,0.0,0.0,0.0,1.0
1463077462924325108,656,1463077462922757457,,18.1293315887,-21.9136638641,-61.9305877686,0.010048000142,1.0,0.0,0.0,0.0,1.0,0.0,0.0,0.0,1.0,6.09756088257,-1.8292683363,1.15853655338,1.0,0.0,0.0,0.0,1.0,0.0,0.0,0.0,1.0,-6.13873305664,-5.29597407227,-15.4042934814,1.0,0.0,0.0,0.0,1.0,0.0,0.0,0.0,1.0
1463077462934181951,657,1463077462932535082,,18.3725605011,-22.1991119385,-61.9310264587,0.00994999986142,1.0,0.0,0.0,0.0,1.0,0.0,0.0,0.0,1.0,4.57317066193,5.30487823486,5.42682933807,1.0,0.0,0.0,0.0,1.0,0.0,0.0,0.0,1.0,-4.0078935791,-2.4516625,-1.66636435547,1.0,0.0,0.0,0.0,1.0,0.0,0.0,0.0,1.0
1463077462945740351,658,1463077462942679632,,18.1141166687,-22.0443534851,-61.7634811401,0.0100050000474,1.0,0.0,0.0,0.0,1.0,0.0,0.0,0.0,1.0,5.24390268326,-2.5,5.24390268326,1.0,0.0,0.0,0.0,1.0,0.0,0.0,0.0,1.0,0.0909796630859,1.75734401855,-9.27992563477,1.0,0.0,0.0,0.0,1.0,0.0,0.0,0.0,1.0
1463077462954113032,659,1463077462952547673,,18.3784942627,-21.9207267761,-61.8081283569,0.009990000166,1.0,0.0,0.0,0.0,1.0,0.0,0.0,0.0,1.0,5.97560977936,0.853658556938,2.19512200356,1.0,0.0,0.0,0.0,1.0,0.0,0.0,0.0,1.0,-2.1930887207,-9.13627353516,-11.4730143555,1.0,0.0,0.0,0.0,1.0,0.0,0.0,0.0,1.0
1463077462964553883,660,1463077462962595036,,18.320148468,-21.990480423,-61.7801437378,0.0100039998069,1.0,0.0,0.0,0.0,1.0,0.0,0.0,0.0,1.0,-3.90243911743,-1.34146344662,1.52439022064,1.0,0.0,0.0,0.0,1.0,0.0,0.0,0.0,1.0,-3.38061274414,-1.83395847168,-6.22971271973,1.0,0.0,0.0,0.0,1.0,0.0,0.0,0.0,1.0
1463077462974198227,661,1463077462972580628,,18.0800437927,-22.5050163269,-61.6506843567,0.0100039998069,1.0,0.0,0.0,0.0,1.0,0.0,0.0,0.0,1.0,6.21951246262,-6.7682929039,2.5,1.0,0.0,0.0,0.0,1.0,0.0,0.0,0.0,1.0,-10.7834842773,5.70298835449,-2.50912333984,1.0,0.0,0.0,0.0,1.0,0.0,0.0,0.0,1.0
1463077462984039966,662,1463077462982671533,,18.0897483826,-22.5496482849,-61.6811141968,0.0100520001724,1.0,0.0,0.0,0.0,1.0,0.0,0.0,0.0,1.0,-3.35365867615,0.304878056049,-2.92682933807,1.0,0.0,0.0,0.0,1.0,0.0,0.0,0.0,1.0,-4.67826975168,-3.10288535156,-8.03494077148,1.0,0.0,0.0,0.0,1.0,0.0,0.0,0.0,1.0
1463077462994772066,663,1463077462992565875,,17.9922828674,-23.0383300781,-61.6716690063,0.00999599974602,1.0,0.0,0.0,0.0,1.0,0.0,0.0,0.0,1.0,2.68292689323,-4.39024400711,-4.39024400711,1.0,0.0,0.0,0.0,1.0,0.0,0.0,0.0,1.0,-8.46110808247,1.60890351563,-2.09732050817,1.0,0.0,0.0,0.0,1.0,0.0,0.0,0.0,1.0
1463077463004040786,664,1463077463002590270,,18.1804695129,-23.0733089447,-61.719379425,0.00994800031185,1.0,0.0,0.0,0.0,1.0,0.0,0.0,0.0,1.0,0.914634168148,0.0609756112099,1.34146344662,1.0,0.0,0.0,0.0,1.0,0.0,0.0,0.0,1.0,-5.92804331055,-7.51300480957,-9.94072529297,1.0,0.0,0.0,0.0,1.0,0.0,0.0,0.0,1.0
1463077463013857629,665,1463077463012562477,,18.2451610565,-22.8840694427,-61.7655906677,0.0100029995665,1.0,0.0,0.0,0.0,1.0,0.0,0.0,0.0,1.0,3.04878044128,0.243902444839,-5.06097555161,1.0,0.0,0.0,0.0,1.0,0.0,0.0,0.0,1.0,-0.732625708008,-2.36068269078,-6.78516750488,1.0,0.0,0.0,0.0,1.0,0.0,0.0,0.0,1.0
1463077463024248793,666,1463077463022536194,,18.0076904297,-22.7238121033,-61.7298812866,0.0099849998951,1.0,0.0,0.0,0.0,1.0,0.0,0.0,0.0,1.0,-1.09756100178,3.04878044128,-8.29268264771,1.0,0.0,0.0,0.0,1.0,0.0,0.0,0.0,1.0,-2.23618435059,1.54186586914,-12.2487356934,1.0,0.0,0.0,0.0,1.0,0.0,0.0,0.0,1.0
1463077463034092251,667,1463077463032556891,,18.2680740356,-22.3795490265,-61.7983207703,0.0100029995665,1.0,0.0,0.0,0.0,1.0,0.0,0.0,0.0,1.0,8.35365867615,2.25609779358,-1.95121955872,1.0,0.0,0.0,0.0,1.0,0.0,0.0,0.0,1.0,3.37582434082,-8.97346782227,-13.1441671143,1.0,0.0,0.0,0.0,1.0,0.0,0.0,0.0,1.0
1463077463045338776,668,1463077463042652275,,18.3754253387,-22.4542961121,-61.8326530457,0.0100570004433,1.0,0.0,0.0,0.0,1.0,0.0,0.0,0.0,1.0,0.487804889679,-3.04878044128,0.304878056049,1.0,0.0,0.0,0.0,1.0,0.0,0.0,0.0,1.0,-5.8226984375,-5.44920297852,-10.1035310059,1.0,0.0,0.0,0.0,1.0,0.0,0.0,0.0,1.0
1463077463054048800,669,1463077463052478805,,18.1121082306,-22.4626197815,-61.7411155701,0.00994000025094,1.0,0.0,0.0,0.0,1.0,0.0,0.0,0.0,1.0,-2.01219511032,2.92682933807,-2.5,1.0,0.0,0.0,0.0,1.0,0.0,0.0,0.0,1.0,-5.76523759766,1.89620771484,-12.2104284668,1.0,0.0,0.0,0.0,1.0,0.0,0.0,0.0,1.0
1463077463064253767,670,1463077463062631220,,18.2687606812,-22.5823764801,-61.7341842651,0.0100579997525,1.0,0.0,0.0,0.0,1.0,0.0,0.0,0.0,1.0,5.85365867615,-4.81707286835,5.36585378647,1.0,0.0,0.0,0.0,1.0,0.0,0.0,0.0,1.0,-4.32871689382,-4.01268198242,-7.03895288086,1.0,0.0,0.0,0.0,1.0,0.0,0.0,0.0,1.0
1463077463074521494,671,1463077463072601031,,18.4381523132,-22.7607841492,-61.7186050415,0.00996000040323,1.0,0.0,0.0,0.0,1.0,0.0,0.0,0.0,1.0,5.91463422775,4.32926845551,3.96341490746,1.0,0.0,0.0,0.0,1.0,0.0,0.0,0.0,1.0,-6.21534750977,-3.74453139648,-5.32949289551,1.0,0.0,0.0,0.0,1.0,0.0,0.0,0.0,1.0
1463077463083814172,672,1463077463082548551,,18.3188304901,-22.8513298035,-61.6377868652,0.0099950004369,1.0,0.0,0.0,0.0,1.0,0.0,0.0,0.0,1.0,-0.914634168148,-0.609756112099,3.23170733452,1.0,0.0,0.0,0.0,1.0,0.0,0.0,0.0,1.0,-5.59285507812,-1.24019645996,-9.50019277202,1.0,0.0,0.0,0.0,1.0,0.0,0.0,0.0,1.0
1463077463094112576,673,1463077463092517737,,18.3155708313,-22.9745903015,-61.5305252075,0.00999999977648,1.0,0.0,0.0,0.0,1.0,0.0,0.0,0.0,1.0,8.96341514587,4.69512224197,5.24390268326,1.0,0.0,0.0,0.0,1.0,0.0,0.0,0.0,1.0,-4.39575424805,-0.972045874023,-5.44920297852,1.0,0.0,0.0,0.0,1.0,0.0,0.0,0.0,1.0
1463077463103998325,674,1463077463102555569,,18.3256015778,-22.9687976837,-61.4659233093,0.0100579997525,1.0,0.0,0.0,0.0,1.0,0.0,0.0,0.0,1.0,2.31707310677,2.74390244484,4.57317066193,1.0,0.0,0.0,0.0,1.0,0.0,0.0,0.0,1.0,-2.12126281703,-1.55144267578,-4.53461794434,1.0,0.0,0.0,0.0,1.0,0.0,0.0,0.0,1.0
1463077463113816731,675,1463077463112525693,,17.8295612335,-23.1200656891,-61.2725410461,0.00993399973959,1.0,0.0,0.0,0.0,1.0,0.0,0.0,0.0,1.0,-2.98780488968,3.47560977936,-1.40243899822,1.0,0.0,0.0,0.0,1.0,0.0,0.0,0.0,1.0,-5.80833322754,6.80910952148,-6.53138212891,1.0,0.0,0.0,0.0,1.0,0.0,0.0,0.0,1.0
1463077463123925083,676,1463077463122532588,,17.64635849,-23.1703796387,-61.2111968994,0.0100039998069,1.0,0.0,0.0,0.0,1.0,0.0,0.0,0.0,1.0,-3.96341490746,0.792682945728,-1.03658533096,1.0,0.0,0.0,0.0,1.0,0.0,0.0,0.0,1.0,-4.52982954102,-0.244208569336,-8.22168850098,1.0,0.0,0.0,0.0,1.0,0.0,0.0,0.0,1.0
1463077463134091977,677,1463077463132477087,,17.5613708496,-23.506269455,-61.1583442688,0.00999400019646,1.0,0.0,0.0,0.0,1.0,0.0,0.0,0.0,1.0,3.35365867615,0.243902444839,-0.792682945728,1.0,0.0,0.0,0.0,1.0,0.0,0.0,0.0,1.0,-4.94163222656,0.292092584273,-2.91613762207,1.0,0.0,0.0,0.0,1.0,0.0,0.0,0.0,1.0
1463077463144414704,678,1463077463142681428,,17.8362293243,-23.3989200592,-61.3210105896,0.0100790001452,1.0,0.0,0.0,0.0,1.0,0.0,0.0,0.0,1.0,2.37804889679,-1.15853655338,-7.92682981491,1.0,0.0,0.0,0.0,1.0,0.0,0.0,0.0,1.0,-1.40300217285,-3.77326181641,-4.81234562918,1.0,0.0,0.0,0.0,1.0,0.0,0.0,0.0,1.0
1463077463154193266,679,1463077463152488219,,17.6576690674,-23.2537765503,-61.2520179749,0.00992000009865,1.0,0.0,0.0,0.0,1.0,0.0,0.0,0.0,1.0,3.65853667259,-1.15853655338,-2.80487799644,1.0,0.0,0.0,0.0,1.0,0.0,0.0,0.0,1.0,-0.861912597656,0.574608398438,-7.2831614502,1.0,0.0,0.0,0.0,1.0,0.0,0.0,0.0,1.0
1463077463163870005,680,1463077463162539958,,17.517829895,-23.1232433319,-61.1811218262,0.0100130001083,1.0,0.0,0.0,0.0,1.0,0.0,0.0,0.0,1.0,1.40243899822,3.23170733452,-1.15853655338,1.0,0.0,0.0,0.0,1.0,0.0,0.0,0.0,1.0,-2.4756045166,-0.45968671875,-10.6829278076,1.0,0.0,0.0,0.0,1.0,0.0,0.0,0.0,1.0
1463077463174114555,681,1463077463172531904,,17.1738986969,-23.1843490601,-61.0167541504,0.00998899992555,1.0,0.0,0.0,0.0,1.0,0.0,0.0,0.0,1.0,-3.23170733452,-1.46341466904,3.84146332741,1.0,0.0,0.0,0.0,1.0,0.0,0.0,0.0,1.0,-5.41568415527,3.12682736816,-11.8273562012,1.0,0.0,0.0,0.0,1.0,0.0,0.0,0.0,1.0
1463077463183891607,682,1463077463182533330,,17.2874946594,-23.1479969025,-60.9932250977,0.0100029995665,1.0,0.0,0.0,0.0,1.0,0.0,0.0,0.0,1.0,5.06097555161,0.0,4.2682929039,1.0,0.0,0.0,0.0,1.0,0.0,0.0,0.0,1.0,-3.76368500977,-4.74530798269,-10.2950671387,1.0,0.0,0.0,0.0,1.0,0.0,0.0,0.0,1.0
1463077463194568135,683,1463077463192601891,,16.8717861176,-23.0826396942,-60.7808189392,0.0100090000778,1.0,0.0,0.0,0.0,1.0,0.0,0.0,0.0,1.0,5.54878091812,-1.58536589146,2.19512200356,1.0,0.0,0.0,0.0,1.0,0.0,0.0,0.0,1.0,-0.689530078125,3.25132585449,-5.09964953613,1.0,0.0,0.0,0.0,1.0,0.0,0.0,0.0,1.0
1463077463204186072,684,1463077463202531598,,17.1407661438,-23.015668869,-60.8215484619,0.00999599974602,1.0,0.0,0.0,0.0,1.0,0.0,0.0,0.0,1.0,4.39024400711,4.45121955872,2.86585378647,1.0,0.0,0.0,0.0,1.0,0.0,0.0,0.0,1.0,-2.54743056641,-5.07091911621,-5.83706364746,1.0,0.0,0.0,0.0,1.0,0.0,0.0,0.0,1.0
1463077463214104113,685,1463077463212492816,,17.1462554932,-23.1497573853,-60.764591217,0.00999299995601,1.0,0.0,0.0,0.0,1.0,0.0,0.0,0.0,1.0,1.8902438879,-2.5,5.36585378647,1.0,0.0,0.0,0.0,1.0,0.0,0.0,0.0,1.0,-5.17147558594,-2.37983659633,-7.6135612793,1.0,0.0,0.0,0.0,1.0,0.0,0.0,0.0,1.0
1463077463224521214,686,1463077463222734918,,17.054649353,-23.1305427551,-60.745174408,0.0100929997861,1.0,0.0,0.0,0.0,1.0,0.0,0.0,0.0,1.0,0.426829278469,1.15853655338,-3.71951246262,1.0,0.0,0.0,0.0,1.0,0.0,0.0,0.0,1.0,-4.12760366211,-0.952892260742,-9.50498117534,1.0,0.0,0.0,0.0,1.0,0.0,0.0,0.0,1.0
1463077463233825663,687,1463077463232549105,,16.9420967102,-23.2023563385,-60.7295227051,0.00991200003773,1.0,0.0,0.0,0.0,1.0,0.0,0.0,0.0,1.0,-1.34146344662,-4.87804889679,-2.5,1.0,0.0,0.0,0.0,1.0,0.0,0.0,0.0,1.0,-3.84029946289,-0.612915625,-7.7332713623,1.0,0.0,0.0,0.0,1.0,0.0,0.0,0.0,1.0
1463077463244185734,688,1463077463242488291,,16.9485988617,-23.8250370026,-60.7011489868,0.0100029995665,1.0,0.0,0.0,0.0,1.0,0.0,0.0,0.0,1.0,8.5365858078,-6.70731735229,0.304878056049,1.0,0.0,0.0,0.0,1.0,0.0,0.0,0.0,1.0,-5.8945244873,1.52750065918,1.81959326172,1.0,0.0,0.0,0.0,1.0,0.0,0.0,0.0,1.0
1463077463254217941,689,1463077463252597425,,16.762506485,-23.7903823853,-60.6818771362,0.00999899953604,1.0,0.0,0.0,0.0,1.0,0.0,0.0,0.0,1.0,1.64634156227,-2.43902444839,-7.74390268326,1.0,0.0,0.0,0.0,1.0,0.0,0.0,0.0,1.0,-2.30322199707,0.876277807617,-6.78037910156,1.0,0.0,0.0,0.0,1.0,0.0,0.0,0.0,1.0
1463077463264240304,690,1463077463262573174,,16.8774013519,-23.4720859528,-60.7144927979,0.0100429998711,1.0,0.0,0.0,0.0,1.0,0.0,0.0,0.0,1.0,11.4634151459,-1.8292683363,-4.39024400711,1.0,0.0,0.0,0.0,1.0,0.0,0.0,0.0,1.0,1.70945998535,-2.31279880371,-8.9591026123,1.0,0.0,0.0,0.0,1.0,0.0,0.0,0.0,1.0
1463077463274356000,691,1463077463272569912,,16.7792224884,-23.312833786,-60.6733131409,0.00996000040323,1.0,0.0,0.0,0.0,1.0,0.0,0.0,0.0,1.0,1.15853655338,2.13414645195,-2.19512200356,1.0,0.0,0.0,0.0,1.0,0.0,0.0,0.0,1.0,-2.44687409668,-1.36469494629,-14.1497318115,1.0,0.0,0.0,0.0,1.0,0.0,0.0,0.0,1.0
1463077463283967323,692,1463077463282545765,,16.6315879822,-23.1757793427,-60.5872688293,0.00998899992555,1.0,0.0,0.0,0.0,1.0,0.0,0.0,0.0,1.0,-1.95121955872,4.08536577225,1.52439022064,1.0,0.0,0.0,0.0,1.0,0.0,0.0,0.0,1.0,-3.68707055664,-1.4844050293,-16.2039568359,1.0,0.0,0.0,0.0,1.0,0.0,0.0,0.0,1.0
1463077463295151974,693,1463077463293255001,,16.7589626312,-22.8620948792,-60.6157684326,0.0104980003089,1.0,0.0,0.0,0.0,1.0,0.0,0.0,0.0,1.0,1.52439022064,4.20731735229,-0.792682945728,1.0,0.0,0.0,0.0,1.0,0.0,0.0,0.0,1.0,0.852335791016,-5.81791003418,-11.7076461182,1.0,0.0,0.0,0.0,1.0,0.0,0.0,0.0,1.0
1463077463303912623,694,1463077463302595283,,16.8170585632,-22.7793197632,-60.6189079285,0.0095119997859,1.0,0.0,0.0,0.0,1.0,0.0,0.0,0.0,1.0,1.34146344662,1.46341466904,0.0609756112099,1.0,0.0,0.0,0.0,1.0,0.0,0.0,0.0,1.0,-2.74854350586,-3.53863005371,-9.10754311523,1.0,0.0,0.0,0.0,1.0,0.0,0.0,0.0,1.0
1463077463314102017,695,1463077463312585771,,16.900604248,-23.0045223236,-60.5888824463,0.0100029995665,1.0,0.0,0.0,0.0,1.0,0.0,0.0,0.0,1.0,1.70731711388,0.365853667259,4.93902444839,1.0,0.0,0.0,0.0,1.0,0.0,0.0,0.0,1.0,-8.17859287109,-3.81635744629,-7.22091220703,1.0,0.0,0.0,0.0,1.0,0.0,0.0,0.0,1.0
1463077463324572816,696,1463077463323102091,,16.7340354919,-23.0629653931,-60.4939422607,0.00998899992555,1.0,0.0,0.0,0.0,1.0,0.0,0.0,0.0,1.0,1.15853655338,-2.56097555161,2.31707310677,1.0,0.0,0.0,0.0,1.0,0.0,0.0,0.0,1.0,-5.69341154785,0.301669427446,-12.1673328369,1.0,0.0,0.0,0.0,1.0,0.0,0.0,0.0,1.0
1463077463334316326,697,1463077463332487217,,16.932844162,-22.940038681,-60.4358520508,0.0100109996274,1.0,0.0,0.0,0.0,1.0,0.0,0.0,0.0,1.0,1.52439022064,9.14634132385,10.7926826477,1.0,0.0,0.0,0.0,1.0,0.0,0.0,0.0,1.0,-1.36469494629,-3.2992098877,-3.9360675293,1.0,0.0,0.0,0.0,1.0,0.0,0.0,0.0,1.0
1463077463344233168,698,1463077463342495622,,16.9549274445,-22.8558521271,-60.418056488,0.00999100040644,1.0,0.0,0.0,0.0,1.0,0.0,0.0,0.0,1.0,1.46341466904,0.0609756112099,1.09756100178,1.0,0.0,0.0,0.0,1.0,0.0,0.0,0.0,1.0,-3.87860668945,-4.59207878418,-14.3412679443,1.0,0.0,0.0,0.0,1.0,0.0,0.0,0.0,1.0
1463077463354160897,699,1463077463352549808,,16.8760509491,-22.8091449738,-60.3655967712,0.010006999597,1.0,0.0,0.0,0.0,1.0,0.0,0.0,0.0,1.0,0.853658556938,1.09756100178,0.487804889679,1.0,0.0,0.0,0.0,1.0,0.0,0.0,0.0,1.0,-4.17069899973,-1.73340200195,-11.8943938477,1.0,0.0,0.0,0.0,1.0,0.0,0.0,0.0,1.0
1463077463364388728,700,1463077463362514619,,16.9961357117,-22.7173137665,-60.3852424622,0.0100079998374,1.0,0.0,0.0,0.0,1.0,0.0,0.0,0.0,1.0,3.96341490746,1.09756100178,-0.243902444839,1.0,0.0,0.0,0.0,1.0,0.0,0.0,0.0,1.0,-1.77649763184,-2.77248552246,-6.12915625,1.0,0.0,0.0,0.0,1.0,0.0,0.0,0.0,1.0
1463077463374840777,701,1463077463372458910,,17.2102985382,-22.4692440033,-60.4779472351,0.00998899992555,1.0,0.0,0.0,0.0,1.0,0.0,0.0,0.0,1.0,3.96341490746,5.24390268326,-5.67073154449,1.0,0.0,0.0,0.0,1.0,0.0,0.0,0.0,1.0,-0.871489404297,-7.21612380371,-11.7076461182,1.0,0.0,0.0,0.0,1.0,0.0,0.0,0.0,1.0
1463077463383848040,702,1463077463382523565,,17.4287548065,-22.3923397064,-60.5090026855,0.0100109996274,1.0,0.0,0.0,0.0,1.0,0.0,0.0,0.0,1.0,6.7682929039,-0.0609756112099,1.8292683363,1.0,0.0,0.0,0.0,1.0,0.0,0.0,0.0,1.0,-2.29364519043,-5.03261188965,-7.98705673828,1.0,0.0,0.0,0.0,1.0,0.0,0.0,0.0,1.0
1463077463393759153,703,1463077463392478272,,17.4858150482,-22.3444004059,-60.5323486328,0.00999400019646,1.0,0.0,0.0,0.0,1.0,0.0,0.0,0.0,1.0,1.2804877758,0.914634168148,-2.25609779358,1.0,0.0,0.0,0.0,1.0,0.0,0.0,0.0,1.0,-4.70221176829,-4.72136538157,-12.4929442627,1.0,0.0,0.0,0.0,1.0,0.0,0.0,0.0,1.0
1463077463405605052,704,1463077463402630374,,17.7776355743,-22.3889293671,-60.5424308777,0.00999999977648,1.0,0.0,0.0,0.0,1.0,0.0,0.0,0.0,1.0,13.2317075729,2.01219511032,3.90243911743,1.0,0.0,0.0,0.0,1.0,0.0,0.0,0.0,1.0,-4.99430466309,-5.78439121094,-7.95832631836,1.0,0.0,0.0,0.0,1.0,0.0,0.0,0.0,1.0
1463077463416229236,705,1463077463412538259,,17.6840229034,-22.9578838348,-60.5159912109,0.00999599974602,1.0,0.0,0.0,0.0,1.0,0.0,0.0,0.0,1.0,0.548780500889,-3.29268312454,-1.70731711388,1.0,0.0,0.0,0.0,1.0,0.0,0.0,0.0,1.0,-6.19140549316,1.49877023926,0.76135612793,1.0,0.0,0.0,0.0,1.0,0.0,0.0,0.0,1.0
1463077463425430196,706,1463077463422676872,,17.2203712463,-23.1994037628,-60.2887153625,0.0101190004498,1.0,0.0,0.0,0.0,1.0,0.0,0.0,0.0,1.0,-2.07317066193,-1.34146344662,5.0,1.0,0.0,0.0,0.0,1.0,0.0,0.0,0.0,1.0,-3.79241542969,3.36145913086,-3.94085593262,1.0,0.0,0.0,0.0,1.0,0.0,0.0,0.0,1.0
1463077463436265890,707,1463077463432923505,,17.379655838,-23.4758262634,-60.3436813354,0.0102909998968,1.0,0.0,0.0,0.0,1.0,0.0,0.0,0.0,1.0,4.20731735229,-5.54878091812,-0.548780500889,1.0,0.0,0.0,0.0,1.0,0.0,0.0,0.0,1.0,-7.27837304687,-3.62003291016,-6.12915625,1.0,0.0,0.0,0.0,1.0,0.0,0.0,0.0,1.0
1463077463445613516,708,1463077463442684150,,17.6582241058,-22.960018158,-60.4030418396,0.00972700025886,1.0,0.0,0.0,0.0,1.0,0.0,0.0,0.0,1.0,4.87804889679,7.07317113876,0.426829278469,1.0,0.0,0.0,0.0,1.0,0.0,0.0,0.0,1.0,3.4189199707,-3.49074602051,-3.30878669434,1.0,0.0,0.0,0.0,1.0,0.0,0.0,0.0,1.0
1463077463455362494,709,1463077463452701930,,17.5956115723,-22.6742362976,-60.4089202881,0.00999999977648,1.0,0.0,0.0,0.0,1.0,0.0,0.0,0.0,1.0,1.46341466904,-0.792682945728,-5.06097555161,1.0,0.0,0.0,0.0,1.0,0.0,0.0,0.0,1.0,1.35032973633,-1.66636435547,-11.8177793945,1.0,0.0,0.0,0.0,1.0,0.0,0.0,0.0,1.0
1463077463465884023,710,1463077463462693929,,17.7038574219,-22.6976127625,-60.3641090393,0.00997699983418,1.0,0.0,0.0,0.0,1.0,0.0,0.0,0.0,1.0,6.64634132385,0.304878056049,5.60975599289,1.0,0.0,0.0,0.0,1.0,0.0,0.0,0.0,1.0,-5.07091911621,-4.64953933176,-10.5057568848,1.0,0.0,0.0,0.0,1.0,0.0,0.0,0.0,1.0
1463077463474823160,711,1463077463472807073,,18.1239833832,-22.6245574951,-60.4599151611,0.0101159997284,1.0,0.0,0.0,0.0,1.0,0.0,0.0,0.0,1.0,11.8902444839,2.01219511032,0.426829278469,1.0,0.0,0.0,0.0,1.0,0.0,0.0,0.0,1.0,-4.0557776123,-11.4873795654,-10.4435076416,1.0,0.0,0.0,0.0,1.0,0.0,0.0,0.0,1.0
1463077463485787187,712,1463077463483261674,,18.3766059875,-22.5219745636,-60.5532836914,0.0105259995908,1.0,0.0,0.0,0.0,1.0,0.0,0.0,0.0,1.0,2.01219511032,-2.80487799644,-0.731707334518,1.0,0.0,0.0,0.0,1.0,0.0,0.0,0.0,1.0,-2.50912333984,-9.67257470703,-12.2056400635,1.0,0.0,0.0,0.0,1.0,0.0,0.0,0.0,1.0
1463077463494765856,713,1463077463492713154,,18.4160556793,-22.5394744873,-60.5366249084,0.00937599968165,1.0,0.0,0.0,0.0,1.0,0.0,0.0,0.0,1.0,2.74390244484,1.46341466904,0.914634168148,1.0,0.0,0.0,0.0,1.0,0.0,0.0,0.0,1.0,-5.01824667969,-3.56736047363,-9.73961235352,1.0,0.0,0.0,0.0,1.0,0.0,0.0,0.0,1.0
1463077463504527178,714,1463077463502770726,,18.2937107086,-22.6058158875,-60.4860496521,0.0100859999657,1.0,0.0,0.0,0.0,1.0,0.0,0.0,0.0,1.0,-2.68292689323,0.243902444839,0.18292683363,1.0,0.0,0.0,0.0,1.0,0.0,0.0,0.0,1.0,-5.1858407959,-1.28329208984,-9.12669672852,1.0,0.0,0.0,0.0,1.0,0.0,0.0,0.0,1.0
1463077463514823863,715,1463077463512609444,,18.2812862396,-23.1686534882,-60.4817581177,0.00987000018358,1.0,0.0,0.0,0.0,1.0,0.0,0.0,0.0,1.0,-0.365853667259,-2.31707310677,-0.548780500889,1.0,0.0,0.0,0.0,1.0,0.0,0.0,0.0,1.0,-3.81156904297,1.00077629395,2.56179577637,1.0,0.0,0.0,0.0,1.0,0.0,0.0,0.0,1.0
1463077463525007841,716,1463077463522896493,,18.2956180573,-23.0551147461,-60.5124130249,0.0101209999993,1.0,0.0,0.0,0.0,1.0,0.0,0.0,0.0,1.0,2.07317066193,3.96341490746,-6.34146356583,1.0,0.0,0.0,0.0,1.0,0.0,0.0,0.0,1.0,-2.04464821777,-1.67115275879,-6.10042583008,1.0,0.0,0.0,0.0,1.0,0.0,0.0,0.0,1.0
1463077463535134943,717,1463077463532660628,,18.2778148651,-22.9804172516,-60.5321426392,0.00993200019002,1.0,0.0,0.0,0.0,1.0,0.0,0.0,0.0,1.0,-0.975609779358,-4.75609779358,-2.31707310677,1.0,0.0,0.0,0.0,1.0,0.0,0.0,0.0,1.0,-2.57616098633,-3.32794030762,-11.8369330078,1.0,0.0,0.0,0.0,1.0,0.0,0.0,0.0,1.0
1463077463544556683,718,1463077463542608669,,18.1115627289,-23.0811672211,-60.4189491272,0.00994599983096,1.0,0.0,0.0,0.0,1.0,0.0,0.0,0.0,1.0,0.487804889679,2.19512200356,3.23170733452,1.0,0.0,0.0,0.0,1.0,0.0,0.0,0.0,1.0,-8.17380446777,-0.0335188255255,-12.2295820801,1.0,0.0,0.0,0.0,1.0,0.0,0.0,0.0,1.0
1463077463554678369,719,1463077463552875094,,18.2851486206,-23.3925952911,-60.4297676086,0.0101779997349,1.0,0.0,0.0,0.0,1.0,0.0,0.0,0.0,1.0,7.07317113876,-1.70731711388,2.56097555161,1.0,0.0,0.0,0.0,1.0,0.0,0.0,0.0,1.0,-6.10042583008,-2.62404501953,-3.84508786621,1.0,0.0,0.0,0.0,1.0,0.0,0.0,0.0,1.0
1463077463564975940,720,1463077463562666572,,18.2837581635,-23.5123901367,-60.3757400513,0.00987999979407,1.0,0.0,0.0,0.0,1.0,0.0,0.0,0.0,1.0,4.39024400711,3.53658556938,1.70731711388,1.0,0.0,0.0,0.0,1.0,0.0,0.0,0.0,1.0,-4.99430466309,-1.4844050293,-5.99508095703,1.0,0.0,0.0,0.0,1.0,0.0,0.0,0.0,1.0
1463077463574610440,721,1463077463572708206,,18.2268390656,-23.4810791016,-60.3495979309,0.0100210001692,1.0,0.0,0.0,0.0,1.0,0.0,0.0,0.0,1.0,-4.63414621353,1.15853655338,0.853658556938,1.0,0.0,0.0,0.0,1.0,0.0,0.0,0.0,1.0,-4.27125605398,-3.24653745117,-10.3429511719,1.0,0.0,0.0,0.0,1.0,0.0,0.0,0.0,1.0
1463077463585949101,722,1463077463583393588,,18.215845108,-23.3703937531,-60.2982749939,0.0107289999723,1.0,0.0,0.0,0.0,1.0,0.0,0.0,0.0,1.0,-1.15853655338,4.69512224197,2.74390244484,1.0,0.0,0.0,0.0,1.0,0.0,0.0,0.0,1.0,-4.66390454172,-5.16668718262,-14.3843635742,1.0,0.0,0.0,0.0,1.0,0.0,0.0,0.0,1.0
1463077463595624694,723,1463077463592773922,,18.50522995,-23.1238899231,-60.4893798828,0.0092650000006,1.0,0.0,0.0,0.0,1.0,0.0,0.0,0.0,1.0,-0.304878056049,0.0,-10.4878053665,1.0,0.0,0.0,0.0,1.0,0.0,0.0,0.0,1.0,0.531512805087,-6.83783994141,-7.0485296875,1.0,0.0,0.0,0.0,1.0,0.0,0.0,0.0,1.0
1463077463604588103,724,1463077463602864098,,18.6936950684,-23.0099887848,-60.5696105957,0.0101290000603,1.0,0.0,0.0,0.0,1.0,0.0,0.0,0.0,1.0,5.97560977936,-1.76829278469,-4.02439022064,1.0,0.0,0.0,0.0,1.0,0.0,0.0,0.0,1.0,-2.22181914063,-5.31512768555,-9.81143840332,1.0,0.0,0.0,0.0,1.0,0.0,0.0,0.0,1.0
1463077463616091711,725,1463077463612793909,,18.6979103088,-22.9584083557,-60.594039917,0.00987500045449,1.0,0.0,0.0,0.0,1.0,0.0,0.0,0.0,1.0,-3.65853667259,-0.365853667259,-2.13414645195,1.0,0.0,0.0,0.0,1.0,0.0,0.0,0.0,1.0,-4.46279189453,-4.9272670166,-12.5216746826,1.0,0.0,0.0,0.0,1.0,0.0,0.0,0.0,1.0
1463077463624814547,726,1463077463622818616,,18.5721797943,-23.2135753632,-60.4971046448,0.00989800039679,1.0,0.0,0.0,0.0,1.0,0.0,0.0,0.0,1.0,6.09756088257,-5.42682933807,3.23170733452,1.0,0.0,0.0,0.0,1.0,0.0,0.0,0.0,1.0,-4.94163222656,0.497993945312,-5.46356818848,1.0,0.0,0.0,0.0,1.0,0.0,0.0,0.0,1.0
1463077463635189253,727,1463077463632729521,,18.907037735,-23.0680942535,-60.5643692017,0.0100790001452,1.0,0.0,0.0,0.0,1.0,0.0,0.0,0.0,1.0,7.07317113876,3.04878044128,1.95121955872,1.0,0.0,0.0,0.0,1.0,0.0,0.0,0.0,1.0,-1.99676418457,-9.16021555176,-9.18894597168,1.0,0.0,0.0,0.0,1.0,0.0,0.0,0.0,1.0
1463077463644515577,728,1463077463642554646,,18.6233844757,-23.1782951355,-60.4367828369,0.00992800015956,1.0,0.0,0.0,0.0,1.0,0.0,0.0,0.0,1.0,-1.52439022064,-5.67073154449,3.10975623131,1.0,0.0,0.0,0.0,1.0,0.0,0.0,0.0,1.0,-4.14675698313,1.5083470459,-8.50899328472,1.0,0.0,0.0,0.0,1.0,0.0,0.0,0.0,1.0
1463077463654775075,729,1463077463652832581,,18.8150863647,-22.8155345917,-60.4852714539,0.0101749999449,1.0,0.0,0.0,0.0,1.0,0.0,0.0,0.0,1.0,-0.975609779358,7.86585378647,-0.365853667259,1.0,0.0,0.0,0.0,1.0,0.0,0.0,0.0,1.0,1.68551796875,-7.68059892578,-9.77313117676,1.0,0.0,0.0,0.0,1.0,0.0,0.0,0.0,1.0
1463077463665097593,730,1463077463662617133,,18.8239135742,-22.5242462158,-60.562702179,0.00983799993992,1.0,0.0,0.0,0.0,1.0,0.0,0.0,0.0,1.0,-0.18292683363,-1.40243899822,-9.26829242706,1.0,0.0,0.0,0.0,1.0,0.0,0.0,0.0,1.0,1.63284553223,-3.95522114258,-13.9103116455,1.0,0.0,0.0,0.0,1.0,0.0,0.0,0.0,1.0
1463077463674980999,731,1463077463672822620,,19.1132278442,-22.5511627197,-60.6747207642,0.0101410001516,1.0,0.0,0.0,0.0,1.0,0.0,0.0,0.0,1.0,4.51219558716,-4.63414621353,-1.70731711388,1.0,0.0,0.0,0.0,1.0,0.0,0.0,0.0,1.0,-5.64073911133,-10.2759135254,-11.5496288086,1.0,0.0,0.0,0.0,1.0,0.0,0.0,0.0,1.0
1463077463685193778,732,1463077463682736598,,19.2223701477,-22.8039569855,-60.6275253296,0.00998399965465,1.0,0.0,0.0,0.0,1.0,0.0,0.0,0.0,1.0,7.43902492523,4.32926845551,4.14634132385,1.0,0.0,0.0,0.0,1.0,0.0,0.0,0.0,1.0,-7.0006456543,-2.48039291992,-4.79798041921,1.0,0.0,0.0,0.0,1.0,0.0,0.0,0.0,1.0
1463077463694717445,733,1463077463692706149,,19.3978004456,-22.9148330688,-60.6336860657,0.00993600022048,1.0,0.0,0.0,0.0,1.0,0.0,0.0,0.0,1.0,8.35365867615,-4.39024400711,3.71951246262,1.0,0.0,0.0,0.0,1.0,0.0,0.0,0.0,1.0,-4.09887324219,-3.72058937988,-6.51701691895,1.0,0.0,0.0,0.0,1.0,0.0,0.0,0.0,1.0
1463077463704523923,734,1463077463702719919,,19.6509780884,-23.1068115234,-60.756652832,0.00995799992234,1.0,0.0,0.0,0.0,1.0,0.0,0.0,0.0,1.0,-1.2195122242,0.18292683363,-3.53658556938,1.0,0.0,0.0,0.0,1.0,0.0,0.0,0.0,1.0,-8.82502731934,-7.80509741211,-6.0573302002,1.0,0.0,0.0,0.0,1.0,0.0,0.0,0.0,1.0
1463077463715139045,735,1463077463712739730,,19.4005355835,-23.0915756226,-60.7044944763,0.0100419996306,1.0,0.0,0.0,0.0,1.0,0.0,0.0,0.0,1.0,-5.79268312454,0.304878056049,-4.14634132385,1.0,0.0,0.0,0.0,1.0,0.0,0.0,0.0,1.0,-4.19942941965,0.363918652344,-10.3429511719,1.0,0.0,0.0,0.0,1.0,0.0,0.0,0.0,1.0
1463077463724689014,736,1463077463722621625,,19.373418808,-22.6922016144,-60.6423873901,0.00990399997681,1.0,0.0,0.0,0.0,1.0,0.0,0.0,0.0,1.0,4.81707286835,3.59756112099,1.34146344662,1.0,0.0,0.0,0.0,1.0,0.0,0.0,0.0,1.0,3.75410820312,-2.51870014648,-11.2192289795,1.0,0.0,0.0,0.0,1.0,0.0,0.0,0.0,1.0
1463077463735771842,737,1463077463733265653,,19.3402786255,-22.972618103,-60.61743927,0.0107079995796,1.0,0.0,0.0,0.0,1.0,0.0,0.0,0.0,1.0,2.92682933807,-3.35365867615,-0.18292683363,1.0,0.0,0.0,0.0,1.0,0.0,0.0,0.0,1.0,-7.43639035645,-1.20667770978,-6.87614716797,1.0,0.0,0.0,0.0,1.0,0.0,0.0,0.0,1.0
1463077463745406030,738,1463077463742625831,,19.5472049713,-22.9798870087,-60.6410369873,0.00925699993968,1.0,0.0,0.0,0.0,1.0,0.0,0.0,0.0,1.0,7.56097555161,1.34146344662,2.01219511032,1.0,0.0,0.0,0.0,1.0,0.0,0.0,0.0,1.0,-4.98472785645,-6.50265170898,-9.18894597168,1.0,0.0,0.0,0.0,1.0,0.0,0.0,0.0,1.0
1463077463755365164,739,1463077463752750016,,19.6996192932,-23.5045032501,-60.702671051,0.0101309996098,1.0,0.0,0.0,0.0,1.0,0.0,0.0,0.0,1.0,-4.69512224197,-0.914634168148,0.914634168148,1.0,0.0,0.0,0.0,1.0,0.0,0.0,0.0,1.0,-7.92959589844,-2.31279880371,1.41257897949,1.0,0.0,0.0,0.0,1.0,0.0,0.0,0.0,1.0
1463077463765815859,740,1463077463762648109,,19.4574756622,-23.0364246368,-60.6697921753,0.00996599998325,1.0,0.0,0.0,0.0,1.0,0.0,0.0,0.0,1.0,-0.548780500889,2.98780488968,-9.39024448395,1.0,0.0,0.0,0.0,1.0,0.0,0.0,0.0,1.0,4.73094218821,1.67594116211,-9.32302068013,1.0,0.0,0.0,0.0,1.0,0.0,0.0,0.0,1.0
1463077463775947753,741,1463077463772758805,,19.3675804138,-22.9226226807,-60.6473464966,0.010045000352,1.0,0.0,0.0,0.0,1.0,0.0,0.0,0.0,1.0,5.06097555161,-2.86585378647,-4.02439022064,1.0,0.0,0.0,0.0,1.0,0.0,0.0,0.0,1.0,-2.25054956055,-0.895431420898,-13.3452800537,1.0,0.0,0.0,0.0,1.0,0.0,0.0,0.0,1.0
1463077463785359181,742,1463077463782609919,,19.5319080353,-23.1134319305,-60.6826515198,0.00994000025094,1.0,0.0,0.0,0.0,1.0,0.0,0.0,0.0,1.0,4.45121955872,-3.59756112099,1.34146344662,1.0,0.0,0.0,0.0,1.0,0.0,0.0,0.0,1.0,-6.65588061523,-4.63038601074,-7.00543405762,1.0,0.0,0.0,0.0,1.0,0.0,0.0,0.0,1.0
1463077463795537950,743,1463077463792690407,,19.2788410187,-23.6299686432,-60.5363235474,0.010037000291,1.0,0.0,0.0,0.0,1.0,0.0,0.0,0.0,1.0,-1.34146344662,0.304878056049,4.2682929039,1.0,0.0,0.0,0.0,1.0,0.0,0.0,0.0,1.0,-10.0173397461,4.0557776123,-0.3064578125,1.0,0.0,0.0,0.0,1.0,0.0,0.0,0.0,1.0
1463077463810384777,744,1463077463802972665,,19.2083778381,-23.2461662292,-60.5744895935,0.0102789998055,1.0,0.0,0.0,0.0,1.0,0.0,0.0,0.0,1.0,-4.08536577225,2.07317066193,-7.50000047684,1.0,0.0,0.0,0.0,1.0,0.0,0.0,0.0,1.0,3.1364041748,-3.57693728027,-14.7003981934,1.0,0.0,0.0,0.0,1.0,0.0,0.0,0.0,1.0
1463077463816406007,745,1463077463813101799,,18.8828659058,-23.3886928558,-60.4333953857,0.00961500033736,1.0,0.0,0.0,0.0,1.0,0.0,0.0,0.0,1.0,1.15853655338,-4.93902444839,1.2195122242,1.0,0.0,0.0,0.0,1.0,0.0,0.0,0.0,1.0,-3.84508786621,2.61925661621,-6.56011254883,1.0,0.0,0.0,0.0,1.0,0.0,0.0,0.0,1.0
1463077463825371186,746,1463077463822695778,,18.8915328979,-23.7280464172,-60.3768119812,0.0100959995762,1.0,0.0,0.0,0.0,1.0,0.0,0.0,0.0,1.0,5.0,-1.2195122242,3.59756112099,1.0,0.0,0.0,0.0,1.0,0.0,0.0,0.0,1.0,-8.74841286621,-1.31681091309,-5.4922986084,1.0,0.0,0.0,0.0,1.0,0.0,0.0,0.0,1.0
1463077463835591934,747,1463077463832658402,,18.9949455261,-23.9246139526,-60.3480529785,0.0100029995665,1.0,0.0,0.0,0.0,1.0,0.0,0.0,0.0,1.0,7.62195110321,-1.8292683363,3.90243911743,1.0,0.0,0.0,0.0,1.0,0.0,0.0,0.0,1.0,-10.2759135254,-4.70221176829,-10.8026378906,1.0,0.0,0.0,0.0,1.0,0.0,0.0,0.0,1.0
1463077463845514246,748,1463077463842577016,,18.6517562866,-23.6434879303,-60.2745323181,0.00995600037277,1.0,0.0,0.0,0.0,1.0,0.0,0.0,0.0,1.0,-11.4634151459,4.20731735229,-4.93902444839,1.0,0.0,0.0,0.0,1.0,0.0,0.0,0.0,1.0,0.277727392578,0.885854614258,-10.9462899902,1.0,0.0,0.0,0.0,1.0,0.0,0.0,0.0,1.0
1463077463854637706,749,1463077463852676931,,18.372844696,-23.7676315308,-60.1350250244,0.0100199999288,1.0,0.0,0.0,0.0,1.0,0.0,0.0,0.0,1.0,3.29268312454,-5.0,1.8902438879,1.0,0.0,0.0,0.0,1.0,0.0,0.0,0.0,1.0,-5.7987564209,3.10767375488,-10.7260234375,1.0,0.0,0.0,0.0,1.0,0.0,0.0,0.0,1.0
1463077463865940169,750,1463077463862621794,,18.6543102264,-23.9253177643,-60.1341133118,0.0100170001388,1.0,0.0,0.0,0.0,1.0,0.0,0.0,0.0,1.0,11.7682924271,1.64634156227,5.91463422775,1.0,0.0,0.0,0.0,1.0,0.0,0.0,0.0,1.0,-6.22492431641,-5.14753356934,-5.91367810059,1.0,0.0,0.0,0.0,1.0,0.0,0.0,0.0,1.0
1463077463876060657,751,1463077463873133271,,18.9536113739,-23.8121261597,-60.2514915466,0.010435000062,1.0,0.0,0.0,0.0,1.0,0.0,0.0,0.0,1.0,0.18292683363,0.0609756112099,-0.853658556938,1.0,0.0,0.0,0.0,1.0,0.0,0.0,0.0,1.0,-2.26491477051,-8.3749168227,-8.12592043457,1.0,0.0,0.0,0.0,1.0,0.0,0.0,0.0,1.0
1463077463885573699,752,1463077463882620896,,18.6703300476,-23.6374168396,-60.1210479736,0.00956199970096,1.0,0.0,0.0,0.0,1.0,0.0,0.0,0.0,1.0,-2.98780488968,0.609756112099,1.8292683363,1.0,0.0,0.0,0.0,1.0,0.0,0.0,0.0,1.0,-0.727837304687,1.45088620605,-13.7475059326,1.0,0.0,0.0,0.0,1.0,0.0,0.0,0.0,1.0
1463077463895490021,753,1463077463892750655,,18.7555103302,-23.4865779877,-60.0922012329,0.0100729996338,1.0,0.0,0.0,0.0,1.0,0.0,0.0,0.0,1.0,4.63414621353,3.35365867615,2.68292689323,1.0,0.0,0.0,0.0,1.0,0.0,0.0,0.0,1.0,-2.56179577637,-5.27203205566,-12.138602417,1.0,0.0,0.0,0.0,1.0,0.0,0.0,0.0,1.0
1463077463905367280,754,1463077463902654737,,19.1137695312,-23.4747409821,-60.1798782349,0.00986700039357,1.0,0.0,0.0,0.0,1.0,0.0,0.0,0.0,1.0,1.52439022064,0.18292683363,4.51219558716,1.0,0.0,0.0,0.0,1.0,0.0,0.0,0.0,1.0,-1.47482822266,-4.10366164551,-2.7102362793,1.0,0.0,0.0,0.0,1.0,0.0,0.0,0.0,1.0
1463077463916207245,755,1463077463912723298,,18.947385788,-23.3239841461,-60.0778808594,0.0100769996643,1.0,0.0,0.0,0.0,1.0,0.0,0.0,0.0,1.0,-5.73170757294,4.81707286835,3.7804877758,1.0,0.0,0.0,0.0,1.0,0.0,0.0,0.0,1.0,-2.74854350586,-2.46602770996,-13.0771294678,1.0,0.0,0.0,0.0,1.0,0.0,0.0,0.0,1.0
1463077463925806589,756,1463077463922814203,,18.6600875854,-23.2804355621,-59.9731750488,0.0101479999721,1.0,0.0,0.0,0.0,1.0,0.0,0.0,0.0,1.0,-5.97560977936,0.304878056049,0.243902444839,1.0,0.0,0.0,0.0,1.0,0.0,0.0,0.0,1.0,-4.82192243582,0.943315454102,-14.9541835693,1.0,0.0,0.0,0.0,1.0,0.0,0.0,0.0,1.0
1463077463935594317,757,1463077463932733545,,19.1464118958,-23.3212032318,-60.108997345,0.00984899979085,1.0,0.0,0.0,0.0,1.0,0.0,0.0,0.0,1.0,9.02439117432,-0.853658556938,1.64634156227,1.0,0.0,0.0,0.0,1.0,0.0,0.0,0.0,1.0,-3.84508786621,-9.22725319824,-4.683058155,1.0,0.0,0.0,0.0,1.0,0.0,0.0,0.0,1.0
1463077463944369966,758,1463077463942569659,,18.8167304993,-23.6170787811,-59.9724082947,0.00988100003451,1.0,0.0,0.0,0.0,1.0,0.0,0.0,0.0,1.0,-2.31707310677,-1.8902438879,0.853658556938,1.0,0.0,0.0,0.0,1.0,0.0,0.0,0.0,1.0,-4.07971962891,1.82917006836,-3.28484467773,1.0,0.0,0.0,0.0,1.0,0.0,0.0,0.0,1.0
1463077463955700450,759,1463077463952733064,,18.5782852173,-23.330827713,-59.884098053,0.0101140001789,1.0,0.0,0.0,0.0,1.0,0.0,0.0,0.0,1.0,-2.74390244484,2.5,-1.64634156227,1.0,0.0,0.0,0.0,1.0,0.0,0.0,0.0,1.0,0.799663354492,0.296881024126,-10.6398321777,1.0,0.0,0.0,0.0,1.0,0.0,0.0,0.0,1.0
1463077463965713386,760,1463077463962559021,,18.7875881195,-23.4305953979,-59.9098701477,0.0099060004577,1.0,0.0,0.0,0.0,1.0,0.0,0.0,0.0,1.0,10.6707315445,-0.975609779358,0.853658556938,1.0,0.0,0.0,0.0,1.0,0.0,0.0,0.0,1.0,-5.74608398437,-4.5489831543,-7.88171186523,1.0,0.0,0.0,0.0,1.0,0.0,0.0,0.0,1.0
1463077463975826739,761,1463077463972856644,,18.9190177917,-23.2349224091,-59.8771209717,0.0102270003408,1.0,0.0,0.0,0.0,1.0,0.0,0.0,0.0,1.0,1.8292683363,0.0609756112099,7.50000047684,1.0,0.0,0.0,0.0,1.0,0.0,0.0,0.0,1.0,-0.138863696289,-5.15232197266,-8.34618640278,1.0,0.0,0.0,0.0,1.0,0.0,0.0,0.0,1.0
1463077463985739310,762,1463077463982647341,,18.7973213196,-22.8760795593,-59.8248291016,0.00987700000405,1.0,0.0,0.0,0.0,1.0,0.0,0.0,0.0,1.0,-3.53658556938,4.08536577225,-0.487804889679,1.0,0.0,0.0,0.0,1.0,0.0,0.0,0.0,1.0,3.61045610352,-3.26569106445,-17.5111909424,1.0,0.0,0.0,0.0,1.0,0.0,0.0,0.0,1.0
1463077463996068443,763,1463077463992766267,,18.9088363647,-22.8392410278,-59.8733329773,0.0100750001147,1.0,0.0,0.0,0.0,1.0,0.0,0.0,0.0,1.0,6.09756088257,1.2804877758,-5.0,1.0,0.0,0.0,0.0,1.0,0.0,0.0,0.0,1.0,-5.88494768066,-5.28639726562,-13.3261264404,1.0,0.0,0.0,0.0,1.0,0.0,0.0,0.0,1.0
1463077464004638780,764,1463077464002719359,,19.2155971527,-22.5943717957,-59.9039840698,0.00986499991268,1.0,0.0,0.0,0.0,1.0,0.0,0.0,0.0,1.0,11.1585359573,1.8292683363,3.47560977936,1.0,0.0,0.0,0.0,1.0,0.0,0.0,0.0,1.0,0.972045874023,-9.5193463853,-11.6789156982,1.0,0.0,0.0,0.0,1.0,0.0,0.0,0.0,1.0
1463077464015978431,765,1463077464012724900,,18.9262466431,-22.4904499054,-59.8402748108,0.010053999722,1.0,0.0,0.0,0.0,1.0,0.0,0.0,0.0,1.0,-7.31707334518,2.37804889679,-4.32926845551,1.0,0.0,0.0,0.0,1.0,0.0,0.0,0.0,1.0,-3.07894333496,0.785298144531,-11.9518546875,1.0,0.0,0.0,0.0,1.0,0.0,0.0,0.0,1.0
1463077464025426056,766,1463077464022590701,,18.5854187012,-22.6682682037,-59.6989097595,0.00992199964821,1.0,0.0,0.0,0.0,1.0,0.0,0.0,0.0,1.0,2.86585378647,-3.96341490746,-0.12195122242,1.0,0.0,0.0,0.0,1.0,0.0,0.0,0.0,1.0,-5.22893642578,3.99352836914,-7.60877287598,1.0,0.0,0.0,0.0,1.0,0.0,0.0,0.0,1.0
1463077464035589200,767,1463077464032631293,,18.6532649994,-22.5164527893,-59.654460907,0.00999699998647,1.0,0.0,0.0,0.0,1.0,0.0,0.0,0.0,1.0,3.96341490746,0.12195122242,5.06097555161,1.0,0.0,0.0,0.0,1.0,0.0,0.0,0.0,1.0,-1.83395847168,-6.99585725098,-16.6349119657,1.0,0.0,0.0,0.0,1.0,0.0,0.0,0.0,1.0
