%time,field.header.seq,field.header.stamp,field.header.frame_id,field.orientation.x,field.orientation.y,field.orientation.z,field.orientation.w,field.orientation_covariance0,field.orientation_covariance1,field.orientation_covariance2,field.orientation_covariance3,field.orientation_covariance4,field.orientation_covariance5,field.orientation_covariance6,field.orientation_covariance7,field.orientation_covariance8,field.angular_velocity.x,field.angular_velocity.y,field.angular_velocity.z,field.angular_velocity_covariance0,field.angular_velocity_covariance1,field.angular_velocity_covariance2,field.angular_velocity_covariance3,field.angular_velocity_covariance4,field.angular_velocity_covariance5,field.angular_velocity_covariance6,field.angular_velocity_covariance7,field.angular_velocity_covariance8,field.linear_acceleration.x,field.linear_acceleration.y,field.linear_acceleration.z,field.linear_acceleration_covariance0,field.linear_acceleration_covariance1,field.linear_acceleration_covariance2,field.linear_acceleration_covariance3,field.linear_acceleration_covariance4,field.linear_acceleration_covariance5,field.linear_acceleration_covariance6,field.linear_acceleration_covariance7,field.linear_acceleration_covariance8
1463504683530238525,497,1463504683522871113,,-8.71799373627,-5.853703022,111.942855835,0.0100769996643,1.0,0.0,0.0,0.0,1.0,0.0,0.0,0.0,1.0,-7.25609779358,12.3170728683,8.84146404266,1.0,0.0,0.0,0.0,1.0,0.0,0.0,0.0,1.0,-1.8866309082,0.234631762695,-10.1418382324,1.0,0.0,0.0,0.0,1.0,0.0,0.0,0.0,1.0
1463504683535789876,498,1463504683533404082,,-8.7835226059,-5.7592921257,111.861694336,0.0101049998775,1.0,0.0,0.0,0.0,1.0,0.0,0.0,0.0,1.0,-5.97560977936,11.7682924271,6.95121955872,1.0,0.0,0.0,0.0,1.0,0.0,0.0,0.0,1.0,-1.73819040527,0.119710083008,-10.1562034424,1.0,0.0,0.0,0.0,1.0,0.0,0.0,0.0,1.0
1463504683545291910,499,1463504683542898929,,-8.8382024765,-5.66937828064,111.763923645,0.0100739998743,1.0,0.0,0.0,0.0,1.0,0.0,0.0,0.0,1.0,-5.06097555161,11.5853662491,5.24390268326,1.0,0.0,0.0,0.0,1.0,0.0,0.0,0.0,1.0,-1.71424838867,0.134075302102,-10.1514150391,1.0,0.0,0.0,0.0,1.0,0.0,0.0,0.0,1.0
1463504683555659531,500,1463504683553371852,,-8.87020874023,-5.58645772934,111.637496948,0.0101009998471,1.0,0.0,0.0,0.0,1.0,0.0,0.0,0.0,1.0,-3.23170733452,11.2195119858,2.37804889679,1.0,0.0,0.0,0.0,1.0,0.0,0.0,0.0,1.0,-1.64242233887,0.110133276367,-9.92157167969,1.0,0.0,0.0,0.0,1.0,0.0,0.0,0.0,1.0
1463504683567673180,501,1463504683563744108,,-8.88736724854,-5.51528596878,111.498924255,0.0101159997284,1.0,0.0,0.0,0.0,1.0,0.0,0.0,0.0,1.0,-2.56097555161,9.81707286835,1.03658533096,1.0,0.0,0.0,0.0,1.0,0.0,0.0,0.0,1.0,-1.52750065918,-0.00957680664062,-9.77791958008,1.0,0.0,0.0,0.0,1.0,0.0,0.0,0.0,1.0
1463504683578409044,502,1463504683574592305,,-8.90786457062,-5.44600820541,111.35798645,0.0103320004418,1.0,0.0,0.0,0.0,1.0,0.0,0.0,0.0,1.0,-4.32926845551,8.96341514587,1.09756100178,1.0,0.0,0.0,0.0,1.0,0.0,0.0,0.0,1.0,-1.40300217285,-0.268150604204,-9.64863327495,1.0,0.0,0.0,0.0,1.0,0.0,0.0,0.0,1.0
1463504683587907901,503,1463504683583819003,,-8.96356964111,-5.3812084198,111.225463867,0.00984400045127,1.0,0.0,0.0,0.0,1.0,0.0,0.0,0.0,1.0,-6.28048801422,8.5365858078,1.03658533096,1.0,0.0,0.0,0.0,1.0,0.0,0.0,0.0,1.0,-1.32638771973,0.0335188255255,-9.54807680523,1.0,0.0,0.0,0.0,1.0,0.0,0.0,0.0,1.0
1463504683595862700,504,1463504683593396550,,-9.03283500671,-5.32586669922,111.091941833,0.0101239997894,1.0,0.0,0.0,0.0,1.0,0.0,0.0,0.0,1.0,-6.95121955872,6.70731735229,0.975609779358,1.0,0.0,0.0,0.0,1.0,0.0,0.0,0.0,1.0,-1.1540052002,0.124498486328,-9.22725319824,1.0,0.0,0.0,0.0,1.0,0.0,0.0,0.0,1.0
1463504683606479150,505,1463504683603744903,,-9.11697006226,-5.28569555283,110.95413208,0.0100840004161,1.0,0.0,0.0,0.0,1.0,0.0,0.0,0.0,1.0,-7.13414621353,5.18292713165,0.12195122242,1.0,0.0,0.0,0.0,1.0,0.0,0.0,0.0,1.0,-1.09654436035,0.354341845703,-9.03571706543,1.0,0.0,0.0,0.0,1.0,0.0,0.0,0.0,1.0
1463504683615718816,506,1463504683613708035,,-9.18295860291,-5.26330852509,110.80317688,0.0101439999416,1.0,0.0,0.0,0.0,1.0,0.0,0.0,0.0,1.0,-5.54878091812,2.43902444839,-1.52439022064,1.0,0.0,0.0,0.0,1.0,0.0,0.0,0.0,1.0,-0.866701000977,0.335188232422,-8.75320126953,1.0,0.0,0.0,0.0,1.0,0.0,0.0,0.0,1.0
1463504683626388072,507,1463504683624134556,,-9.2282409668,-5.26129055023,110.651725769,0.0100579997525,1.0,0.0,0.0,0.0,1.0,0.0,0.0,0.0,1.0,-5.42682933807,-0.914634168148,-2.07317066193,1.0,0.0,0.0,0.0,1.0,0.0,0.0,0.0,1.0,-0.627280834961,0.0526724365234,-8.57124252788,1.0,0.0,0.0,0.0,1.0,0.0,0.0,0.0,1.0
1463504683644110139,508,1463504683634073472,,-9.26789093018,-5.28212499619,110.50289917,0.010106000118,1.0,0.0,0.0,0.0,1.0,0.0,0.0,0.0,1.0,-4.08536577225,-4.02439022064,-2.31707310677,1.0,0.0,0.0,0.0,1.0,0.0,0.0,0.0,1.0,-0.507570751953,0.177170922852,-8.71968244629,1.0,0.0,0.0,0.0,1.0,0.0,0.0,0.0,1.0
1463504683650331993,509,1463504683647097380,,-9.31098937988,-5.35584831238,110.357475281,0.0101380003616,1.0,0.0,0.0,0.0,1.0,0.0,0.0,0.0,1.0,-5.67073154449,-8.23170757294,-2.5,1.0,0.0,0.0,0.0,1.0,0.0,0.0,0.0,1.0,-0.689530078125,-0.0191536132812,-9.03092866211,1.0,0.0,0.0,0.0,1.0,0.0,0.0,0.0,1.0
1463504683671651081,510,1463504683668609574,,-9.42655467987,-5.60457086563,110.154220581,0.0173480007797,1.0,0.0,0.0,0.0,1.0,0.0,0.0,0.0,1.0,-4.32926845551,-15.1829271317,-1.34146344662,1.0,0.0,0.0,0.0,1.0,0.0,0.0,0.0,1.0,-0.818816967773,0.593762048251,-9.59117243511,1.0,0.0,0.0,0.0,1.0,0.0,0.0,0.0,1.0
1463504683676094213,511,1463504683671222167,,-9.47399806976,-5.76778507233,110.043426514,0.00990699976683,1.0,0.0,0.0,0.0,1.0,0.0,0.0,0.0,1.0,-2.98780488968,-16.5853652954,-0.975609779358,1.0,0.0,0.0,0.0,1.0,0.0,0.0,0.0,1.0,-0.995987890625,0.517147558594,-9.58638403179,1.0,0.0,0.0,0.0,1.0,0.0,0.0,0.0,1.0
1463504683680934440,512,1463504683678257739,,-9.48677825928,-5.84417390823,109.996307373,0.00424499996006,1.0,0.0,0.0,0.0,1.0,0.0,0.0,0.0,1.0,-1.58536589146,-17.3780498505,-0.975609779358,1.0,0.0,0.0,0.0,1.0,0.0,0.0,0.0,1.0,-1.13485158691,0.45489831543,-9.47146118306,1.0,0.0,0.0,0.0,1.0,0.0,0.0,0.0,1.0
1463504683687231911,513,1463504683684815235,,-9.50230503082,-6.0071849823,109.912658691,0.00886700022966,1.0,0.0,0.0,0.0,1.0,0.0,0.0,0.0,1.0,0.548780500889,-18.2317085266,0.487804889679,1.0,0.0,0.0,0.0,1.0,0.0,0.0,0.0,1.0,-1.11090957031,0.579396801758,-9.44751916645,1.0,0.0,0.0,0.0,1.0,0.0,0.0,0.0,1.0
1463504683698085680,514,1463504683695420592,,-9.50370025635,-6.21754646301,109.842918396,0.0102530000731,1.0,0.0,0.0,0.0,1.0,0.0,0.0,0.0,1.0,3.04878044128,-19.5121955872,2.86585378647,1.0,0.0,0.0,0.0,1.0,0.0,0.0,0.0,1.0,-1.33117612305,0.675164868164,-9.27992563477,1.0,0.0,0.0,0.0,1.0,0.0,0.0,0.0,1.0
1463504683708202963,515,1463504683704720824,,-9.46341991425,-6.42431640625,109.791786194,0.0099419998005,1.0,0.0,0.0,0.0,1.0,0.0,0.0,0.0,1.0,6.46341466904,-21.158536911,4.39024400711,1.0,0.0,0.0,0.0,1.0,0.0,0.0,0.0,1.0,-1.14921679688,0.507570751953,-9.03092866211,1.0,0.0,0.0,0.0,1.0,0.0,0.0,0.0,1.0
1463504683718728953,516,1463504683715156668,,-9.39652729034,-6.63796949387,109.765472412,0.0101100001484,1.0,0.0,0.0,0.0,1.0,0.0,0.0,0.0,1.0,10.0,-23.0487823486,6.58536624908,1.0,0.0,0.0,0.0,1.0,0.0,0.0,0.0,1.0,-0.967257470703,0.598550451572,-8.76756647949,1.0,0.0,0.0,0.0,1.0,0.0,0.0,0.0,1.0
1463504683731772599,517,1463504683724771190,,-9.30037403107,-6.87305450439,109.76084137,0.0101079996675,1.0,0.0,0.0,0.0,1.0,0.0,0.0,0.0,1.0,15.9146347046,-24.4512195587,8.23170757294,1.0,0.0,0.0,0.0,1.0,0.0,0.0,0.0,1.0,-1.24498486328,1.09175595703,-9.33738589009,1.0,0.0,0.0,0.0,1.0,0.0,0.0,0.0,1.0
1463504683737807389,518,1463504683735317283,,-9.13722705841,-7.13430452347,109.761253357,0.0102589996532,1.0,0.0,0.0,0.0,1.0,0.0,0.0,0.0,1.0,19.3292694092,-27.1951236725,8.71951198578,1.0,0.0,0.0,0.0,1.0,0.0,0.0,0.0,1.0,-1.1875240965,0.555454785156,-9.2176763916,1.0,0.0,0.0,0.0,1.0,0.0,0.0,0.0,1.0
1463504683748252658,519,1463504683746077467,,-8.9560918808,-7.41518449783,109.778915405,0.0108850002289,1.0,0.0,0.0,0.0,1.0,0.0,0.0,0.0,1.0,21.2804889679,-27.8048782349,10.1829271317,1.0,0.0,0.0,0.0,1.0,0.0,0.0,0.0,1.0,-1.25935007324,0.713472094727,-9.45230756977,1.0,0.0,0.0,0.0,1.0,0.0,0.0,0.0,1.0
1463504683757866452,520,1463504683755660118,,-8.7808637619,-7.65849494934,109.806251526,0.00930400006473,1.0,0.0,0.0,0.0,1.0,0.0,0.0,0.0,1.0,22.3170719147,-29.0243911743,11.5853662491,1.0,0.0,0.0,0.0,1.0,0.0,0.0,0.0,1.0,-1.19231249982,0.45489831543,-9.4570959731,1.0,0.0,0.0,0.0,1.0,0.0,0.0,0.0,1.0
1463504683775768811,521,1463504683765464517,,-8.59559249878,-7.93586540222,109.84790802,0.00998099986464,1.0,0.0,0.0,0.0,1.0,0.0,0.0,0.0,1.0,23.3536586761,-31.2195129395,12.4390249252,1.0,0.0,0.0,0.0,1.0,0.0,0.0,0.0,1.0,-1.20188930646,0.636857641602,-9.73961235352,1.0,0.0,0.0,0.0,1.0,0.0,0.0,0.0,1.0
1463504683779294800,522,1463504683775596486,,-8.36538410187,-8.22840976715,109.881347656,0.0100959995762,1.0,0.0,0.0,0.0,1.0,0.0,0.0,0.0,1.0,24.817073822,-32.9268302917,11.8292684555,1.0,0.0,0.0,0.0,1.0,0.0,0.0,0.0,1.0,-1.13963999023,0.134075302102,-9.78749638672,1.0,0.0,0.0,0.0,1.0,0.0,0.0,0.0,1.0
1463504683790688669,523,1463504683785853754,,-8.14334201813,-8.54647350311,109.905349731,0.0100849997252,1.0,0.0,0.0,0.0,1.0,0.0,0.0,0.0,1.0,25.0609760284,-34.8780479431,10.6097564697,1.0,0.0,0.0,0.0,1.0,0.0,0.0,0.0,1.0,-1.27850368652,0.296881024126,-9.84016882324,1.0,0.0,0.0,0.0,1.0,0.0,0.0,0.0,1.0
1463504683813902873,524,1463504683795724969,,-7.91309309006,-8.89330101013,109.931900024,0.0100969998166,1.0,0.0,0.0,0.0,1.0,0.0,0.0,0.0,1.0,25.0609760284,-36.5853652954,10.9146347046,1.0,0.0,0.0,0.0,1.0,0.0,0.0,0.0,1.0,-1.5083470459,0.100556469727,-9.66778688823,1.0,0.0,0.0,0.0,1.0,0.0,0.0,0.0,1.0
1463504683814196748,525,1463504683805767363,,-7.69653844833,-9.22780513763,109.967712402,0.010258000344,1.0,0.0,0.0,0.0,1.0,0.0,0.0,0.0,1.0,22.0731716156,-37.7439041138,12.0121955872,1.0,0.0,0.0,0.0,1.0,0.0,0.0,0.0,1.0,-1.08696755371,-0.186747729492,-9.69651672363,1.0,0.0,0.0,0.0,1.0,0.0,0.0,0.0,1.0
1463504683831592025,526,1463504683815899124,,-7.51175355911,-9.57256603241,110.014907837,0.00992299988866,1.0,0.0,0.0,0.0,1.0,0.0,0.0,0.0,1.0,18.3536586761,-39.7560997009,13.4146347046,1.0,0.0,0.0,0.0,1.0,0.0,0.0,0.0,1.0,-1.1875240965,-0.483628735352,-9.65821008159,1.0,0.0,0.0,0.0,1.0,0.0,0.0,0.0,1.0
1463504683831879756,527,1463504683826189878,,-7.38822031021,-9.94713306427,110.076797485,0.0101460004225,1.0,0.0,0.0,0.0,1.0,0.0,0.0,0.0,1.0,13.9024391174,-41.8902435303,14.3292694092,1.0,0.0,0.0,0.0,1.0,0.0,0.0,0.0,1.0,-1.28329208984,-0.210689746094,-9.67257470703,1.0,0.0,0.0,0.0,1.0,0.0,0.0,0.0,1.0
1463504683839315026,528,1463504683836823357,,-7.30565929413,-10.3485946655,110.148551941,0.0102159995586,1.0,0.0,0.0,0.0,1.0,0.0,0.0,0.0,1.0,11.341463089,-43.8414649963,14.8780498505,1.0,0.0,0.0,0.0,1.0,0.0,0.0,0.0,1.0,-1.47003981934,0.0,-9.86889924316,1.0,0.0,0.0,0.0,1.0,0.0,0.0,0.0,1.0
1463504683850193740,529,1463504683847850233,,-7.23553085327,-10.8372936249,110.235031128,0.0119500001892,1.0,0.0,0.0,0.0,1.0,0.0,0.0,0.0,1.0,10.548781395,-44.817073822,14.8170728683,1.0,0.0,0.0,0.0,1.0,0.0,0.0,0.0,1.0,-1.68551796875,0.225054956055,-10.046070166,1.0,0.0,0.0,0.0,1.0,0.0,0.0,0.0,1.0
1463504683894533615,530,1463504683856825030,,-7.1753320694,-11.2000398636,110.296913147,0.00884599983692,1.0,0.0,0.0,0.0,1.0,0.0,0.0,0.0,1.0,10.7317075729,-45.3048782349,14.7560987473,1.0,0.0,0.0,0.0,1.0,0.0,0.0,0.0,1.0,-1.72382519531,0.0718260498047,-10.1897222656,1.0,0.0,0.0,0.0,1.0,0.0,0.0,0.0,1.0
1463504683894792598,531,1463504683867901901,,-7.12701940536,-11.5784111023,110.375282288,0.0093590002507,1.0,0.0,0.0,0.0,1.0,0.0,0.0,0.0,1.0,10.7926826477,-45.7317085266,15.8536596298,1.0,0.0,0.0,0.0,1.0,0.0,0.0,0.0,1.0,-1.63763393555,0.320823022461,-10.2040874756,1.0,0.0,0.0,0.0,1.0,0.0,0.0,0.0,1.0
1463504683895306139,532,1463504683877210362,,-7.05689334869,-11.9858036041,110.45552063,0.0100969998166,1.0,0.0,0.0,0.0,1.0,0.0,0.0,0.0,1.0,11.0975618362,-45.365852356,15.8536596298,1.0,0.0,0.0,0.0,1.0,0.0,0.0,0.0,1.0,-1.78128603516,0.0383072265625,-10.3812583984,1.0,0.0,0.0,0.0,1.0,0.0,0.0,0.0,1.0
1463504683896058561,533,1463504683886326498,,-6.99055576324,-12.4059534073,110.547355652,0.0101159997284,1.0,0.0,0.0,0.0,1.0,0.0,0.0,0.0,1.0,12.0121955872,-45.4268302917,16.8292694092,1.0,0.0,0.0,0.0,1.0,0.0,0.0,0.0,1.0,-2.10210891149,0.210689746094,-10.4099888184,1.0,0.0,0.0,0.0,1.0,0.0,0.0,0.0,1.0
1463504683905568198,534,1463504683896425606,,-6.91319704056,-12.807302475,110.635040283,0.0100819999352,1.0,0.0,0.0,0.0,1.0,0.0,0.0,0.0,1.0,13.2926826477,-43.7195129395,16.7073173523,1.0,0.0,0.0,0.0,1.0,0.0,0.0,0.0,1.0,-2.20745393066,0.234631762695,-10.5823713379,1.0,0.0,0.0,0.0,1.0,0.0,0.0,0.0,1.0
1463504683939787978,535,1463504683906461543,,-6.82022285461,-13.208521843,110.721824646,0.0101049998775,1.0,0.0,0.0,0.0,1.0,0.0,0.0,0.0,1.0,14.6341466904,-42.9878044128,16.8292694092,1.0,0.0,0.0,0.0,1.0,0.0,0.0,0.0,1.0,-2.3654710941,0.167594116211,-10.405200415,1.0,0.0,0.0,0.0,1.0,0.0,0.0,0.0,1.0
1463504683939869897,536,1463504683917931915,,-6.70843219757,-13.6211338043,110.807624817,0.0112690003589,1.0,0.0,0.0,0.0,1.0,0.0,0.0,0.0,1.0,15.6707315445,-40.0,16.2195110321,1.0,0.0,0.0,0.0,1.0,0.0,0.0,0.0,1.0,-2.4277204834,0.244208569336,-10.5105452881,1.0,0.0,0.0,0.0,1.0,0.0,0.0,0.0,1.0
1463504683939909945,537,1463504683926960873,,-6.59841251373,-13.9348211288,110.869003296,0.00919700041413,1.0,0.0,0.0,0.0,1.0,0.0,0.0,0.0,1.0,17.4390239716,-38.4146347046,15.6097564697,1.0,0.0,0.0,0.0,1.0,0.0,0.0,0.0,1.0,-2.37504819301,0.210689746094,-10.8170031006,1.0,0.0,0.0,0.0,1.0,0.0,0.0,0.0,1.0
1463504683939952180,538,1463504683936973479,,-6.46486139297,-14.2509288788,110.932701111,0.00992000009865,1.0,0.0,0.0,0.0,1.0,0.0,0.0,0.0,1.0,17.6829280853,-36.0975646973,16.0365848541,1.0,0.0,0.0,0.0,1.0,0.0,0.0,0.0,1.0,-2.4277204834,-0.0622492431641,-10.7260234375,1.0,0.0,0.0,0.0,1.0,0.0,0.0,0.0,1.0
1463504683961119774,539,1463504683947542746,,-6.33897352219,-14.5387792587,111.004814148,0.0100269997492,1.0,0.0,0.0,0.0,1.0,0.0,0.0,0.0,1.0,16.2804889679,-33.4146347046,17.3780498505,1.0,0.0,0.0,0.0,1.0,0.0,0.0,0.0,1.0,-2.37504819301,-0.229843359375,-10.553640918,1.0,0.0,0.0,0.0,1.0,0.0,0.0,0.0,1.0
1463504683961434689,540,1463504683957185391,,-6.23243427277,-14.7969932556,111.089897156,0.0100899999961,1.0,0.0,0.0,0.0,1.0,0.0,0.0,0.0,1.0,13.658536911,-30.3048782349,19.2682914734,1.0,0.0,0.0,0.0,1.0,0.0,0.0,0.0,1.0,-2.4756045166,-0.45489831543,-10.6350437744,1.0,0.0,0.0,0.0,1.0,0.0,0.0,0.0,1.0
1463504684003081771,541,1463504683967233306,,-6.15552377701,-15.0314016342,111.182952881,0.0101129999384,1.0,0.0,0.0,0.0,1.0,0.0,0.0,0.0,1.0,10.8536586761,-27.3780498505,20.4268302917,1.0,0.0,0.0,0.0,1.0,0.0,0.0,0.0,1.0,-2.63841022949,-0.497993945312,-10.6063133545,1.0,0.0,0.0,0.0,1.0,0.0,0.0,0.0,1.0
1463504684003391322,542,1463504683977330226,,-6.11345815659,-15.2352523804,111.287666321,0.0100870002061,1.0,0.0,0.0,0.0,1.0,0.0,0.0,0.0,1.0,7.43902492523,-23.4146347046,22.1341457367,1.0,0.0,0.0,0.0,1.0,0.0,0.0,0.0,1.0,-2.90656081543,-0.588973571866,-10.5919481445,1.0,0.0,0.0,0.0,1.0,0.0,0.0,0.0,1.0
1463504684003678115,543,1463504683993846949,,-6.09873104095,-15.4056272507,111.393363953,0.0101169999689,1.0,0.0,0.0,0.0,1.0,0.0,0.0,0.0,1.0,4.14634132385,-19.0853652954,22.8658542633,1.0,0.0,0.0,0.0,1.0,0.0,0.0,0.0,1.0,-3.16513459473,-0.742202514648,-10.6541973877,1.0,0.0,0.0,0.0,1.0,0.0,0.0,0.0,1.0
1463504684003974386,544,1463504683997600621,,-6.11145114899,-15.5253610611,111.493011475,0.0100800003856,1.0,0.0,0.0,0.0,1.0,0.0,0.0,0.0,1.0,1.03658533096,-14.3292694092,22.9268302917,1.0,0.0,0.0,0.0,1.0,0.0,0.0,0.0,1.0,-3.14598098145,-0.799663354492,-10.6398321777,1.0,0.0,0.0,0.0,1.0,0.0,0.0,0.0,1.0
1463504684021373353,545,1463504684007769354,,-6.16382455826,-15.6009931564,111.583007812,0.0101349996403,1.0,0.0,0.0,0.0,1.0,0.0,0.0,0.0,1.0,-0.609756112099,-9.02439117432,21.8292694092,1.0,0.0,0.0,0.0,1.0,0.0,0.0,0.0,1.0,-3.39018955078,-0.292092584273,-10.8074262939,1.0,0.0,0.0,0.0,1.0,0.0,0.0,0.0,1.0
1463504684021642439,546,1463504684017975477,,-6.2046546936,-15.6303462982,111.644302368,0.0100899999961,1.0,0.0,0.0,0.0,1.0,0.0,0.0,0.0,1.0,0.0609756112099,-4.08536577225,19.5731716156,1.0,0.0,0.0,0.0,1.0,0.0,0.0,0.0,1.0,-3.40455476074,-0.220266552734,-10.7212350342,1.0,0.0,0.0,0.0,1.0,0.0,0.0,0.0,1.0
1463504684031950219,547,1463504684027823514,,-6.2273774147,-15.6215276718,111.675102234,0.010106000118,1.0,0.0,0.0,0.0,1.0,0.0,0.0,0.0,1.0,1.95121955872,0.426829278469,16.8902435303,1.0,0.0,0.0,0.0,1.0,0.0,0.0,0.0,1.0,-3.53863005371,-0.0287304199219,-10.8313683105,1.0,0.0,0.0,0.0,1.0,0.0,0.0,0.0,1.0
1463504684042169362,548,1463504684037971935,,-6.21367168427,-15.5704345703,111.672363281,0.0100889997557,1.0,0.0,0.0,0.0,1.0,0.0,0.0,0.0,1.0,4.87804889679,5.73170757294,14.2073173523,1.0,0.0,0.0,0.0,1.0,0.0,0.0,0.0,1.0,-3.67749375,0.0143652099609,-10.7499654541,1.0,0.0,0.0,0.0,1.0,0.0,0.0,0.0,1.0
1463504684051976257,549,1463504684048156343,,-6.15289068222,-15.4652557373,111.631416321,0.0101129999384,1.0,0.0,0.0,0.0,1.0,0.0,0.0,0.0,1.0,7.19512224197,10.7317075729,11.4634151459,1.0,0.0,0.0,0.0,1.0,0.0,0.0,0.0,1.0,-3.50511123047,-0.258573779297,-10.7116582275,1.0,0.0,0.0,0.0,1.0,0.0,0.0,0.0,1.0
1463504684060946103,550,1463504684058082027,,-6.06626272202,-15.3036231995,111.556190491,0.0100959995762,1.0,0.0,0.0,0.0,1.0,0.0,0.0,0.0,1.0,8.04878044128,15.1219511032,8.84146404266,1.0,0.0,0.0,0.0,1.0,0.0,0.0,0.0,1.0,-3.22738383789,-0.435744702148,-10.9319247803,1.0,0.0,0.0,0.0,1.0,0.0,0.0,0.0,1.0
1463504684117729040,551,1463504684068420168,,-5.97185897827,-15.0945386887,111.4584198,0.0100959995762,1.0,0.0,0.0,0.0,1.0,0.0,0.0,0.0,1.0,8.10975551605,18.4146347046,7.01219511032,1.0,0.0,0.0,0.0,1.0,0.0,0.0,0.0,1.0,-2.83952316895,-0.46447512207,-10.8600987305,1.0,0.0,0.0,0.0,1.0,0.0,0.0,0.0,1.0
1463504684117798824,552,1463504684078560882,,-5.85749578476,-14.8557157516,111.337203979,0.010098000057,1.0,0.0,0.0,0.0,1.0,0.0,0.0,0.0,1.0,8.29268264771,20.5487823486,5.24390268326,1.0,0.0,0.0,0.0,1.0,0.0,0.0,0.0,1.0,-2.57616098633,-0.723048901367,-10.8074262939,1.0,0.0,0.0,0.0,1.0,0.0,0.0,0.0,1.0
1463504684118482555,553,1463504684088692014,,-5.75262594223,-14.5962629318,111.199729919,0.0101359998807,1.0,0.0,0.0,0.0,1.0,0.0,0.0,0.0,1.0,6.58536624908,21.5853652954,3.84146332741,1.0,0.0,0.0,0.0,1.0,0.0,0.0,0.0,1.0,-2.29843359375,-0.804451757813,-10.7164466309,1.0,0.0,0.0,0.0,1.0,0.0,0.0,0.0,1.0
1463504684119548121,554,1463504684098943550,,-5.66604614258,-14.3216199875,111.055183411,0.0100760003552,1.0,0.0,0.0,0.0,1.0,0.0,0.0,0.0,1.0,5.24390268326,21.8902435303,2.86585378647,1.0,0.0,0.0,0.0,1.0,0.0,0.0,0.0,1.0,-1.95366855469,-0.694318481445,-10.6350437744,1.0,0.0,0.0,0.0,1.0,0.0,0.0,0.0,1.0
1463504684119602491,555,1463504684110197742,,-5.58837366104,-14.0547838211,110.894226074,0.0100880004466,1.0,0.0,0.0,0.0,1.0,0.0,0.0,0.0,1.0,3.71951246262,20.0,1.09756100178,1.0,0.0,0.0,0.0,1.0,0.0,0.0,0.0,1.0,-1.64242233887,-0.751779321289,-10.5153336914,1.0,0.0,0.0,0.0,1.0,0.0,0.0,0.0,1.0
1463504684129139257,556,1463504684122509219,,-5.53438138962,-13.8023252487,110.727378845,0.0101269995794,1.0,0.0,0.0,0.0,1.0,0.0,0.0,0.0,1.0,1.46341466904,17.7439022064,0.243902444839,1.0,0.0,0.0,0.0,1.0,0.0,0.0,0.0,1.0,-1.39821376953,-0.703895288086,-10.1897222656,1.0,0.0,0.0,0.0,1.0,0.0,0.0,0.0,1.0
1463504684130969171,557,1463504684128682378,,-5.49091863632,-13.5696077347,110.556732178,0.0100800003856,1.0,0.0,0.0,0.0,1.0,0.0,0.0,0.0,1.0,0.365853667259,16.0365848541,-0.426829278469,1.0,0.0,0.0,0.0,1.0,0.0,0.0,0.0,1.0,-1.36948334961,-0.718260498047,-10.1897222656,1.0,0.0,0.0,0.0,1.0,0.0,0.0,0.0,1.0
1463504684184148160,558,1463504684138795542,,-5.46525287628,-13.3602972031,110.376327515,0.0101209999993,1.0,0.0,0.0,0.0,1.0,0.0,0.0,0.0,1.0,-1.2195122242,13.2926826477,-1.70731711388,1.0,0.0,0.0,0.0,1.0,0.0,0.0,0.0,1.0,-1.23540805664,-0.651222851562,-10.0795889893,1.0,0.0,0.0,0.0,1.0,0.0,0.0,0.0,1.0
1463504684184468074,559,1463504684149098115,,-5.4668879509,-13.183180809,110.193962097,0.0100910002366,1.0,0.0,0.0,0.0,1.0,0.0,0.0,0.0,1.0,-2.56097555161,10.1829271317,-2.62195134163,1.0,0.0,0.0,0.0,1.0,0.0,0.0,0.0,1.0,-1.20188930646,-0.402225878906,-10.1226846191,1.0,0.0,0.0,0.0,1.0,0.0,0.0,0.0,1.0
1463504684184517028,560,1463504684159016456,,-5.47495126724,-13.0496110916,110.000968933,0.0101159997284,1.0,0.0,0.0,0.0,1.0,0.0,0.0,0.0,1.0,-3.10975623131,7.37804937363,-3.96341490746,1.0,0.0,0.0,0.0,1.0,0.0,0.0,0.0,1.0,-1.40779057617,-0.349553442383,-9.95030209961,1.0,0.0,0.0,0.0,1.0,0.0,0.0,0.0,1.0
1463504684184569262,561,1463504684169390479,,-5.46566724777,-12.9472866058,109.792434692,0.0100929997861,1.0,0.0,0.0,0.0,1.0,0.0,0.0,0.0,1.0,-2.43902444839,4.81707286835,-5.60975599289,1.0,0.0,0.0,0.0,1.0,0.0,0.0,0.0,1.0,-1.41736738281,-0.474051928711,-9.7587659668,1.0,0.0,0.0,0.0,1.0,0.0,0.0,0.0,1.0
1463504684185071189,562,1463504684179680136,,-5.44590044022,-12.8667974472,109.565444946,0.0101169999689,1.0,0.0,0.0,0.0,1.0,0.0,0.0,0.0,1.0,-2.43902444839,2.37804889679,-7.43902492523,1.0,0.0,0.0,0.0,1.0,0.0,0.0,0.0,1.0,-1.34554133301,-0.603338854892,-9.91678327637,1.0,0.0,0.0,0.0,1.0,0.0,0.0,0.0,1.0
1463504684195228620,563,1463504684189448389,,-5.43140602112,-12.8101320267,109.337158203,0.0100760003552,1.0,0.0,0.0,0.0,1.0,0.0,0.0,0.0,1.0,-2.43902444839,-0.243902444839,-8.04878044128,1.0,0.0,0.0,0.0,1.0,0.0,0.0,0.0,1.0,-1.29286889648,-0.512359155273,-10.0508585693,1.0,0.0,0.0,0.0,1.0,0.0,0.0,0.0,1.0
1463504684214362563,564,1463504684199582020,,-5.4267039299,-12.76902771,109.109725952,0.0100999996066,1.0,0.0,0.0,0.0,1.0,0.0,0.0,0.0,1.0,-2.98780488968,-2.56097555161,-8.23170757294,1.0,0.0,0.0,0.0,1.0,0.0,0.0,0.0,1.0,-1.1540052002,-0.445321508789,-10.1178962158,1.0,0.0,0.0,0.0,1.0,0.0,0.0,0.0,1.0
1463504684214875114,565,1463504684209827255,,-5.42258167267,-12.7576999664,108.882194519,0.010108999908,1.0,0.0,0.0,0.0,1.0,0.0,0.0,0.0,1.0,-3.17073178291,-5.48780488968,-8.47560977936,1.0,0.0,0.0,0.0,1.0,0.0,0.0,0.0,1.0,-1.13006318359,-0.46447512207,-9.95509050293,1.0,0.0,0.0,0.0,1.0,0.0,0.0,0.0,1.0
1463504684232789966,566,1463504684219804652,,-5.41369628906,-12.7678594589,108.66116333,0.0100809996948,1.0,0.0,0.0,0.0,1.0,0.0,0.0,0.0,1.0,-2.98780488968,-7.98780536652,-8.04878044128,1.0,0.0,0.0,0.0,1.0,0.0,0.0,0.0,1.0,-1.05823706072,-0.536301208408,-9.8545340332,1.0,0.0,0.0,0.0,1.0,0.0,0.0,0.0,1.0
1463504684232854438,567,1463504684229968176,,-5.41583299637,-12.7966365814,108.454269409,0.0101290000603,1.0,0.0,0.0,0.0,1.0,0.0,0.0,0.0,1.0,-4.2682929039,-10.548781395,-6.70731735229,1.0,0.0,0.0,0.0,1.0,0.0,0.0,0.0,1.0,-0.9193734375,-0.60812722168,-9.50976957866,1.0,0.0,0.0,0.0,1.0,0.0,0.0,0.0,1.0
1463504684248816316,568,1463504684241552698,,-5.42909908295,-12.8507089615,108.269081116,0.0100830001757,1.0,0.0,0.0,0.0,1.0,0.0,0.0,0.0,1.0,-4.93902444839,-13.841463089,-5.0,1.0,0.0,0.0,0.0,1.0,0.0,0.0,0.0,1.0,-0.794874951172,-0.584185168546,-9.1697923584,1.0,0.0,0.0,0.0,1.0,0.0,0.0,0.0,1.0
1463504684256746323,569,1463504684249970415,,-5.44888687134,-12.9181051254,108.093795776,0.0100999996066,1.0,0.0,0.0,0.0,1.0,0.0,0.0,0.0,1.0,-6.28048801422,-15.6097564697,-3.96341490746,1.0,0.0,0.0,0.0,1.0,0.0,0.0,0.0,1.0,-0.699106884766,-0.694318481445,-8.66222219097,1.0,0.0,0.0,0.0,1.0,0.0,0.0,0.0,1.0
1463504684267574257,570,1463504684261474112,,-5.52878952026,-13.0311641693,107.949386597,0.0104329995811,1.0,0.0,0.0,0.0,1.0,0.0,0.0,0.0,1.0,-7.43902492523,-20.6707324982,-1.8902438879,1.0,0.0,0.0,0.0,1.0,0.0,0.0,0.0,1.0,-0.636857641602,-0.0909796630859,-8.89206496582,1.0,0.0,0.0,0.0,1.0,0.0,0.0,0.0,1.0
1463504684305583057,571,1463504684270229658,,-5.59505319595,-13.143904686,107.822906494,0.0097839999944,1.0,0.0,0.0,0.0,1.0,0.0,0.0,0.0,1.0,-7.62195110321,-21.4634151459,-0.792682945728,1.0,0.0,0.0,0.0,1.0,0.0,0.0,0.0,1.0,-0.636857641602,-0.277727392578,-8.74841286621,1.0,0.0,0.0,0.0,1.0,0.0,0.0,0.0,1.0
1463504684305651435,572,1463504684280333657,,-5.68507575989,-13.3048706055,107.725074768,0.0100779999048,1.0,0.0,0.0,0.0,1.0,0.0,0.0,0.0,1.0,-7.86585378647,-24.3902435303,1.76829278469,1.0,0.0,0.0,0.0,1.0,0.0,0.0,0.0,1.0,-0.928950244141,-0.076614453125,-8.66222219097,1.0,0.0,0.0,0.0,1.0,0.0,0.0,0.0,1.0
1463504684305906773,573,1463504684294706482,,-5.77504253387,-13.4705762863,107.661857605,0.010106000118,1.0,0.0,0.0,0.0,1.0,0.0,0.0,0.0,1.0,-6.82926845551,-26.8292694092,4.81707286835,1.0,0.0,0.0,0.0,1.0,0.0,0.0,0.0,1.0,-0.670376464844,-0.0239420166016,-8.44195446919,1.0,0.0,0.0,0.0,1.0,0.0,0.0,0.0,1.0
1463504684306741582,574,1463504684301605711,,-5.86990356445,-13.6490402222,107.620193481,0.0102019999176,1.0,0.0,0.0,0.0,1.0,0.0,0.0,0.0,1.0,-5.36585378647,-27.9878063202,6.46341466904,1.0,0.0,0.0,0.0,1.0,0.0,0.0,0.0,1.0,-0.703895288086,0.196324536133,-8.30787917622,1.0,0.0,0.0,0.0,1.0,0.0,0.0,0.0,1.0
1463504684381246317,575,1463504684311642842,,-5.92761182785,-13.8378334045,107.596054077,0.0104050002992,1.0,0.0,0.0,0.0,1.0,0.0,0.0,0.0,1.0,-4.81707286835,-29.3902435303,8.90243911743,1.0,0.0,0.0,0.0,1.0,0.0,0.0,0.0,1.0,-0.603338854892,-0.320823022461,-7.81946262207,1.0,0.0,0.0,0.0,1.0,0.0,0.0,0.0,1.0
1463504684381292771,576,1463504684322105866,,-5.99623775482,-14.0386991501,107.597000122,0.00969099998474,1.0,0.0,0.0,0.0,1.0,0.0,0.0,0.0,1.0,-4.14634132385,-31.6463413239,10.6097564697,1.0,0.0,0.0,0.0,1.0,0.0,0.0,0.0,1.0,-0.723048901367,-0.0814028564453,-7.97269152832,1.0,0.0,0.0,0.0,1.0,0.0,0.0,0.0,1.0
1463504684381581699,577,1463504684330977598,,-6.06597614288,-14.2646160126,107.610321045,0.0101150004193,1.0,0.0,0.0,0.0,1.0,0.0,0.0,0.0,1.0,-3.23170733452,-33.6585388184,11.4634151459,1.0,0.0,0.0,0.0,1.0,0.0,0.0,0.0,1.0,-0.703895288086,-0.00957680664062,-7.90565388184,1.0,0.0,0.0,0.0,1.0,0.0,0.0,0.0,1.0
1463504684383257618,578,1463504684340954527,,-6.12143373489,-14.4842681885,107.631744385,0.0100880004466,1.0,0.0,0.0,0.0,1.0,0.0,0.0,0.0,1.0,-2.13414645195,-34.0853691101,12.3170728683,1.0,0.0,0.0,0.0,1.0,0.0,0.0,0.0,1.0,-0.593762048251,-0.0718260498047,-7.74284816895,1.0,0.0,0.0,0.0,1.0,0.0,0.0,0.0,1.0
1463504684383620914,579,1463504684351591179,,-6.16846084595,-14.741932869,107.668647766,0.0101460004225,1.0,0.0,0.0,0.0,1.0,0.0,0.0,0.0,1.0,-0.731707334518,-36.5853652954,13.4756097794,1.0,0.0,0.0,0.0,1.0,0.0,0.0,0.0,1.0,-0.833182177734,-0.0478840332031,-8.04930598145,1.0,0.0,0.0,0.0,1.0,0.0,0.0,0.0,1.0
1463504684383924059,580,1463504684361444214,,-6.2092962265,-15.0105056763,107.716567993,0.0100750001147,1.0,0.0,0.0,0.0,1.0,0.0,0.0,0.0,1.0,1.46341466904,-38.8414649963,13.9634151459,1.0,0.0,0.0,0.0,1.0,0.0,0.0,0.0,1.0,-0.742202514648,0.15322890625,-8.06367119141,1.0,0.0,0.0,0.0,1.0,0.0,0.0,0.0,1.0
1463504684384197572,581,1463504684371475617,,-6.22756814957,-15.268445015,107.763267517,0.0100910002366,1.0,0.0,0.0,0.0,1.0,0.0,0.0,0.0,1.0,2.37804889679,-38.1707305908,14.2682924271,1.0,0.0,0.0,0.0,1.0,0.0,0.0,0.0,1.0,-0.737414111328,-0.0383072265625,-8.27914934082,1.0,0.0,0.0,0.0,1.0,0.0,0.0,0.0,1.0
1463504684422210642,582,1463504684381680595,,-6.21971035004,-15.5507650375,107.811576843,0.0101349996403,1.0,0.0,0.0,0.0,1.0,0.0,0.0,0.0,1.0,4.57317066193,-39.634147644,14.3902444839,1.0,0.0,0.0,0.0,1.0,0.0,0.0,0.0,1.0,-0.92416184082,-0.110133276367,-8.48505126812,1.0,0.0,0.0,0.0,1.0,0.0,0.0,0.0,1.0
1463504684424760689,583,1463504684391978116,,-6.21376132965,-15.8283529282,107.860183716,0.0101070003584,1.0,0.0,0.0,0.0,1.0,0.0,0.0,0.0,1.0,4.20731735229,-40.8536605835,14.3902444839,1.0,0.0,0.0,0.0,1.0,0.0,0.0,0.0,1.0,-0.718260498047,-0.143652099609,-8.47547329243,1.0,0.0,0.0,0.0,1.0,0.0,0.0,0.0,1.0
1463504684425122838,584,1463504684402085135,,-6.2030081749,-16.1249847412,107.905426025,0.0100790001452,1.0,0.0,0.0,0.0,1.0,0.0,0.0,0.0,1.0,4.69512224197,-41.5243911743,14.0243902206,1.0,0.0,0.0,0.0,1.0,0.0,0.0,0.0,1.0,-0.967257470703,-0.138863696289,-8.59518454448,1.0,0.0,0.0,0.0,1.0,0.0,0.0,0.0,1.0
1463504684478279434,585,1463504684412108205,,-6.18209934235,-16.4420623779,107.940757751,0.0101039996371,1.0,0.0,0.0,0.0,1.0,0.0,0.0,0.0,1.0,5.60975599289,-41.7073173523,13.048781395,1.0,0.0,0.0,0.0,1.0,0.0,0.0,0.0,1.0,-1.32159931641,-0.124498486328,-8.92079538574,1.0,0.0,0.0,0.0,1.0,0.0,0.0,0.0,1.0
1463504684478556332,586,1463504684422089561,,-6.15257453918,-16.7482280731,107.964607239,0.0100899999961,1.0,0.0,0.0,0.0,1.0,0.0,0.0,0.0,1.0,6.46341466904,-40.3048782349,12.0731716156,1.0,0.0,0.0,0.0,1.0,0.0,0.0,0.0,1.0,-1.42215578613,-0.0814028564453,-8.97346782227,1.0,0.0,0.0,0.0,1.0,0.0,0.0,0.0,1.0
1463504684478870779,587,1463504684432095758,,-6.11882448196,-17.0465908051,107.982223511,0.0100990002975,1.0,0.0,0.0,0.0,1.0,0.0,0.0,0.0,1.0,7.37804937363,-39.634147644,11.4024391174,1.0,0.0,0.0,0.0,1.0,0.0,0.0,0.0,1.0,-1.4844050293,0.0239420166016,-9.25119521484,1.0,0.0,0.0,0.0,1.0,0.0,0.0,0.0,1.0
1463504684479159915,588,1463504684442368854,,-6.06776332855,-17.3361778259,107.98589325,0.0101009998471,1.0,0.0,0.0,0.0,1.0,0.0,0.0,0.0,1.0,8.04878044128,-38.2317085266,10.4878053665,1.0,0.0,0.0,0.0,1.0,0.0,0.0,0.0,1.0,-1.63763393555,-0.100556469727,-9.46667277974,1.0,0.0,0.0,0.0,1.0,0.0,0.0,0.0,1.0
1463504684507996702,589,1463504684452113359,,-6.0137424469,-17.6169052124,107.973800659,0.0101140001789,1.0,0.0,0.0,0.0,1.0,0.0,0.0,0.0,1.0,7.37804937363,-36.6463432312,9.39024448395,1.0,0.0,0.0,0.0,1.0,0.0,0.0,0.0,1.0,-1.8148048584,-0.205901342773,-9.65821008159,1.0,0.0,0.0,0.0,1.0,0.0,0.0,0.0,1.0
1463504684508256102,590,1463504684462483528,,-5.96404981613,-17.8842868805,107.951789856,0.0100999996066,1.0,0.0,0.0,0.0,1.0,0.0,0.0,0.0,1.0,6.70731735229,-35.1829299927,8.65853691101,1.0,0.0,0.0,0.0,1.0,0.0,0.0,0.0,1.0,-1.9105729248,-0.210689746094,-9.80665,1.0,0.0,0.0,0.0,1.0,0.0,0.0,0.0,1.0
1463504684508497587,591,1463504684472714337,,-5.91251420975,-18.1345729828,107.920654297,0.0101509997621,1.0,0.0,0.0,0.0,1.0,0.0,0.0,0.0,1.0,5.85365867615,-33.4756126404,8.29268264771,1.0,0.0,0.0,0.0,1.0,0.0,0.0,0.0,1.0,-1.99197578125,-0.368707055664,-10.1466266357,1.0,0.0,0.0,0.0,1.0,0.0,0.0,0.0,1.0
1463504684508775267,592,1463504684482633980,,-5.86553859711,-18.3605327606,107.880851746,0.0100520001724,1.0,0.0,0.0,0.0,1.0,0.0,0.0,0.0,1.0,3.53658556938,-31.7073192596,8.23170757294,1.0,0.0,0.0,0.0,1.0,0.0,0.0,0.0,1.0,-1.98718737793,-0.708683691406,-10.3621047852,1.0,0.0,0.0,0.0,1.0,0.0,0.0,0.0,1.0
1463504684547864943,593,1463504684493082839,,-5.86355113983,-18.5712661743,107.847854614,0.010106000118,1.0,0.0,0.0,0.0,1.0,0.0,0.0,0.0,1.0,2.56097555161,-31.4634151459,7.86585378647,1.0,0.0,0.0,0.0,1.0,0.0,0.0,0.0,1.0,-1.80522805176,-0.0622492431641,-10.4913916748,1.0,0.0,0.0,0.0,1.0,0.0,0.0,0.0,1.0
1463504684548150851,594,1463504684503056592,,-5.84495592117,-18.7646808624,107.798034668,0.0101159997284,1.0,0.0,0.0,0.0,1.0,0.0,0.0,0.0,1.0,2.07317066193,-30.0000019073,7.01219511032,1.0,0.0,0.0,0.0,1.0,0.0,0.0,0.0,1.0,-1.77649763184,-0.383072265625,-10.5727945312,1.0,0.0,0.0,0.0,1.0,0.0,0.0,0.0,1.0
1463504684548405928,595,1463504684513329636,,-5.8302989006,-18.955499649,107.745597839,0.0101199997589,1.0,0.0,0.0,0.0,1.0,0.0,0.0,0.0,1.0,1.40243899822,-29.2682933807,6.95121955872,1.0,0.0,0.0,0.0,1.0,0.0,0.0,0.0,1.0,-1.95366855469,-0.440533105469,-10.8696755371,1.0,0.0,0.0,0.0,1.0,0.0,0.0,0.0,1.0
1463504684548693398,596,1463504684523103825,,-5.82012081146,-19.1364898682,107.680740356,0.0100530004129,1.0,0.0,0.0,0.0,1.0,0.0,0.0,0.0,1.0,-0.792682945728,-28.3536586761,6.34146356583,1.0,0.0,0.0,0.0,1.0,0.0,0.0,0.0,1.0,-1.93930334473,-0.708683691406,-10.6541973877,1.0,0.0,0.0,0.0,1.0,0.0,0.0,0.0,1.0
1463504684576627414,597,1463504684533534978,,-5.83785104752,-19.3112850189,107.609169006,0.0102150002494,1.0,0.0,0.0,0.0,1.0,0.0,0.0,0.0,1.0,-3.7804877758,-27.317073822,5.97560977936,1.0,0.0,0.0,0.0,1.0,0.0,0.0,0.0,1.0,-1.99676418457,-0.723048901367,-10.673351001,1.0,0.0,0.0,0.0,1.0,0.0,0.0,0.0,1.0
1463504684577096011,598,1463504684543300575,,-5.87749958038,-19.4729862213,107.53125,0.00999400019646,1.0,0.0,0.0,0.0,1.0,0.0,0.0,0.0,1.0,-6.40243911743,-27.1951236725,5.30487823486,1.0,0.0,0.0,0.0,1.0,0.0,0.0,0.0,1.0,-1.838746875,-0.732625708008,-10.5775829346,1.0,0.0,0.0,0.0,1.0,0.0,0.0,0.0,1.0
1463504684577149443,599,1463504684553172358,,-5.95734405518,-19.6169719696,107.458427429,0.0100899999961,1.0,0.0,0.0,0.0,1.0,0.0,0.0,0.0,1.0,-8.41463470459,-27.0731716156,5.24390268326,1.0,0.0,0.0,0.0,1.0,0.0,0.0,0.0,1.0,-1.56580788574,-0.368707055664,-10.793061084,1.0,0.0,0.0,0.0,1.0,0.0,0.0,0.0,1.0
1463504684577493678,600,1463504684563370254,,-6.03870153427,-19.7652511597,107.377189636,0.0101159997284,1.0,0.0,0.0,0.0,1.0,0.0,0.0,0.0,1.0,-8.47560977936,-27.7439041138,4.2682929039,1.0,0.0,0.0,0.0,1.0,0.0,0.0,0.0,1.0,-1.5083470459,-0.277727392578,-10.7116582275,1.0,0.0,0.0,0.0,1.0,0.0,0.0,0.0,1.0
1463504684620446806,601,1463504684573836403,,-6.12624406815,-19.9243717194,107.292381287,0.0100990002975,1.0,0.0,0.0,0.0,1.0,0.0,0.0,0.0,1.0,-8.10975551605,-28.5365848541,3.41463422775,1.0,0.0,0.0,0.0,1.0,0.0,0.0,0.0,1.0,-1.61369191895,-0.0335188255255,-10.8888291504,1.0,0.0,0.0,0.0,1.0,0.0,0.0,0.0,1.0
1463504684620698863,602,1463504684583937746,,-6.193795681,-20.0958900452,107.199195862,0.010111999698,1.0,0.0,0.0,0.0,1.0,0.0,0.0,0.0,1.0,-6.0365858078,-28.475610733,2.5,1.0,0.0,0.0,0.0,1.0,0.0,0.0,0.0,1.0,-1.87226569824,0.0574608398438,-10.8409451172,1.0,0.0,0.0,0.0,1.0,0.0,0.0,0.0,1.0
1463504684620968262,603,1463504684594100020,,-6.24061059952,-20.2787246704,107.097267151,0.0100800003856,1.0,0.0,0.0,0.0,1.0,0.0,0.0,0.0,1.0,-4.69512224197,-27.5609760284,1.8902438879,1.0,0.0,0.0,0.0,1.0,0.0,0.0,0.0,1.0,-2.26970317383,-0.0143652099609,-10.6637741943,1.0,0.0,0.0,0.0,1.0,0.0,0.0,0.0,1.0
1463504684621377074,604,1463504684604242245,,-6.26191043854,-20.4481658936,106.974876404,0.0102329999208,1.0,0.0,0.0,0.0,1.0,0.0,0.0,0.0,1.0,-4.02439022064,-24.9390239716,0.914634168148,1.0,0.0,0.0,0.0,1.0,0.0,0.0,0.0,1.0,-2.37025978969,-0.253785375977,-10.2040874756,1.0,0.0,0.0,0.0,1.0,0.0,0.0,0.0,1.0
1463504684666071322,605,1463504684613932693,,-6.26399898529,-20.5789489746,106.836349487,0.00996400043368,1.0,0.0,0.0,0.0,1.0,0.0,0.0,0.0,1.0,-6.0365858078,-22.2560977936,0.609756112099,1.0,0.0,0.0,0.0,1.0,0.0,0.0,0.0,1.0,-2.10210891149,-0.837970581055,-9.67736311035,1.0,0.0,0.0,0.0,1.0,0.0,0.0,0.0,1.0
1463504684666137357,606,1463504684623955815,,-6.2907409668,-20.6668014526,106.688468933,0.010156000033,1.0,0.0,0.0,0.0,1.0,0.0,0.0,0.0,1.0,-10.4878053665,-19.6951236725,0.975609779358,1.0,0.0,0.0,0.0,1.0,0.0,0.0,0.0,1.0,-1.61369191895,-1.06302561017,-8.84896933594,1.0,0.0,0.0,0.0,1.0,0.0,0.0,0.0,1.0
1463504684666181675,607,1463504684634022735,,-6.34725522995,-20.7201938629,106.539581299,0.010050999932,1.0,0.0,0.0,0.0,1.0,0.0,0.0,0.0,1.0,-16.2804889679,-19.2682914734,1.8292683363,1.0,0.0,0.0,0.0,1.0,0.0,0.0,0.0,1.0,-1.07739082014,-1.45567460937,-8.46589648579,1.0,0.0,0.0,0.0,1.0,0.0,0.0,0.0,1.0
1463504684666457063,608,1463504684644408736,,-6.47668075562,-20.7725143433,106.39931488,0.0101730003953,1.0,0.0,0.0,0.0,1.0,0.0,0.0,0.0,1.0,-21.0975627899,-19.0243911743,2.07317066193,1.0,0.0,0.0,0.0,1.0,0.0,0.0,0.0,1.0,-1.06781401349,-1.06781401349,-8.06367119141,1.0,0.0,0.0,0.0,1.0,0.0,0.0,0.0,1.0
1463504684706311816,609,1463504684654534816,,-6.67299175262,-20.8165378571,106.282844543,0.0100339995697,1.0,0.0,0.0,0.0,1.0,0.0,0.0,0.0,1.0,-23.1707324982,-18.3536586761,2.62195134163,1.0,0.0,0.0,0.0,1.0,0.0,0.0,0.0,1.0,-1.08217922346,-0.407014282227,-7.88650026855,1.0,0.0,0.0,0.0,1.0,0.0,0.0,0.0,1.0
1463504684706669070,610,1463504684664354261,,-6.86096763611,-20.8412647247,106.152999878,0.0101250000298,1.0,0.0,0.0,0.0,1.0,0.0,0.0,0.0,1.0,-22.0121955872,-17.1951217651,1.34146344662,1.0,0.0,0.0,0.0,1.0,0.0,0.0,0.0,1.0,-0.938527050781,-0.282515795898,-7.78115539551,1.0,0.0,0.0,0.0,1.0,0.0,0.0,0.0,1.0
1463504684706946906,611,1463504684674365041,,-7.0302901268,-20.8564968109,106.009849548,0.0100680002943,1.0,0.0,0.0,0.0,1.0,0.0,0.0,0.0,1.0,-18.9634151459,-17.3780498505,-0.731707334518,1.0,0.0,0.0,0.0,1.0,0.0,0.0,0.0,1.0,-0.737414111328,0.0143652099609,-7.59440766602,1.0,0.0,0.0,0.0,1.0,0.0,0.0,0.0,1.0
1463504684707217607,612,1463504684685126263,,-7.17010259628,-20.8664150238,105.853019714,0.01031900011,1.0,0.0,0.0,0.0,1.0,0.0,0.0,0.0,1.0,-14.7560987473,-18.3536586761,-2.31707310677,1.0,0.0,0.0,0.0,1.0,0.0,0.0,0.0,1.0,-0.521935925381,0.234631762695,-7.90565388184,1.0,0.0,0.0,0.0,1.0,0.0,0.0,0.0,1.0
1463504684746878317,613,1463504684695017212,,-7.27967309952,-20.8734016418,105.708976746,0.00994599983096,1.0,0.0,0.0,0.0,1.0,0.0,0.0,0.0,1.0,-9.45121955872,-18.0487823486,-2.62195134163,1.0,0.0,0.0,0.0,1.0,0.0,0.0,0.0,1.0,-0.560243188477,0.665588061523,-8.30787917622,1.0,0.0,0.0,0.0,1.0,0.0,0.0,0.0,1.0
1463504684747265673,614,1463504684704580017,,-7.31081676483,-20.8899097443,105.5520401,0.0100239999592,1.0,0.0,0.0,0.0,1.0,0.0,0.0,0.0,1.0,-4.02439022064,-17.3780498505,-2.86585378647,1.0,0.0,0.0,0.0,1.0,0.0,0.0,0.0,1.0,-0.818816967773,0.363918652344,-8.56645412456,1.0,0.0,0.0,0.0,1.0,0.0,0.0,0.0,1.0
1463504684747550643,615,1463504684715037573,,-7.23630714417,-20.9419670105,105.380950928,0.0101190004498,1.0,0.0,0.0,0.0,1.0,0.0,0.0,0.0,1.0,0.12195122242,-16.5243911743,-1.64634156227,1.0,0.0,0.0,0.0,1.0,0.0,0.0,0.0,1.0,-1.65678754883,-0.689530078125,-9.56244201519,1.0,0.0,0.0,0.0,1.0,0.0,0.0,0.0,1.0
1463504684747850768,616,1463504684724998150,,-7.19495391846,-20.8767242432,105.138504028,0.0101039996371,1.0,0.0,0.0,0.0,1.0,0.0,0.0,0.0,1.0,-7.37804937363,-6.95121955872,-6.40243911743,1.0,0.0,0.0,0.0,1.0,0.0,0.0,0.0,1.0,-1.4844050293,-1.28329208984,-12.1864864502,1.0,0.0,0.0,0.0,1.0,0.0,0.0,0.0,1.0
1463504684775591835,617,1463504684734957528,,-7.08512115479,-20.7856006622,104.968353271,0.0101030003279,1.0,0.0,0.0,0.0,1.0,0.0,0.0,0.0,1.0,0.792682945728,-4.08536577225,1.09756100178,1.0,0.0,0.0,0.0,1.0,0.0,0.0,0.0,1.0,-1.18273554705,-1.08217922346,-8.32224438618,1.0,0.0,0.0,0.0,1.0,0.0,0.0,0.0,1.0
1463504684775917947,618,1463504684745313689,,-7.03666353226,-20.6396980286,104.795333862,0.0100969998166,1.0,0.0,0.0,0.0,1.0,0.0,0.0,0.0,1.0,3.90243911743,2.07317066193,-2.01219511032,1.0,0.0,0.0,0.0,1.0,0.0,0.0,0.0,1.0,-1.5562310791,0.478840332031,-9.96945571289,1.0,0.0,0.0,0.0,1.0,0.0,0.0,0.0,1.0
1463504684788130060,619,1463504684755481119,,-6.9904088974,-20.3982124329,104.610328674,0.0101079996675,1.0,0.0,0.0,0.0,1.0,0.0,0.0,0.0,1.0,5.67073154449,1.40243899822,-4.14634132385,1.0,0.0,0.0,0.0,1.0,0.0,0.0,0.0,1.0,0.330399829102,0.780509741211,-8.41801245259,1.0,0.0,0.0,0.0,1.0,0.0,0.0,0.0,1.0
1463504684788469452,620,1463504684765567255,,-6.74382591248,-20.1530227661,104.380065918,0.0100819999352,1.0,0.0,0.0,0.0,1.0,0.0,0.0,0.0,1.0,10.2439022064,5.73170757294,-2.74390244484,1.0,0.0,0.0,0.0,1.0,0.0,0.0,0.0,1.0,-0.167594116211,-1.63284553223,-9.33259748677,1.0,0.0,0.0,0.0,1.0,0.0,0.0,0.0,1.0
1463504684829020642,621,1463504684775724634,,-6.4504532814,-19.8983211517,104.114334106,0.0101129999384,1.0,0.0,0.0,0.0,1.0,0.0,0.0,0.0,1.0,8.65853691101,6.09756088257,-4.20731735229,1.0,0.0,0.0,0.0,1.0,0.0,0.0,0.0,1.0,0.15801730957,-4.27125605398,-14.9541835693,1.0,0.0,0.0,0.0,1.0,0.0,0.0,0.0,1.0
1463504684829320663,622,1463504684785738382,,-6.37267255783,-19.5272922516,103.937355042,0.0100959995762,1.0,0.0,0.0,0.0,1.0,0.0,0.0,0.0,1.0,6.21951246262,9.02439117432,-1.58536589146,1.0,0.0,0.0,0.0,1.0,0.0,0.0,0.0,1.0,1.67594116211,0.263362164351,-11.2383825928,1.0,0.0,0.0,0.0,1.0,0.0,0.0,0.0,1.0
1463504684829569596,623,1463504684795728956,,-6.39183664322,-19.0505809784,103.801742554,0.0100790001452,1.0,0.0,0.0,0.0,1.0,0.0,0.0,0.0,1.0,3.96341490746,12.1341466904,0.426829278469,1.0,0.0,0.0,0.0,1.0,0.0,0.0,0.0,1.0,3.34230551758,1.42694418945,-10.5296989014,1.0,0.0,0.0,0.0,1.0,0.0,0.0,0.0,1.0
1463504684829876491,624,1463504684806622612,,-6.34456539154,-18.6918716431,103.636054993,0.0101629998535,1.0,0.0,0.0,0.0,1.0,0.0,0.0,0.0,1.0,2.74390244484,10.3658542633,-0.0609756112099,1.0,0.0,0.0,0.0,1.0,0.0,0.0,0.0,1.0,0.900219824219,0.0287304199219,-8.55687731792,1.0,0.0,0.0,0.0,1.0,0.0,0.0,0.0,1.0
1463504684857933619,625,1463504684816252598,,-6.27197217941,-18.355463028,103.471656799,0.0100880004466,1.0,0.0,0.0,0.0,1.0,0.0,0.0,0.0,1.0,-1.34146344662,11.1585359573,2.25609779358,1.0,0.0,0.0,0.0,1.0,0.0,0.0,0.0,1.0,0.790086547852,-1.6041151123,-12.8137672852,1.0,0.0,0.0,0.0,1.0,0.0,0.0,0.0,1.0
1463504684858269157,626,1463504684826123288,,-6.21646928787,-17.8970603943,103.289749146,0.0100680002943,1.0,0.0,0.0,0.0,1.0,0.0,0.0,0.0,1.0,-0.548780500889,17.9268302917,0.18292683363,1.0,0.0,0.0,0.0,1.0,0.0,0.0,0.0,1.0,1.57538469238,-0.646434448242,-8.98304462891,1.0,0.0,0.0,0.0,1.0,0.0,0.0,0.0,1.0
1463504684858571938,627,1463504684836494707,,-5.94926929474,-17.643196106,103.063812256,0.0100929997861,1.0,0.0,0.0,0.0,1.0,0.0,0.0,0.0,1.0,6.70731735229,11.1585359573,-0.731707334518,1.0,0.0,0.0,0.0,1.0,0.0,0.0,0.0,1.0,-0.641646044922,-3.69664736328,-11.3772462891,1.0,0.0,0.0,0.0,1.0,0.0,0.0,0.0,1.0
1463504684858891800,628,1463504684846473719,,-5.82700109482,-17.2051296234,102.886497498,0.0100969998166,1.0,0.0,0.0,0.0,1.0,0.0,0.0,0.0,1.0,11.2804880142,25.0,-0.487804889679,1.0,0.0,0.0,0.0,1.0,0.0,0.0,0.0,1.0,0.0622492431641,0.201112939453,-12.0571995605,1.0,0.0,0.0,0.0,1.0,0.0,0.0,0.0,1.0
1463504684900889090,629,1463504684856499237,,-5.61060237885,-16.6690673828,102.724182129,0.010108999908,1.0,0.0,0.0,0.0,1.0,0.0,0.0,0.0,1.0,18.841463089,28.4146347046,1.8292683363,1.0,0.0,0.0,0.0,1.0,0.0,0.0,0.0,1.0,1.26892687988,-0.292092584273,-9.90720646973,1.0,0.0,0.0,0.0,1.0,0.0,0.0,0.0,1.0
1463504684901154271,630,1463504684866459918,,-5.35057449341,-16.1962146759,102.552192688,0.0100990002975,1.0,0.0,0.0,0.0,1.0,0.0,0.0,0.0,1.0,17.7439022064,29.4512195587,2.37804889679,1.0,0.0,0.0,0.0,1.0,0.0,0.0,0.0,1.0,0.0478840332031,-1.90578452148,-14.4466128174,1.0,0.0,0.0,0.0,1.0,0.0,0.0,0.0,1.0
1463504684901464603,631,1463504684876927108,,-5.12367200851,-15.5286016464,102.422279358,0.010271999985,1.0,0.0,0.0,0.0,1.0,0.0,0.0,0.0,1.0,20.0,36.8292694092,5.60975599289,1.0,0.0,0.0,0.0,1.0,0.0,0.0,0.0,1.0,1.72861359863,-0.435744702148,-8.2025348877,1.0,0.0,0.0,0.0,1.0,0.0,0.0,0.0,1.0
1463504684908944032,632,1463504684886516057,,-5.23497676849,-14.9048137665,102.391983032,0.00993099994957,1.0,0.0,0.0,0.0,1.0,0.0,0.0,0.0,1.0,23.0487823486,35.4878044128,5.18292713165,1.0,0.0,0.0,0.0,1.0,0.0,0.0,0.0,1.0,1.71424838867,4.00310517578,-5.85142885742,1.0,0.0,0.0,0.0,1.0,0.0,0.0,0.0,1.0
1463504684940967466,633,1463504684896801912,,-5.45508575439,-14.1432962418,102.351860046,0.010111999698,1.0,0.0,0.0,0.0,1.0,0.0,0.0,0.0,1.0,26.7682933807,46.8902435303,1.8902438879,1.0,0.0,0.0,0.0,1.0,0.0,0.0,0.0,1.0,2.38462499965,5.50187541504,-3.58651408691,1.0,0.0,0.0,0.0,1.0,0.0,0.0,0.0,1.0
1463504684941234052,634,1463504684907298995,,-5.28806591034,-13.6698331833,102.240890503,0.0101950000972,1.0,0.0,0.0,0.0,1.0,0.0,0.0,0.0,1.0,28.5365848541,42.6219520569,4.20731735229,1.0,0.0,0.0,0.0,1.0,0.0,0.0,0.0,1.0,-1.90578452148,1.82917006836,-9.02135185547,1.0,0.0,0.0,0.0,1.0,0.0,0.0,0.0,1.0
1463504684941506993,635,1463504684916932314,,-5.25682067871,-12.8912744522,102.093017578,0.00999199971557,1.0,0.0,0.0,0.0,1.0,0.0,0.0,0.0,1.0,27.5,57.3780479431,-1.52439022064,1.0,0.0,0.0,0.0,1.0,0.0,0.0,0.0,1.0,1.58974990234,5.14753356934,-10.9079827637,1.0,0.0,0.0,0.0,1.0,0.0,0.0,0.0,1.0
1463504684943696764,636,1463504684926787068,,-4.77191400528,-12.1736907959,101.863464355,0.0101020000875,1.0,0.0,0.0,0.0,1.0,0.0,0.0,0.0,1.0,28.0487804413,51.2195129395,-0.0,1.0,0.0,0.0,0.0,1.0,0.0,0.0,0.0,1.0,1.5322890625,-4.03662399902,-10.5440641113,1.0,0.0,0.0,0.0,1.0,0.0,0.0,0.0,1.0
1463504684994530738,637,1463504684937464966,,-4.53074932098,-11.2649717331,101.710144043,0.0102180000395,1.0,0.0,0.0,0.0,1.0,0.0,0.0,0.0,1.0,28.3536586761,69.9390258789,3.41463422775,1.0,0.0,0.0,0.0,1.0,0.0,0.0,0.0,1.0,1.13006318359,0.646434448242,-10.9654436035,1.0,0.0,0.0,0.0,1.0,0.0,0.0,0.0,1.0
1463504684994843882,638,1463504684947409659,,-4.34610652924,-10.5428829193,101.443473816,0.0100349998102,1.0,0.0,0.0,0.0,1.0,0.0,0.0,0.0,1.0,21.4024391174,54.2682914734,-9.51219558716,1.0,0.0,0.0,0.0,1.0,0.0,0.0,0.0,1.0,1.62326872559,0.857124194336,-14.5423808838,1.0,0.0,0.0,0.0,1.0,0.0,0.0,0.0,1.0
1463504684995154943,639,1463504684957673433,,-4.0994849205,-9.70949554443,101.173851013,0.0100499996915,1.0,0.0,0.0,0.0,1.0,0.0,0.0,0.0,1.0,22.3170719147,57.0121955872,-8.84146404266,1.0,0.0,0.0,0.0,1.0,0.0,0.0,0.0,1.0,2.87783039551,-0.488417138672,-10.0412817627,1.0,0.0,0.0,0.0,1.0,0.0,0.0,0.0,1.0
1463504684995464547,640,1463504684967270714,,-3.91737031937,-8.77875804901,100.829185486,0.010111999698,1.0,0.0,0.0,0.0,1.0,0.0,0.0,0.0,1.0,20.1829280853,70.8536605835,-16.2804889679,1.0,0.0,0.0,0.0,1.0,0.0,0.0,0.0,1.0,2.82515795898,0.584185168546,-13.2351467773,1.0,0.0,0.0,0.0,1.0,0.0,0.0,0.0,1.0
1463504685030826474,641,1463504684977743945,,-3.46092200279,-8.08371543884,100.406303406,0.0101420003921,1.0,0.0,0.0,0.0,1.0,0.0,0.0,0.0,1.0,21.5243911743,58.9024391174,-21.158536911,1.0,0.0,0.0,0.0,1.0,0.0,0.0,0.0,1.0,0.76614453125,-9.27034882812,-20.4752125977,1.0,0.0,0.0,0.0,1.0,0.0,0.0,0.0,1.0
1463504685031097487,642,1463504684987727697,,-3.1764895916,-7.38851308823,99.9840774536,0.0100600002334,1.0,0.0,0.0,0.0,1.0,0.0,0.0,0.0,1.0,10.1219511032,64.5121917725,-22.5609760284,1.0,0.0,0.0,0.0,1.0,0.0,0.0,0.0,1.0,-1.00556469727,-6.24407792969,-17.8368011991,1.0,0.0,0.0,0.0,1.0,0.0,0.0,0.0,1.0
1463504685031402143,643,1463504684997897731,,-3.12732362747,-6.56468009949,99.6008224487,0.0100899999961,1.0,0.0,0.0,0.0,1.0,0.0,0.0,0.0,1.0,2.43902444839,65.0,-21.0365848541,1.0,0.0,0.0,0.0,1.0,0.0,0.0,0.0,1.0,2.30801040039,-0.991199487305,-14.0539637451,1.0,0.0,0.0,0.0,1.0,0.0,0.0,0.0,1.0
1463504685031706590,644,1463504685008302268,,-3.11891198158,-5.65597391129,99.1557540894,0.0101269995794,1.0,0.0,0.0,0.0,1.0,0.0,0.0,0.0,1.0,0.0,61.1585350037,-27.5609760284,1.0,0.0,0.0,0.0,1.0,0.0,0.0,0.0,1.0,5.52102902832,-0.60812722168,-12.6030775391,1.0,0.0,0.0,0.0,1.0,0.0,0.0,0.0,1.0
1463504685114095577,645,1463504685017699410,,-3.11233592033,-4.86169338226,98.6896209717,0.0100849997252,1.0,0.0,0.0,0.0,1.0,0.0,0.0,0.0,1.0,0.731707334518,62.5609779358,-29.9390258789,1.0,0.0,0.0,0.0,1.0,0.0,0.0,0.0,1.0,2.72460148926,-0.45968671875,-13.991714502,1.0,0.0,0.0,0.0,1.0,0.0,0.0,0.0,1.0
1463504685114396692,646,1463504685028098270,,-3.25685191154,-4.32078838348,98.1767349243,0.0101250000298,1.0,0.0,0.0,0.0,1.0,0.0,0.0,0.0,1.0,-5.18292713165,54.0853652954,-35.6097564697,1.0,0.0,0.0,0.0,1.0,0.0,0.0,0.0,1.0,-1.63763393555,2.28885678711,-18.1288949707,1.0,0.0,0.0,0.0,1.0,0.0,0.0,0.0,1.0
1463504685114748061,647,1463504685038547177,,-3.24744606018,-3.66694164276,97.657333374,0.0101070003584,1.0,0.0,0.0,0.0,1.0,0.0,0.0,0.0,1.0,-2.37804889679,58.2926826477,-35.0609741211,1.0,0.0,0.0,0.0,1.0,0.0,0.0,0.0,1.0,0.823605371094,-1.78607443848,-17.6596314453,1.0,0.0,0.0,0.0,1.0,0.0,0.0,0.0,1.0
1463504685115023501,648,1463504685048449839,,-3.31213855743,-3.05543708801,97.2052841187,0.0101070003584,1.0,0.0,0.0,0.0,1.0,0.0,0.0,0.0,1.0,-1.8292683363,56.3414649963,-29.0853672028,1.0,0.0,0.0,0.0,1.0,0.0,0.0,0.0,1.0,0.205901342773,0.397437475586,-17.8128603516,1.0,0.0,0.0,0.0,1.0,0.0,0.0,0.0,1.0
1463504685115273267,649,1463504685058541179,,-3.29224729538,-2.47822999954,96.7525787354,0.0100870002061,1.0,0.0,0.0,0.0,1.0,0.0,0.0,0.0,1.0,-3.10975623131,51.0975608826,-29.0243911743,1.0,0.0,0.0,0.0,1.0,0.0,0.0,0.0,1.0,1.15879360352,-3.10288535156,-19.5654159668,1.0,0.0,0.0,0.0,1.0,0.0,0.0,0.0,1.0
1463504685115534073,650,1463504685068699857,,-3.3396987915,-1.96160376072,96.265953064,0.0101039996371,1.0,0.0,0.0,0.0,1.0,0.0,0.0,0.0,1.0,-7.80487823486,59.5121994019,-32.0121955872,1.0,0.0,0.0,0.0,1.0,0.0,0.0,0.0,1.0,-3.22738383789,-2.23618435059,-17.1041778292,1.0,0.0,0.0,0.0,1.0,0.0,0.0,0.0,1.0
1463504685115793264,651,1463504685078676053,,-3.59536290169,-1.43635213375,95.7685623169,0.0100969998166,1.0,0.0,0.0,0.0,1.0,0.0,0.0,0.0,1.0,-14.2682924271,48.2926864624,-34.2073173523,1.0,0.0,0.0,0.0,1.0,0.0,0.0,0.0,1.0,0.694318481445,1.96324536133,-16.5391450684,1.0,0.0,0.0,0.0,1.0,0.0,0.0,0.0,1.0
1463504685116034229,652,1463504685088784058,,-3.81121659279,-1.01807069778,95.2762527466,0.0100809996948,1.0,0.0,0.0,0.0,1.0,0.0,0.0,0.0,1.0,-18.7804889679,40.6707344055,-33.8414649963,1.0,0.0,0.0,0.0,1.0,0.0,0.0,0.0,1.0,0.0383072265625,-0.541089611728,-16.0890351562,1.0,0.0,0.0,0.0,1.0,0.0,0.0,0.0,1.0
1463504685175084823,653,1463504685098589230,,-4.14673233032,-0.54058432579,94.8379516602,0.010095000267,1.0,0.0,0.0,0.0,1.0,0.0,0.0,0.0,1.0,-28.475610733,44.3292694092,-28.0487804413,1.0,0.0,0.0,0.0,1.0,0.0,0.0,0.0,1.0,0.785298144531,0.0,-17.5255561523,1.0,0.0,0.0,0.0,1.0,0.0,0.0,0.0,1.0
1463504685175370210,654,1463504685109427836,,-4.50406742096,-0.356378078461,94.4019241333,0.0101140001789,1.0,0.0,0.0,0.0,1.0,0.0,0.0,0.0,1.0,-19.2682914734,22.0121955872,-29.3292694092,1.0,0.0,0.0,0.0,1.0,0.0,0.0,0.0,1.0,-1.00556469727,3.27526787109,-16.0315743164,1.0,0.0,0.0,0.0,1.0,0.0,0.0,0.0,1.0
1463504685175653358,655,1463504685119099481,,-4.87971067429,0.320991545916,93.9981613159,0.010111999698,1.0,0.0,0.0,0.0,1.0,0.0,0.0,0.0,1.0,-10.6097564697,33.4146347046,-25.0,1.0,0.0,0.0,0.0,1.0,0.0,0.0,0.0,1.0,5.97113894043,3.61045610352,-7.03416447754,1.0,0.0,0.0,0.0,1.0,0.0,0.0,0.0,1.0
1463504685175905102,656,1463504685129323516,,-4.90176296234,0.339999854565,93.6702041626,0.0101330000907,1.0,0.0,0.0,0.0,1.0,0.0,0.0,0.0,1.0,-7.31707334518,9.45121955872,-19.4512195587,1.0,0.0,0.0,0.0,1.0,0.0,0.0,0.0,1.0,-2.35589428746,-3.3470939209,-18.9429223661,1.0,0.0,0.0,0.0,1.0,0.0,0.0,0.0,1.0
1463504685176190124,657,1463504685139328251,,-5.03456497192,0.748355984688,93.3010559082,0.0100739998743,1.0,0.0,0.0,0.0,1.0,0.0,0.0,0.0,1.0,-5.54878091812,28.7804889679,-21.9512195587,1.0,0.0,0.0,0.0,1.0,0.0,0.0,0.0,1.0,3.85466467285,0.866701000977,-16.5774511259,1.0,0.0,0.0,0.0,1.0,0.0,0.0,0.0,1.0
1463504685176448275,658,1463504685149382355,,-5.10916471481,0.88900911808,93.0425567627,0.0101650003344,1.0,0.0,0.0,0.0,1.0,0.0,0.0,0.0,1.0,-2.19512200356,0.670731723309,-13.2317075729,1.0,0.0,0.0,0.0,1.0,0.0,0.0,0.0,1.0,3.2992098877,0.114921679688,-13.1585323242,1.0,0.0,0.0,0.0,1.0,0.0,0.0,0.0,1.0
1463504685176706581,659,1463504685159543741,,-5.14112615585,1.13853979111,92.7096633911,0.0100199999288,1.0,0.0,0.0,0.0,1.0,0.0,0.0,0.0,1.0,-2.07317066193,8.96341514587,-20.3658542633,1.0,0.0,0.0,0.0,1.0,0.0,0.0,0.0,1.0,4.95599743652,-1.09175595703,-15.337255835,1.0,0.0,0.0,0.0,1.0,0.0,0.0,0.0,1.0
1463504685176959992,660,1463504685169571025,,-5.32255887985,0.798534095287,92.3961334229,0.0101279998198,1.0,0.0,0.0,0.0,1.0,0.0,0.0,0.0,1.0,1.8292683363,14.3292694092,-17.317073822,1.0,0.0,0.0,0.0,1.0,0.0,0.0,0.0,1.0,-17.1041778292,4.64953933176,-10.658985791,1.0,0.0,0.0,0.0,1.0,0.0,0.0,0.0,1.0
1463504685223524288,661,1463504685179684967,,-5.50806570053,2.97016239166,91.9922790527,0.0100739998743,1.0,0.0,0.0,0.0,1.0,0.0,0.0,0.0,1.0,-25.975610733,220.182937622,-7.19512224197,1.0,0.0,0.0,0.0,1.0,0.0,0.0,0.0,1.0,-2.17872351074,-8.75798967285,-37.2537754939,1.0,0.0,0.0,0.0,1.0,0.0,0.0,0.0,1.0
1463504685223810508,662,1463504685189698816,,-6.90698766708,2.64896416664,91.7041015625,0.0100859999657,1.0,0.0,0.0,0.0,1.0,0.0,0.0,0.0,1.0,-76.8902435303,-28.5975608826,-16.8292694092,1.0,0.0,0.0,0.0,1.0,0.0,0.0,0.0,1.0,-0.660799658203,25.6754186035,-9.05008227539,1.0,0.0,0.0,0.0,1.0,0.0,0.0,0.0,1.0
1463504685224098864,663,1463504685199907071,,-6.66641664505,2.56265377998,91.5146865845,0.010208000429,1.0,0.0,0.0,0.0,1.0,0.0,0.0,0.0,1.0,38.1097564697,47.5,-0.304878056049,1.0,0.0,0.0,0.0,1.0,0.0,0.0,0.0,1.0,-46.2799180908,3.78762702637,-0.483628735352,1.0,0.0,0.0,0.0,1.0,0.0,0.0,0.0,1.0
1463504685224391750,664,1463504685210214378,,-8.44566631317,3.05972886086,90.8692932129,0.009990000166,1.0,0.0,0.0,0.0,1.0,0.0,0.0,0.0,1.0,-146.402435303,30.5487804413,-47.2560958862,1.0,0.0,0.0,0.0,1.0,0.0,0.0,0.0,1.0,14.7818010498,13.4889321533,-23.544579126,1.0,0.0,0.0,0.0,1.0,0.0,0.0,0.0,1.0
1463504685295116696,665,1463504685219749475,,-8.23377513885,2.68746852875,90.5311355591,0.010095000267,1.0,0.0,0.0,0.0,1.0,0.0,0.0,0.0,1.0,23.4146347046,-31.8902454376,-26.5243911743,1.0,0.0,0.0,0.0,1.0,0.0,0.0,0.0,1.0,0.497993945312,-0.0383072265625,-30.032865625,1.0,0.0,0.0,0.0,1.0,0.0,0.0,0.0,1.0
1463504685295380106,666,1463504685229872895,,-7.61224746704,3.74788784981,89.7816543579,0.0101279998198,1.0,0.0,0.0,0.0,1.0,0.0,0.0,0.0,1.0,68.841468811,146.585372925,-41.6463432312,1.0,0.0,0.0,0.0,1.0,0.0,0.0,0.0,1.0,-14.2598650879,0.316034619141,-19.733010083,1.0,0.0,0.0,0.0,1.0,0.0,0.0,0.0,1.0
1463504685295645131,667,1463504685239974599,,-6.74079370499,6.46030712128,88.7587051392,0.0100929997861,1.0,0.0,0.0,0.0,1.0,0.0,0.0,0.0,1.0,85.7926864624,241.280487061,-60.1829299927,1.0,0.0,0.0,0.0,1.0,0.0,0.0,0.0,1.0,31.5555778809,-11.1713449463,-31.6417691406,1.0,0.0,0.0,0.0,1.0,0.0,0.0,0.0,1.0
1463504685295941662,668,1463504685250133953,,-6.35659360886,5.02512359619,87.9748535156,0.0101169999689,1.0,0.0,0.0,0.0,1.0,0.0,0.0,0.0,1.0,70.4878082275,-112.560974121,-76.2804946899,1.0,0.0,0.0,0.0,1.0,0.0,0.0,0.0,1.0,-8.02536396484,10.4674496582,-24.0138426514,1.0,0.0,0.0,0.0,1.0,0.0,0.0,0.0,1.0
1463504685296192886,669,1463504685260292578,,-5.95898389816,8.49935531616,86.8427581787,0.0100809996948,1.0,0.0,0.0,0.0,1.0,0.0,0.0,0.0,1.0,91.5243911743,357.926818848,-58.1097564697,1.0,0.0,0.0,0.0,1.0,0.0,0.0,0.0,1.0,-0.215478149414,5.39653054199,-6.88572397461,1.0,0.0,0.0,0.0,1.0,0.0,0.0,0.0,1.0
1463504685296439891,670,1463504685270478700,,-5.52893447876,8.82079982758,86.0745391846,0.0101150004193,1.0,0.0,0.0,0.0,1.0,0.0,0.0,0.0,1.0,74.0853729248,-12.1341466904,-62.8048782349,1.0,0.0,0.0,0.0,1.0,0.0,0.0,0.0,1.0,8.60954975444,2.12605122035,-2.86346518555,1.0,0.0,0.0,0.0,1.0,0.0,0.0,0.0,1.0
1463504685296713717,671,1463504685280465416,,-5.37627696991,10.2712697983,85.1224746704,0.0100849997252,1.0,0.0,0.0,0.0,1.0,0.0,0.0,0.0,1.0,35.4878044128,138.109771729,-68.4756164551,1.0,0.0,0.0,0.0,1.0,0.0,0.0,0.0,1.0,5.2337248291,0.15801730957,-13.7331407227,1.0,0.0,0.0,0.0,1.0,0.0,0.0,0.0,1.0
1463504685296984470,672,1463504685290920625,,-4.41821670532,10.1955652237,84.578163147,0.0101520000026,1.0,0.0,0.0,0.0,1.0,0.0,0.0,0.0,1.0,118.292678833,-59.8170700073,-45.3048782349,1.0,0.0,0.0,0.0,1.0,0.0,0.0,0.0,1.0,29.6497933594,2.93529123535,-1.7908628418,1.0,0.0,0.0,0.0,1.0,0.0,0.0,0.0,1.0
1463504685349863522,673,1463504685300526912,,-2.58238220215,8.19009399414,84.9931182861,0.0100520001724,1.0,0.0,0.0,0.0,1.0,0.0,0.0,0.0,1.0,162.621948242,-155.121948242,39.9390258789,1.0,0.0,0.0,0.0,1.0,0.0,0.0,0.0,1.0,-41.2856134277,-19.3068433565,-24.875755249,1.0,0.0,0.0,0.0,1.0,0.0,0.0,0.0,1.0
1463504685349903154,674,1463504685311457643,,-1.71500623226,11.4583063126,84.2875366211,0.010332999751,1.0,0.0,0.0,0.0,1.0,0.0,0.0,0.0,1.0,92.5000076294,291.463439941,-45.9146347046,1.0,0.0,0.0,0.0,1.0,0.0,0.0,0.0,1.0,75.7908477539,-24.5453554199,-107.954552856,1.0,0.0,0.0,0.0,1.0,0.0,0.0,0.0,1.0
1463504685349938775,675,1463504685320734642,,-1.25412738323,10.2138710022,84.2966003418,0.00987700000405,1.0,0.0,0.0,0.0,1.0,0.0,0.0,0.0,1.0,90.3048858643,-157.134155273,15.7317075729,1.0,0.0,0.0,0.0,1.0,0.0,0.0,0.0,1.0,4.71178857493,4.903325,-3.59609089355,1.0,0.0,0.0,0.0,1.0,0.0,0.0,0.0,1.0
1463504685349977469,676,1463504685331270102,,-0.18237490952,10.6018533707,84.665435791,0.010108999908,1.0,0.0,0.0,0.0,1.0,0.0,0.0,0.0,1.0,91.4024429321,10.9756097794,44.6341438293,1.0,0.0,0.0,0.0,1.0,0.0,0.0,0.0,1.0,7.25921943359,-3.66791694336,-9.5193463853,1.0,0.0,0.0,0.0,1.0,0.0,0.0,0.0,1.0
1463504685399940681,677,1463504685341288378,,1.0091855526,9.36203956604,84.4913330078,0.0100959995762,1.0,0.0,0.0,0.0,1.0,0.0,0.0,0.0,1.0,116.158546448,-83.5365905762,-6.64634132385,1.0,0.0,0.0,0.0,1.0,0.0,0.0,0.0,1.0,-16.9892561495,-7.00543405762,-21.0067253662,1.0,0.0,0.0,0.0,1.0,0.0,0.0,0.0,1.0
1463504685400197216,678,1463504685351351179,,1.82791078091,11.34694767,84.6925811768,0.0101110003889,1.0,0.0,0.0,0.0,1.0,0.0,0.0,0.0,1.0,85.3048782349,145.182922363,27.4390258789,1.0,0.0,0.0,0.0,1.0,0.0,0.0,0.0,1.0,15.7634237305,-0.244208569336,12.7084224121,1.0,0.0,0.0,0.0,1.0,0.0,0.0,0.0,1.0
1463504685400476406,679,1463504685361410544,,2.19646573067,10.1266908646,84.8465423584,0.0100889997557,1.0,0.0,0.0,0.0,1.0,0.0,0.0,0.0,1.0,53.2317085266,-158.963409424,34.3902435303,1.0,0.0,0.0,0.0,1.0,0.0,0.0,0.0,1.0,9.43794235981,2.03028300781,-7.43639035645,1.0,0.0,0.0,0.0,1.0,0.0,0.0,0.0,1.0
1463504685400779135,680,1463504685371478605,,2.65895652771,10.7045106888,85.1571502686,0.010111999698,1.0,0.0,0.0,0.0,1.0,0.0,0.0,0.0,1.0,48.4146347046,97.9878082275,37.9268302917,1.0,0.0,0.0,0.0,1.0,0.0,0.0,0.0,1.0,-15.5192151611,-1.21625444336,-20.1352359619,1.0,0.0,0.0,0.0,1.0,0.0,0.0,0.0,1.0
1463504685453620170,681,1463504685381788933,,2.47628688812,11.6841201782,85.3085479736,0.0101030003279,1.0,0.0,0.0,0.0,1.0,0.0,0.0,0.0,1.0,18.1097564697,53.9634170532,30.0000019073,1.0,0.0,0.0,0.0,1.0,0.0,0.0,0.0,1.0,10.3525279785,6.80432111816,-3.82114584961,1.0,0.0,0.0,0.0,1.0,0.0,0.0,0.0,1.0
1463504685453693288,682,1463504685391745131,,2.94398283958,10.3978233337,85.6753234863,0.0100969998166,1.0,0.0,0.0,0.0,1.0,0.0,0.0,0.0,1.0,39.8780479431,-72.5,49.2682914734,1.0,0.0,0.0,0.0,1.0,0.0,0.0,0.0,1.0,-36.5259405273,-5.95198532715,-3.07415493164,1.0,0.0,0.0,0.0,1.0,0.0,0.0,0.0,1.0
1463504685453749948,683,1463504685401856470,,2.28955841064,14.2125358582,86.1778640747,0.0101030003279,1.0,0.0,0.0,0.0,1.0,0.0,0.0,0.0,1.0,-29.3902435303,369.817077637,50.6707344055,1.0,0.0,0.0,0.0,1.0,0.0,0.0,0.0,1.0,5.26724365234,12.0332575439,-14.0348101318,1.0,0.0,0.0,0.0,1.0,0.0,0.0,0.0,1.0
1463504685453806453,684,1463504685412137269,,2.14430522919,13.4220724106,86.671295166,0.0101100001484,1.0,0.0,0.0,0.0,1.0,0.0,0.0,0.0,1.0,-55.0609779358,-105.914634705,53.5365867615,1.0,0.0,0.0,0.0,1.0,0.0,0.0,0.0,1.0,6.78516750488,-14.0060797119,14.0443869385,1.0,0.0,0.0,0.0,1.0,0.0,0.0,0.0,1.0
1463504685453847542,685,1463504685422074095,,1.79469001293,12.7069730759,87.5394592285,0.0100840004161,1.0,0.0,0.0,0.0,1.0,0.0,0.0,0.0,1.0,-49.7560997009,-27.8048782349,95.2439041138,1.0,0.0,0.0,0.0,1.0,0.0,0.0,0.0,1.0,-26.0441256592,-2.03028300781,13.5942770264,1.0,0.0,0.0,0.0,1.0,0.0,0.0,0.0,1.0
1463504685453885924,686,1463504685432088464,,1.00291895866,12.8228588104,88.1561431885,0.0100910002366,1.0,0.0,0.0,0.0,1.0,0.0,0.0,0.0,1.0,-90.3048858643,46.0365867615,68.3536605835,1.0,0.0,0.0,0.0,1.0,0.0,0.0,0.0,1.0,-13.1633207275,-1.93930334473,10.3525279785,1.0,0.0,0.0,0.0,1.0,0.0,0.0,0.0,1.0
1463504685453924097,687,1463504685442443058,,0.4245634377,11.3878488541,88.6001815796,0.0101260002702,1.0,0.0,0.0,0.0,1.0,0.0,0.0,0.0,1.0,-52.2560997009,-94.8780517578,56.7073173523,1.0,0.0,0.0,0.0,1.0,0.0,0.0,0.0,1.0,-11.6023012451,1.23061965332,-10.8936175537,1.0,0.0,0.0,0.0,1.0,0.0,0.0,0.0,1.0
1463504685454003776,688,1463504685452036638,,-0.49653878808,13.0572404861,88.7820053101,0.0100859999657,1.0,0.0,0.0,0.0,1.0,0.0,0.0,0.0,1.0,-93.7804870605,157.073165894,28.2926845551,1.0,0.0,0.0,0.0,1.0,0.0,0.0,0.0,1.0,5.67425793457,-2.72460148926,-17.6213242187,1.0,0.0,0.0,0.0,1.0,0.0,0.0,0.0,1.0
1463504685502030576,689,1463504685462311188,,-1.3176227808,13.0105295181,89.1380462646,0.0100819999352,1.0,0.0,0.0,0.0,1.0,0.0,0.0,0.0,1.0,-84.634147644,-60.9756088257,44.7560997009,1.0,0.0,0.0,0.0,1.0,0.0,0.0,0.0,1.0,18.0474932833,-1.40779057617,-1.91536132812,1.0,0.0,0.0,0.0,1.0,0.0,0.0,0.0,1.0
1463504685502398454,690,1463504685472141723,,-1.9980584383,12.0409555435,89.2978973389,0.0100990002975,1.0,0.0,0.0,0.0,1.0,0.0,0.0,0.0,1.0,-67.2560958862,-57.6219482422,24.2073173523,1.0,0.0,0.0,0.0,1.0,0.0,0.0,0.0,1.0,-35.2282832275,-5.20020600586,-52.605398877,1.0,0.0,0.0,0.0,1.0,0.0,0.0,0.0,1.0
1463504685502895485,691,1463504685482676142,,-3.70333814621,14.1513280869,89.17212677,0.0101359998807,1.0,0.0,0.0,0.0,1.0,0.0,0.0,0.0,1.0,-162.317077637,150.548782349,7.31707334518,1.0,0.0,0.0,0.0,1.0,0.0,0.0,0.0,1.0,42.8035372803,-5.35343491211,14.9158763428,1.0,0.0,0.0,0.0,1.0,0.0,0.0,0.0,1.0
1463504685503418816,692,1463504685492799614,,-5.32784414291,11.3858089447,89.4538803101,0.0100849997252,1.0,0.0,0.0,0.0,1.0,0.0,0.0,0.0,1.0,-138.963409424,-277.560974121,22.1341457367,1.0,0.0,0.0,0.0,1.0,0.0,0.0,0.0,1.0,-3.75889660645,4.42448466797,14.1018477783,1.0,0.0,0.0,0.0,1.0,0.0,0.0,0.0,1.0
1463504685505625564,693,1463504685503057864,,-6.59756708145,13.4409646988,89.922996521,0.0101070003584,1.0,0.0,0.0,0.0,1.0,0.0,0.0,0.0,1.0,-130.60975647,230.182922363,80.792678833,1.0,0.0,0.0,0.0,1.0,0.0,0.0,0.0,1.0,-29.4582572266,-5.13316835937,24.7033727295,1.0,0.0,0.0,0.0,1.0,0.0,0.0,0.0,1.0
1463504685518715341,694,1463504685512891523,,-7.38290882111,13.6483249664,89.8072280884,0.0100910002366,1.0,0.0,0.0,0.0,1.0,0.0,0.0,0.0,1.0,-73.9634170532,2.80487799644,-0.365853667259,1.0,0.0,0.0,0.0,1.0,0.0,0.0,0.0,1.0,2.48996972656,-9.21288798828,34.5674812312,1.0,0.0,0.0,0.0,1.0,0.0,0.0,0.0,1.0
1463504685526343241,695,1463504685523197633,,-8.26390647888,10.5349998474,90.2895736694,0.0101239997894,1.0,0.0,0.0,0.0,1.0,0.0,0.0,0.0,1.0,-81.2195129395,-279.390258789,21.8902435303,1.0,0.0,0.0,0.0,1.0,0.0,0.0,0.0,1.0,-15.2271225586,8.77235488281,-32.7383111629,1.0,0.0,0.0,0.0,1.0,0.0,0.0,0.0,1.0
1463504685542277720,696,1463504685533474006,,-9.82089519501,12.7999401093,89.6108016968,0.0101220002398,1.0,0.0,0.0,0.0,1.0,0.0,0.0,0.0,1.0,-131.829269409,233.292678833,-16.7073173523,1.0,0.0,0.0,0.0,1.0,0.0,0.0,0.0,1.0,6.19140549316,7.43639035645,-54.7841223877,1.0,0.0,0.0,0.0,1.0,0.0,0.0,0.0,1.0
1463504685550280425,697,1463504685543175960,,-10.6802988052,13.3952903748,89.4670715332,0.0100560002029,1.0,0.0,0.0,0.0,1.0,0.0,0.0,0.0,1.0,-66.9512252808,8.5365858078,1.70731711388,1.0,0.0,0.0,0.0,1.0,0.0,0.0,0.0,1.0,25.2109434814,3.93127912598,-5.5401826416,1.0,0.0,0.0,0.0,1.0,0.0,0.0,0.0,1.0
1463504685570488468,698,1463504685553396818,,-11.4177322388,12.7151269913,89.352722168,0.0103259999305,1.0,0.0,0.0,0.0,1.0,0.0,0.0,0.0,1.0,-69.4512176514,-34.5731735229,-7.86585378647,1.0,0.0,0.0,0.0,1.0,0.0,0.0,0.0,1.0,-15.0068560059,0.0335188255255,-42.8466329102,1.0,0.0,0.0,0.0,1.0,0.0,0.0,0.0,1.0
1463504685570938681,699,1463504685563153402,,-12.8534393311,13.4127206802,88.8244781494,0.00986200012267,1.0,0.0,0.0,0.0,1.0,0.0,0.0,0.0,1.0,-86.4024429321,35.7926826477,-23.5975627899,1.0,0.0,0.0,0.0,1.0,0.0,0.0,0.0,1.0,10.5775829346,9.60074924175,4.61123239746,1.0,0.0,0.0,0.0,1.0,0.0,0.0,0.0,1.0
1463504685600754469,700,1463504685573337389,,-13.0030326843,10.2325325012,88.9510803223,0.0101239997894,1.0,0.0,0.0,0.0,1.0,0.0,0.0,0.0,1.0,-7.74390268326,-260.365844727,-35.0609741211,1.0,0.0,0.0,0.0,1.0,0.0,0.0,0.0,1.0,-19.6324536133,3.30878669434,-13.7187755127,1.0,0.0,0.0,0.0,1.0,0.0,0.0,0.0,1.0
1463504685601036523,701,1463504685583812126,,-13.7015800476,12.6005191803,87.6863861084,0.010106000118,1.0,0.0,0.0,0.0,1.0,0.0,0.0,0.0,1.0,-47.9268302917,215.365859985,-63.9024429321,1.0,0.0,0.0,0.0,1.0,0.0,0.0,0.0,1.0,18.3300079102,-2.26491477051,-12.6701151855,1.0,0.0,0.0,0.0,1.0,0.0,0.0,0.0,1.0
1463504685601436585,702,1463504685595374927,,-14.0763349533,11.3875150681,87.1691894531,0.0100840004161,1.0,0.0,0.0,0.0,1.0,0.0,0.0,0.0,1.0,6.95121955872,-157.195114136,-72.3170700073,1.0,0.0,0.0,0.0,1.0,0.0,0.0,0.0,1.0,10.912771167,4.52025273438,5.77002600098,1.0,0.0,0.0,0.0,1.0,0.0,0.0,0.0,1.0
1463504685632645613,703,1463504685605372423,,-13.2752418518,9.85309696198,86.442817688,0.0101169999689,1.0,0.0,0.0,0.0,1.0,0.0,0.0,0.0,1.0,95.7317123413,-100.243904114,-85.4268341064,1.0,0.0,0.0,0.0,1.0,0.0,0.0,0.0,1.0,-41.2616714111,11.3772462891,-87.8767777344,1.0,0.0,0.0,0.0,1.0,0.0,0.0,0.0,1.0
1463504685633009064,704,1463504685613771389,,-12.4603729248,13.4515733719,84.6255340576,0.0100819999352,1.0,0.0,0.0,0.0,1.0,0.0,0.0,0.0,1.0,118.658546448,354.634155273,-88.2926864624,1.0,0.0,0.0,0.0,1.0,0.0,0.0,0.0,1.0,92.4688565186,3.81635744629,-95.9835445557,1.0,0.0,0.0,0.0,1.0,0.0,0.0,0.0,1.0
1463504685633448966,705,1463504685625748469,,-11.280714035,11.5089883804,84.3732757568,0.0101140001789,1.0,0.0,0.0,0.0,1.0,0.0,0.0,0.0,1.0,125.792686462,-217.804885864,-60.1829299927,1.0,0.0,0.0,0.0,1.0,0.0,0.0,0.0,1.0,4.44363828125,-3.42849677734,10.0556469727,1.0,0.0,0.0,0.0,1.0,0.0,0.0,0.0,1.0
1463504685640205082,706,1463504685633961569,,-10.6523351669,11.8549613953,83.577255249,0.0100880004466,1.0,0.0,0.0,0.0,1.0,0.0,0.0,0.0,1.0,89.5731735229,87.9878082275,-48.2317085266,1.0,0.0,0.0,0.0,1.0,0.0,0.0,0.0,1.0,-34.0216055908,-2.31279880371,18.9477119385,1.0,0.0,0.0,0.0,1.0,0.0,0.0,0.0,1.0
1463504685646980936,707,1463504685644089572,,-9.88546848297,11.1349582672,82.788848877,0.0101039996371,1.0,0.0,0.0,0.0,1.0,0.0,0.0,0.0,1.0,126.951217651,-62.9268302917,-70.9756088257,1.0,0.0,0.0,0.0,1.0,0.0,0.0,0.0,1.0,-3.08373173828,7.24964262695,22.6156288818,1.0,0.0,0.0,0.0,1.0,0.0,0.0,0.0,1.0
1463504685683473474,708,1463504685654243458,,-7.77898645401,9.82319450378,82.1031112671,0.0101279998198,1.0,0.0,0.0,0.0,1.0,0.0,0.0,0.0,1.0,214.756088257,-86.9512252808,-70.8536605835,1.0,0.0,0.0,0.0,1.0,0.0,0.0,0.0,1.0,-22.0697509033,-5.95677373047,-46.3708977539,1.0,0.0,0.0,0.0,1.0,0.0,0.0,0.0,1.0
1463504685683827916,709,1463504685665106072,,-5.79947853088,11.199842453,81.3656921387,0.0104890000075,1.0,0.0,0.0,0.0,1.0,0.0,0.0,0.0,1.0,197.987808228,113.536590576,-46.2195129395,1.0,0.0,0.0,0.0,1.0,0.0,0.0,0.0,1.0,9.25119521484,-1.99197578125,-13.6948334961,1.0,0.0,0.0,0.0,1.0,0.0,0.0,0.0,1.0
1463504685684277921,710,1463504685674720587,,-4.12498950958,10.6622610092,80.7018127441,0.00967899989337,1.0,0.0,0.0,0.0,1.0,0.0,0.0,0.0,1.0,190.853668213,-30.6707305908,-58.5365867615,1.0,0.0,0.0,0.0,1.0,0.0,0.0,0.0,1.0,-4.9512090332,0.507570751953,-26.0058184326,1.0,0.0,0.0,0.0,1.0,0.0,0.0,0.0,1.0
1463504685701348062,711,1463504685685008625,,-2.29517817497,10.5156536102,80.0953521729,0.0101140001789,1.0,0.0,0.0,0.0,1.0,0.0,0.0,0.0,1.0,191.524383545,28.5365848541,-46.3414649963,1.0,0.0,0.0,0.0,1.0,0.0,0.0,0.0,1.0,-4.2999864739,-0.837970581055,-5.55933625488,1.0,0.0,0.0,0.0,1.0,0.0,0.0,0.0,1.0
1463504685701775049,712,1463504685694929567,,-0.61398255825,10.3986721039,79.785369873,0.0101450001821,1.0,0.0,0.0,0.0,1.0,0.0,0.0,0.0,1.0,185.060974121,-17.8048782349,-17.6219520569,1.0,0.0,0.0,0.0,1.0,0.0,0.0,0.0,1.0,2.9927520752,1.35511813965,-10.8936175537,1.0,0.0,0.0,0.0,1.0,0.0,0.0,0.0,1.0
1463504685726521836,713,1463504685704655008,,0.940619289875,10.4517459869,79.5651702881,0.0101030003279,1.0,0.0,0.0,0.0,1.0,0.0,0.0,0.0,1.0,163.658554077,-27.8658542633,-10.3658542633,1.0,0.0,0.0,0.0,1.0,0.0,0.0,0.0,1.0,7.26400783691,-0.574608398438,-7.71411774902,1.0,0.0,0.0,0.0,1.0,0.0,0.0,0.0,1.0
1463504685726587506,714,1463504685714813217,,2.29005527496,9.11957454681,79.3974151611,0.0100389998406,1.0,0.0,0.0,0.0,1.0,0.0,0.0,0.0,1.0,159.45123291,-83.2317123413,0.792682945728,1.0,0.0,0.0,0.0,1.0,0.0,0.0,0.0,1.0,-12.4115414062,3.26090266113,-6.92881960449,1.0,0.0,0.0,0.0,1.0,0.0,0.0,0.0,1.0
1463504685727646614,715,1463504685724987621,,3.5954003334,10.5663738251,79.3854827881,0.0101340003312,1.0,0.0,0.0,0.0,1.0,0.0,0.0,0.0,1.0,137.5,125.975608826,4.02439022064,1.0,0.0,0.0,0.0,1.0,0.0,0.0,0.0,1.0,4.93684382324,-0.61770402832,-11.1617681396,1.0,0.0,0.0,0.0,1.0,0.0,0.0,0.0,1.0
1463504685738077971,716,1463504685735175201,,5.00773525238,10.0967645645,79.5603408813,0.0101199997589,1.0,0.0,0.0,0.0,1.0,0.0,0.0,0.0,1.0,133.536590576,-92.1951293945,32.9268302917,1.0,0.0,0.0,0.0,1.0,0.0,0.0,0.0,1.0,9.45230756977,-2.4516625,10.2088758789,1.0,0.0,0.0,0.0,1.0,0.0,0.0,0.0,1.0
1463504685747588747,717,1463504685744978864,,5.87513589859,10.1011705399,79.8630905151,0.010053999722,1.0,0.0,0.0,0.0,1.0,0.0,0.0,0.0,1.0,89.8780517578,36.9512214661,38.1707305908,1.0,0.0,0.0,0.0,1.0,0.0,0.0,0.0,1.0,-19.6755492432,-3.2992098877,-34.6105815373,1.0,0.0,0.0,0.0,1.0,0.0,0.0,0.0,1.0
1463504685758132644,718,1463504685755179567,,6.73582410812,11.1248703003,80.5592727661,0.0100990002975,1.0,0.0,0.0,0.0,1.0,0.0,0.0,0.0,1.0,62.7439041138,60.9146347046,69.3292694092,1.0,0.0,0.0,0.0,1.0,0.0,0.0,0.0,1.0,9.45230756977,-4.08450803223,-3.51947644043,1.0,0.0,0.0,0.0,1.0,0.0,0.0,0.0,1.0
1463504685767980572,719,1463504685765457555,,7.36719894409,10.7277069092,81.0954742432,0.0101269995794,1.0,0.0,0.0,0.0,1.0,0.0,0.0,0.0,1.0,57.8658561707,-57.4390220642,70.2439041138,1.0,0.0,0.0,0.0,1.0,0.0,0.0,0.0,1.0,11.7459533447,-3.3470939209,-16.6780087646,1.0,0.0,0.0,0.0,1.0,0.0,0.0,0.0,1.0
1463504685780839436,720,1463504685776397192,,7.77287578583,10.6277952194,81.708984375,0.0100760003552,1.0,0.0,0.0,0.0,1.0,0.0,0.0,0.0,1.0,34.5121955872,28.5975608826,67.5,1.0,0.0,0.0,0.0,1.0,0.0,0.0,0.0,1.0,-14.4897084473,-6.19140549316,-30.2435553711,1.0,0.0,0.0,0.0,1.0,0.0,0.0,0.0,1.0
1463504685811545443,721,1463504685793454054,,7.68318796158,10.4198045731,82.2429428101,0.0104580000043,1.0,0.0,0.0,0.0,1.0,0.0,0.0,0.0,1.0,-0.670731723309,-31.7682914734,68.1097564697,1.0,0.0,0.0,0.0,1.0,0.0,0.0,0.0,1.0,3.41413156738,0.181959326172,-6.46913288574,1.0,0.0,0.0,0.0,1.0,0.0,0.0,0.0,1.0
1463504685811882439,722,1463504685798854531,,7.96583747864,10.5135364532,83.0417098999,0.00977400038391,1.0,0.0,0.0,0.0,1.0,0.0,0.0,0.0,1.0,-2.68292689323,15.2439022064,85.6707305908,1.0,0.0,0.0,0.0,1.0,0.0,0.0,0.0,1.0,1.99197578125,-5.7508723877,-7.8960770752,1.0,0.0,0.0,0.0,1.0,0.0,0.0,0.0,1.0
1463504685812290677,723,1463504685807312500,,7.82555532455,9.82849884033,83.5978775024,0.0100710000843,1.0,0.0,0.0,0.0,1.0,0.0,0.0,0.0,1.0,-36.5853652954,-37.7439041138,67.4390258789,1.0,0.0,0.0,0.0,1.0,0.0,0.0,0.0,1.0,-3.38540114746,-5.93283171387,-9.32780908345,1.0,0.0,0.0,0.0,1.0,0.0,0.0,0.0,1.0
1463504685849051728,724,1463504685815835359,,7.48287725449,10.4507160187,84.408996582,0.0101100001484,1.0,0.0,0.0,0.0,1.0,0.0,0.0,0.0,1.0,-56.5243911743,82.5,76.9512252808,1.0,0.0,0.0,0.0,1.0,0.0,0.0,0.0,1.0,-1.5322890625,-8.20732329102,-16.5822406982,1.0,0.0,0.0,0.0,1.0,0.0,0.0,0.0,1.0
1463504685853568079,725,1463504685826161206,,6.94892787933,9.53339862823,85.1434783936,0.0104830004275,1.0,0.0,0.0,0.0,1.0,0.0,0.0,0.0,1.0,-72.3780517578,-59.1463394165,85.0,1.0,0.0,0.0,0.0,1.0,0.0,0.0,0.0,1.0,-11.4921679687,-4.80276882253,17.295713962,1.0,0.0,0.0,0.0,1.0,0.0,0.0,0.0,1.0
1463504685854126198,726,1463504685836759004,,5.6219830513,9.94257354736,86.24659729,0.00973000004888,1.0,0.0,0.0,0.0,1.0,0.0,0.0,0.0,1.0,-152.134155273,106.341461182,110.548782349,1.0,0.0,0.0,0.0,1.0,0.0,0.0,0.0,1.0,-25.4312100342,-2.41814367676,1.41257897949,1.0,0.0,0.0,0.0,1.0,0.0,0.0,0.0,1.0
1463504685854607918,727,1463504685847299151,,4.00479841232,11.5569648743,87.3128356934,0.0101300003007,1.0,0.0,0.0,0.0,1.0,0.0,0.0,0.0,1.0,-178.536575317,135.304870605,102.987808228,1.0,0.0,0.0,0.0,1.0,0.0,0.0,0.0,1.0,7.66623371582,-2.5234885498,-8.2025348877,1.0,0.0,0.0,0.0,1.0,0.0,0.0,0.0,1.0
1463504685951775568,728,1463504685857372369,,2.41621565819,10.6195163727,88.2789840698,0.0103559996933,1.0,0.0,0.0,0.0,1.0,0.0,0.0,0.0,1.0,-172.439025879,-70.0000076294,104.878051758,1.0,0.0,0.0,0.0,1.0,0.0,0.0,0.0,1.0,-2.65756384277,-5.50666381836,-21.1264354492,1.0,0.0,0.0,0.0,1.0,0.0,0.0,0.0,1.0
1463504685951877588,729,1463504685867957043,,0.432479292154,11.0763282776,88.883644104,0.00979700032622,1.0,0.0,0.0,0.0,1.0,0.0,0.0,0.0,1.0,-200.304885864,-0.731707334518,74.2073135376,1.0,0.0,0.0,0.0,1.0,0.0,0.0,0.0,1.0,12.3301385498,0.938527050781,-5.45877978516,1.0,0.0,0.0,0.0,1.0,0.0,0.0,0.0,1.0
1463504685952067829,730,1463504685876143114,,-0.96667444706,10.214679718,89.5295333862,0.0100969998166,1.0,0.0,0.0,0.0,1.0,0.0,0.0,0.0,1.0,-144.451217651,-74.5121917725,73.5365905762,1.0,0.0,0.0,0.0,1.0,0.0,0.0,0.0,1.0,-2.79642753906,-3.77326181641,-59.1319926025,1.0,0.0,0.0,0.0,1.0,0.0,0.0,0.0,1.0
1463504685952414616,731,1463504685886350432,,-2.64992237091,12.7847146988,89.7653198242,0.010095000267,1.0,0.0,0.0,0.0,1.0,0.0,0.0,0.0,1.0,-171.707321167,205.304885864,40.6097564697,1.0,0.0,0.0,0.0,1.0,0.0,0.0,0.0,1.0,25.6179577637,-6.4595560791,24.890120459,1.0,0.0,0.0,0.0,1.0,0.0,0.0,0.0,1.0
1463504685952823010,732,1463504685896506661,,-4.7219080925,12.1588010788,90.3570632935,0.0101039996371,1.0,0.0,0.0,0.0,1.0,0.0,0.0,0.0,1.0,-208.10975647,-124.39025116,62.3780517578,1.0,0.0,0.0,0.0,1.0,0.0,0.0,0.0,1.0,24.7895639893,0.100556469727,3.87381828613,1.0,0.0,0.0,0.0,1.0,0.0,0.0,0.0,1.0
1463504685952875349,733,1463504685906605709,,-6.89635229111,12.3292293549,90.6246643066,0.0101100001484,1.0,0.0,0.0,0.0,1.0,0.0,0.0,0.0,1.0,-209.573181152,44.2073173523,42.5609779358,1.0,0.0,0.0,0.0,1.0,0.0,0.0,0.0,1.0,-14.2215578613,4.22815983957,-33.6241681152,1.0,0.0,0.0,0.0,1.0,0.0,0.0,0.0,1.0
1463504685954266037,734,1463504685916735587,,-9.71921634674,12.4775590897,90.5044174194,0.0100889997557,1.0,0.0,0.0,0.0,1.0,0.0,0.0,0.0,1.0,-216.829284668,27.8658542633,15.7926826477,1.0,0.0,0.0,0.0,1.0,0.0,0.0,0.0,1.0,-2.48039291992,11.1569797363,-2.14520483363,1.0,0.0,0.0,0.0,1.0,0.0,0.0,0.0,1.0
1463504685954335925,735,1463504685926822605,,-11.5935878754,11.9621658325,90.66431427,0.0101129999384,1.0,0.0,0.0,0.0,1.0,0.0,0.0,0.0,1.0,-135.792694092,-51.0975608826,28.2926845551,1.0,0.0,0.0,0.0,1.0,0.0,0.0,0.0,1.0,0.263362164351,8.52335849468,-4.47715710449,1.0,0.0,0.0,0.0,1.0,0.0,0.0,0.0,1.0
1463504685955015125,736,1463504685936860617,,-13.1049070358,13.2627153397,90.1254043579,0.0100889997557,1.0,0.0,0.0,0.0,1.0,0.0,0.0,0.0,1.0,-140.853652954,108.841461182,-18.9024391174,1.0,0.0,0.0,0.0,1.0,0.0,0.0,0.0,1.0,18.5598512695,-1.68551796875,-21.9739828369,1.0,0.0,0.0,0.0,1.0,0.0,0.0,0.0,1.0
1463504685955075275,737,1463504685947130481,,-14.5259981155,12.7679462433,89.9280776978,0.0101229995489,1.0,0.0,0.0,0.0,1.0,0.0,0.0,0.0,1.0,-113.353660583,-88.9024353027,-25.0609760284,1.0,0.0,0.0,0.0,1.0,0.0,0.0,0.0,1.0,4.30956328054,0.478840332031,5.42526096191,1.0,0.0,0.0,0.0,1.0,0.0,0.0,0.0,1.0
1463504686348575340,738,1463504685957100167,,-15.9691314697,12.3712396622,89.3350372314,0.0100990002975,1.0,0.0,0.0,0.0,1.0,0.0,0.0,0.0,1.0,-130.67074585,24.1463432312,-42.9268302917,1.0,0.0,0.0,0.0,1.0,0.0,0.0,0.0,1.0,-28.9075908447,-6.70376464844,4.90811340332,1.0,0.0,0.0,0.0,1.0,0.0,0.0,0.0,1.0
1463504686349016023,739,1463504685967224056,,-17.964132309,13.5469331741,88.7501907349,0.0101009998471,1.0,0.0,0.0,0.0,1.0,0.0,0.0,0.0,1.0,-131.219512939,90.3048858643,-7.56097555161,1.0,0.0,0.0,0.0,1.0,0.0,0.0,0.0,1.0,6.74686027832,8.49941647808,4.75967319265,1.0,0.0,0.0,0.0,1.0,0.0,0.0,0.0,1.0
1463504686349086693,740,1463504685977193899,,-18.2682418823,11.3609619141,88.8671188354,0.0100870002061,1.0,0.0,0.0,0.0,1.0,0.0,0.0,0.0,1.0,-42.3780517578,-197.743911743,-45.3048782349,1.0,0.0,0.0,0.0,1.0,0.0,0.0,0.0,1.0,-0.857124194336,-1.95366855469,-55.2438091064,1.0,0.0,0.0,0.0,1.0,0.0,0.0,0.0,1.0
1463504686349183662,741,1463504685987343514,,-19.5855674744,13.3513917923,87.1155090332,0.0101319998503,1.0,0.0,0.0,0.0,1.0,0.0,0.0,0.0,1.0,-90.3048858643,230.975616455,-86.9512252808,1.0,0.0,0.0,0.0,1.0,0.0,0.0,0.0,1.0,24.4974713867,13.6134306396,-67.1621496469,1.0,0.0,0.0,0.0,1.0,0.0,0.0,0.0,1.0
1463504686349515763,742,1463504685997609836,,-20.1758327484,11.352807045,86.6199569702,0.0100739998743,1.0,0.0,0.0,0.0,1.0,0.0,0.0,0.0,1.0,5.85365867615,-202.317077637,-100.243904114,1.0,0.0,0.0,0.0,1.0,0.0,0.0,0.0,1.0,8.47547329243,13.0962830811,14.4178823975,1.0,0.0,0.0,0.0,1.0,0.0,0.0,0.0,1.0
1463504686349966913,743,1463504686007849804,,-19.3426895142,10.1336669922,86.0241241455,0.0101279998198,1.0,0.0,0.0,0.0,1.0,0.0,0.0,0.0,1.0,83.2926864624,-53.4756126404,-71.5243911743,1.0,0.0,0.0,0.0,1.0,0.0,0.0,0.0,1.0,-30.3297466309,-15.7825773437,7.77157858887,1.0,0.0,0.0,0.0,1.0,0.0,0.0,0.0,1.0
1463504686350024355,744,1463504686017940411,,-19.1775016785,10.8897457123,84.8165054321,0.0100769996643,1.0,0.0,0.0,0.0,1.0,0.0,0.0,0.0,1.0,83.4756088257,143.780487061,-54.2682914734,1.0,0.0,0.0,0.0,1.0,0.0,0.0,0.0,1.0,-9.08838950195,10.0412817627,-1.91536132812,1.0,0.0,0.0,0.0,1.0,0.0,0.0,0.0,1.0
1463504686350063882,745,1463504686027735268,,-18.3709220886,10.5574054718,83.8553771973,0.0101110003889,1.0,0.0,0.0,0.0,1.0,0.0,0.0,0.0,1.0,95.9756088257,-36.6463432312,-100.67073822,1.0,0.0,0.0,0.0,1.0,0.0,0.0,0.0,1.0,14.7770126465,0.407014282227,-12.4259066162,1.0,0.0,0.0,0.0,1.0,0.0,0.0,0.0,1.0
1463504686350372548,746,1463504686037828167,,-17.3535232544,10.1435842514,83.0903930664,0.0100750001147,1.0,0.0,0.0,0.0,1.0,0.0,0.0,0.0,1.0,108.719512939,-18.3536586761,-74.5121917725,1.0,0.0,0.0,0.0,1.0,0.0,0.0,0.0,1.0,6.42603725586,1.38863696289,-33.0447736516,1.0,0.0,0.0,0.0,1.0,0.0,0.0,0.0,1.0
1463504686350655903,747,1463504686048159791,,-16.6829166412,10.5141029358,82.0340042114,0.0101380003616,1.0,0.0,0.0,0.0,1.0,0.0,0.0,0.0,1.0,115.609764099,53.9634170532,-73.6585388184,1.0,0.0,0.0,0.0,1.0,0.0,0.0,0.0,1.0,2.26491477051,4.78840361257,-5.43962617188,1.0,0.0,0.0,0.0,1.0,0.0,0.0,0.0,1.0
1463504686352066536,748,1463504686058391894,,-15.0196428299,9.61239528656,81.5967636108,0.0101100001484,1.0,0.0,0.0,0.0,1.0,0.0,0.0,0.0,1.0,151.402450562,-117.500007629,-71.5853652954,1.0,0.0,0.0,0.0,1.0,0.0,0.0,0.0,1.0,4.83628735352,-2.73896669922,-1.80522805176,1.0,0.0,0.0,0.0,1.0,0.0,0.0,0.0,1.0
1463504686352473004,749,1463504686068529528,,-13.6336297989,8.34294509888,80.9220962524,0.0100929997861,1.0,0.0,0.0,0.0,1.0,0.0,0.0,0.0,1.0,173.414627075,-79.0243911743,-72.4390258789,1.0,0.0,0.0,0.0,1.0,0.0,0.0,0.0,1.0,-6.48828649902,8.2264769043,-12.3061965332,1.0,0.0,0.0,0.0,1.0,0.0,0.0,0.0,1.0
1463504686352522374,750,1463504686078546653,,-12.3058252335,9.3307056427,79.9271316528,0.0100940000266,1.0,0.0,0.0,0.0,1.0,0.0,0.0,0.0,1.0,153.841461182,61.524394989,-73.9634170532,1.0,0.0,0.0,0.0,1.0,0.0,0.0,0.0,1.0,9.44273076313,-0.148440512063,-0.895431420898,1.0,0.0,0.0,0.0,1.0,0.0,0.0,0.0,1.0
1463504686352565911,751,1463504686088898015,,-10.0152225494,8.56887626648,79.0651473999,0.0101380003616,1.0,0.0,0.0,0.0,1.0,0.0,0.0,0.0,1.0,225.243896484,-27.7439041138,-81.7682952881,1.0,0.0,0.0,0.0,1.0,0.0,0.0,0.0,1.0,-11.4825911621,-6.15788666992,-22.5246492187,1.0,0.0,0.0,0.0,1.0,0.0,0.0,0.0,1.0
1463504686352856558,752,1463504686098670687,,-8.26681041718,9.60514545441,78.3383636475,0.0100720003247,1.0,0.0,0.0,0.0,1.0,0.0,0.0,0.0,1.0,197.317077637,55.365852356,-51.0975608826,1.0,0.0,0.0,0.0,1.0,0.0,0.0,0.0,1.0,24.6842191162,1.25456166992,0.565031591797,1.0,0.0,0.0,0.0,1.0,0.0,0.0,0.0,1.0
1463504686353421707,753,1463504686108770877,,-6.35476922989,6.97160625458,78.1641082764,0.010111999698,1.0,0.0,0.0,0.0,1.0,0.0,0.0,0.0,1.0,207.804885864,-259.390258789,-37.1951255798,1.0,0.0,0.0,0.0,1.0,0.0,0.0,0.0,1.0,4.09887324219,6.16746347656,-22.2373450195,1.0,0.0,0.0,0.0,1.0,0.0,0.0,0.0,1.0
1463504686353767191,754,1463504686118882628,,-4.67545700073,8.7549161911,77.4541168213,0.0100859999657,1.0,0.0,0.0,0.0,1.0,0.0,0.0,0.0,1.0,183.231719971,234.146347046,-34.3902435303,1.0,0.0,0.0,0.0,1.0,0.0,0.0,0.0,1.0,-24.0473614746,0.210689746094,-11.166556543,1.0,0.0,0.0,0.0,1.0,0.0,0.0,0.0,1.0
1463504686354062056,755,1463504686128964799,,-2.75937700272,8.62964725494,77.3023300171,0.0100859999657,1.0,0.0,0.0,0.0,1.0,0.0,0.0,0.0,1.0,183.292694092,-44.7560997009,-9.02439117432,1.0,0.0,0.0,0.0,1.0,0.0,0.0,0.0,1.0,11.1761333496,-10.299855542,21.2269919189,1.0,0.0,0.0,0.0,1.0,0.0,0.0,0.0,1.0
1463504686354149964,756,1463504686139222003,,-0.576691389084,7.34317874908,77.1435928345,0.0101180002093,1.0,0.0,0.0,0.0,1.0,0.0,0.0,0.0,1.0,205.731719971,-89.8780517578,-8.65853691101,1.0,0.0,0.0,0.0,1.0,0.0,0.0,0.0,1.0,-21.1168586426,-12.5168862793,-26.1590473389,1.0,0.0,0.0,0.0,1.0,0.0,0.0,0.0,1.0
1463504686354328539,757,1463504686149122162,,0.997827649117,9.28640460968,77.1317749023,0.0100790001452,1.0,0.0,0.0,0.0,1.0,0.0,0.0,0.0,1.0,149.085372925,157.621948242,7.74390268326,1.0,0.0,0.0,0.0,1.0,0.0,0.0,0.0,1.0,5.67904633789,-2.42293208008,-5.71256516113,1.0,0.0,0.0,0.0,1.0,0.0,0.0,0.0,1.0
1463504686354394209,758,1463504686159329528,,3.38398432732,8.06629180908,77.1479949951,0.0101239997894,1.0,0.0,0.0,0.0,1.0,0.0,0.0,0.0,1.0,192.804885864,-111.585365295,9.39024448395,1.0,0.0,0.0,0.0,1.0,0.0,0.0,0.0,1.0,-1.44609780273,-9.07881269531,-3.08373173828,1.0,0.0,0.0,0.0,1.0,0.0,0.0,0.0,1.0
1463504686354637985,759,1463504686169394669,,4.72382640839,7.94277906418,77.2220611572,0.0101020000875,1.0,0.0,0.0,0.0,1.0,0.0,0.0,0.0,1.0,137.073181152,-27.8048782349,20.3658542633,1.0,0.0,0.0,0.0,1.0,0.0,0.0,0.0,1.0,6.67982263184,-2.17393510742,-16.2901480957,1.0,0.0,0.0,0.0,1.0,0.0,0.0,0.0,1.0
1463504686354990969,760,1463504686179518138,,5.75800418854,10.0714321136,77.8727035522,0.0101720001549,1.0,0.0,0.0,0.0,1.0,0.0,0.0,0.0,1.0,110.975616455,179.146347046,59.8780517578,1.0,0.0,0.0,0.0,1.0,0.0,0.0,0.0,1.0,25.7711866699,4.52982954102,-26.7863281738,1.0,0.0,0.0,0.0,1.0,0.0,0.0,0.0,1.0
1463504686355041589,761,1463504686190290289,,6.60247564316,8.41457748413,77.9649200439,0.0100079998374,1.0,0.0,0.0,0.0,1.0,0.0,0.0,0.0,1.0,104.268295288,-165.670730591,40.9756088257,1.0,0.0,0.0,0.0,1.0,0.0,0.0,0.0,1.0,2.28885678711,1.62326872559,-13.3404916504,1.0,0.0,0.0,0.0,1.0,0.0,0.0,0.0,1.0
1463504686355086897,762,1463504686199746431,,7.25180864334,9.51187610626,78.9380950928,0.0102019999176,1.0,0.0,0.0,0.0,1.0,0.0,0.0,0.0,1.0,56.6463394165,171.768295288,85.6707305908,1.0,0.0,0.0,0.0,1.0,0.0,0.0,0.0,1.0,-53.8072881104,-1.43173259277,-1.26413847656,1.0,0.0,0.0,0.0,1.0,0.0,0.0,0.0,1.0
1463504686355217612,763,1463504686209524155,,7.23792266846,12.1935567856,80.0306625366,0.0100090000778,1.0,0.0,0.0,0.0,1.0,0.0,0.0,0.0,1.0,-20.6707324982,224.024398804,89.8780517578,1.0,0.0,0.0,0.0,1.0,0.0,0.0,0.0,1.0,33.3416523193,-3.10288535156,17.6165346464,1.0,0.0,0.0,0.0,1.0,0.0,0.0,0.0,1.0
1463504686355452275,764,1463504686219611898,,7.10083246231,10.432179451,80.7339859009,0.0101290000603,1.0,0.0,0.0,0.0,1.0,0.0,0.0,0.0,1.0,-15.3658533096,-158.231704712,100.609764099,1.0,0.0,0.0,0.0,1.0,0.0,0.0,0.0,1.0,1.84832368164,-2.18351191406,-27.4423394287,1.0,0.0,0.0,0.0,1.0,0.0,0.0,0.0,1.0
1463504686355764325,765,1463504686229764530,,6.92429828644,11.4181947708,81.9372253418,0.0100589999929,1.0,0.0,0.0,0.0,1.0,0.0,0.0,0.0,1.0,-18.4146347046,163.414642334,111.951225281,1.0,0.0,0.0,0.0,1.0,0.0,0.0,0.0,1.0,-35.5969879451,7.12993254395,-15.0403748291,1.0,0.0,0.0,0.0,1.0,0.0,0.0,0.0,1.0
1463504686356056743,766,1463504686239997102,,6.61155748367,12.4913902283,82.8562164307,0.0101509997621,1.0,0.0,0.0,0.0,1.0,0.0,0.0,0.0,1.0,-39.1463432312,71.9512176514,92.6219482422,1.0,0.0,0.0,0.0,1.0,0.0,0.0,0.0,1.0,16.654065579,-0.775721337891,-10.1083194092,1.0,0.0,0.0,0.0,1.0,0.0,0.0,0.0,1.0
1463504686356104238,767,1463504686250309926,,5.90062618256,13.0646333694,83.9166946411,0.0100659998134,1.0,0.0,0.0,0.0,1.0,0.0,0.0,0.0,1.0,-97.6219558716,72.9878082275,103.963417053,1.0,0.0,0.0,0.0,1.0,0.0,0.0,0.0,1.0,0.991199487305,-4.54419475098,-12.4594254395,1.0,0.0,0.0,0.0,1.0,0.0,0.0,0.0,1.0
1463504686356312132,768,1463504686260178994,,5.43875169754,12.5506858826,84.9181060791,0.010111999698,1.0,0.0,0.0,0.0,1.0,0.0,0.0,0.0,1.0,-90.6707382202,-79.0853652954,109.024391174,1.0,0.0,0.0,0.0,1.0,0.0,0.0,0.0,1.0,8.65264538433,-9.18415756836,12.8137672852,1.0,0.0,0.0,0.0,1.0,0.0,0.0,0.0,1.0
1463504686356453472,769,1463504686270207473,,4.15186882019,12.3238735199,86.0904006958,0.0100830001757,1.0,0.0,0.0,0.0,1.0,0.0,0.0,0.0,1.0,-152.682922363,40.1219520569,119.39025116,1.0,0.0,0.0,0.0,1.0,0.0,0.0,0.0,1.0,-30.1477873047,-5.90410129395,-7.39329472656,1.0,0.0,0.0,0.0,1.0,0.0,0.0,0.0,1.0
1463504686356675792,770,1463504686280203767,,2.66284561157,13.8075027466,87.0301361084,0.0100880004466,1.0,0.0,0.0,0.0,1.0,0.0,0.0,0.0,1.0,-158.475616455,120.060974121,96.1585388184,1.0,0.0,0.0,0.0,1.0,0.0,0.0,0.0,1.0,3.9360675293,-0.172382519531,-4.01747038574,1.0,0.0,0.0,0.0,1.0,0.0,0.0,0.0,1.0
1463504686357085072,771,1463504686290731881,,1.17780983448,13.0420913696,87.9600448608,0.0101110003889,1.0,0.0,0.0,0.0,1.0,0.0,0.0,0.0,1.0,-169.817077637,-110.243904114,102.682929993,1.0,0.0,0.0,0.0,1.0,0.0,0.0,0.0,1.0,12.6940572021,-3.57214887695,-9.40921193989,1.0,0.0,0.0,0.0,1.0,0.0,0.0,0.0,1.0
1463504686357377177,772,1463504686300772494,,-0.264887660742,13.6994152069,88.6418991089,0.0101129999384,1.0,0.0,0.0,0.0,1.0,0.0,0.0,0.0,1.0,-161.280487061,104.573173523,73.2926864624,1.0,0.0,0.0,0.0,1.0,0.0,0.0,0.0,1.0,-23.0609503906,-9.59596083843,-32.4174928166,1.0,0.0,0.0,0.0,1.0,0.0,0.0,0.0,1.0
1463504686357428838,773,1463504686310713846,,-2.04300546646,14.588640213,89.1762695312,0.0100880004466,1.0,0.0,0.0,0.0,1.0,0.0,0.0,0.0,1.0,-169.878051758,31.0975627899,67.3780517578,1.0,0.0,0.0,0.0,1.0,0.0,0.0,0.0,1.0,9.55286520855,2.06859023437,5.35343491211,1.0,0.0,0.0,0.0,1.0,0.0,0.0,0.0,1.0
1463504686357466751,774,1463504686321061874,,-3.40467834473,13.1369686127,89.9235229492,0.0101239997894,1.0,0.0,0.0,0.0,1.0,0.0,0.0,0.0,1.0,-162.256103516,-100.121955872,73.1707305908,1.0,0.0,0.0,0.0,1.0,0.0,0.0,0.0,1.0,-10.2136642822,-4.52982954102,-8.13070883789,1.0,0.0,0.0,0.0,1.0,0.0,0.0,0.0,1.0
1463504686357773177,775,1463504686330906726,,-5.17910051346,13.9489135742,90.3132781982,0.0100919995457,1.0,0.0,0.0,0.0,1.0,0.0,0.0,0.0,1.0,-185.548782349,61.707321167,52.3780517578,1.0,0.0,0.0,0.0,1.0,0.0,0.0,0.0,1.0,2.52827695312,-0.684741674805,-4.94642062988,1.0,0.0,0.0,0.0,1.0,0.0,0.0,0.0,1.0
1463504686358018151,776,1463504686341085970,,-6.97758054733,14.0036201477,90.5734405518,0.0100769996643,1.0,0.0,0.0,0.0,1.0,0.0,0.0,0.0,1.0,-174.573165894,-50.0609779358,33.1097564697,1.0,0.0,0.0,0.0,1.0,0.0,0.0,0.0,1.0,3.58172568359,0.148440512063,-0.794874951172,1.0,0.0,0.0,0.0,1.0,0.0,0.0,0.0,1.0
1463504686358067782,777,1463504686351189910,,-8.37457561493,13.9037723541,90.6992721558,0.0101150004193,1.0,0.0,0.0,0.0,1.0,0.0,0.0,0.0,1.0,-122.682922363,35.9146347046,31.0975627899,1.0,0.0,0.0,0.0,1.0,0.0,0.0,0.0,1.0,-13.8193319824,4.50588752441,-11.0995188965,1.0,0.0,0.0,0.0,1.0,0.0,0.0,0.0,1.0
1463504686521436362,778,1463504686361281507,,-10.328291893,14.8878250122,90.3905181885,0.0101100001484,1.0,0.0,0.0,0.0,1.0,0.0,0.0,0.0,1.0,-146.036590576,59.390247345,0.792682945728,1.0,0.0,0.0,0.0,1.0,0.0,0.0,0.0,1.0,11.8129909912,9.07881269531,-3.27047946777,1.0,0.0,0.0,0.0,1.0,0.0,0.0,0.0,1.0
1463504686521748100,779,1463504686371240878,,-11.3710260391,14.1125440598,90.2757568359,0.0100929997861,1.0,0.0,0.0,0.0,1.0,0.0,0.0,0.0,1.0,-100.853660583,-56.9512214661,-12.5,1.0,0.0,0.0,0.0,1.0,0.0,0.0,0.0,1.0,-2.10689731481,0.177170922852,-26.9730759033,1.0,0.0,0.0,0.0,1.0,0.0,0.0,0.0,1.0
1463504686522029425,780,1463504686381300968,,-12.3001117706,14.2634906769,90.0563278198,0.0100840004161,1.0,0.0,0.0,0.0,1.0,0.0,0.0,0.0,1.0,-105.365859985,18.1707305908,-12.3170728683,1.0,0.0,0.0,0.0,1.0,0.0,0.0,0.0,1.0,1.03429511719,-1.61369191895,-4.5489831543,1.0,0.0,0.0,0.0,1.0,0.0,0.0,0.0,1.0
1463504686522327206,781,1463504686391585669,,-13.3758363724,14.13671875,89.7927703857,0.0101169999689,1.0,0.0,0.0,0.0,1.0,0.0,0.0,0.0,1.0,-86.7682952881,-5.85365867615,-13.5975618362,1.0,0.0,0.0,0.0,1.0,0.0,0.0,0.0,1.0,3.7493197998,5.61679709473,-18.7035022001,1.0,0.0,0.0,0.0,1.0,0.0,0.0,0.0,1.0
1463504686522627435,782,1463504686401583891,,-14.1169490814,14.4807853699,89.0524520874,0.0101020000875,1.0,0.0,0.0,0.0,1.0,0.0,0.0,0.0,1.0,-55.7317085266,67.0121994019,-46.4634170532,1.0,0.0,0.0,0.0,1.0,0.0,0.0,0.0,1.0,-2.81558115234,1.58974990234,-27.0209599365,1.0,0.0,0.0,0.0,1.0,0.0,0.0,0.0,1.0
1463504686523421519,783,1463504686411646012,,-14.6953268051,14.5326318741,88.4846420288,0.0101229995489,1.0,0.0,0.0,0.0,1.0,0.0,0.0,0.0,1.0,-14.3902444839,-33.4756126404,-46.4634170532,1.0,0.0,0.0,0.0,1.0,0.0,0.0,0.0,1.0,17.4776721191,4.88895979004,13.5751234131,1.0,0.0,0.0,0.0,1.0,0.0,0.0,0.0,1.0
1463504686523774034,784,1463504686421607674,,-14.4320058823,12.3504018784,88.2441329956,0.0100870002061,1.0,0.0,0.0,0.0,1.0,0.0,0.0,0.0,1.0,48.1097602844,-173.231704712,-54.5731735229,1.0,0.0,0.0,0.0,1.0,0.0,0.0,0.0,1.0,-12.7802484619,11.7938373779,-27.8158348877,1.0,0.0,0.0,0.0,1.0,0.0,0.0,0.0,1.0
1463504686524929746,785,1463504686431741663,,-15.7993650436,13.853811264,86.6601104736,0.0100889997557,1.0,0.0,0.0,0.0,1.0,0.0,0.0,0.0,1.0,-50.1219520569,147.682922363,-95.5487823486,1.0,0.0,0.0,0.0,1.0,0.0,0.0,0.0,1.0,22.6730897217,27.3226293457,-1.2737152832,1.0,0.0,0.0,0.0,1.0,0.0,0.0,0.0,1.0
1463504686525218934,786,1463504686441848987,,-15.3560018539,12.469587326,86.0792388916,0.0101030003279,1.0,0.0,0.0,0.0,1.0,0.0,0.0,0.0,1.0,78.1707305908,-125.914642334,-77.6219558716,1.0,0.0,0.0,0.0,1.0,0.0,0.0,0.0,1.0,6.64630380859,9.08360109863,-16.2422640625,1.0,0.0,0.0,0.0,1.0,0.0,0.0,0.0,1.0
1463504686525531141,787,1463504686456749402,,-15.0164775848,12.2832794189,85.2052001953,0.010106000118,1.0,0.0,0.0,0.0,1.0,0.0,0.0,0.0,1.0,115.243896484,4.63414621353,-60.9756088257,1.0,0.0,0.0,0.0,1.0,0.0,0.0,0.0,1.0,-1.01035310059,6.06211860352,2.91613762207,1.0,0.0,0.0,0.0,1.0,0.0,0.0,0.0,1.0
1463504686525862616,788,1463504686462111444,,-13.8335905075,11.8373594284,84.4387435913,0.010106000118,1.0,0.0,0.0,0.0,1.0,0.0,0.0,0.0,1.0,123.841461182,-26.2195129395,-74.7561035156,1.0,0.0,0.0,0.0,1.0,0.0,0.0,0.0,1.0,6.90487758789,-2.58573779297,-31.4645982178,1.0,0.0,0.0,0.0,1.0,0.0,0.0,0.0,1.0
1463504686526183416,789,1463504686472137110,,-13.1780567169,12.5089168549,83.6263885498,0.0100790001452,1.0,0.0,0.0,0.0,1.0,0.0,0.0,0.0,1.0,109.939025879,39.4512214661,-54.9390258789,1.0,0.0,0.0,0.0,1.0,0.0,0.0,0.0,1.0,10.7356002441,5.47314499512,-4.19942941965,1.0,0.0,0.0,0.0,1.0,0.0,0.0,0.0,1.0
1463504686526543899,790,1463504686482321874,,-12.037815094,10.2530994415,83.2072372437,0.0101229995489,1.0,0.0,0.0,0.0,1.0,0.0,0.0,0.0,1.0,161.829269409,-189.268295288,-64.0853729248,1.0,0.0,0.0,0.0,1.0,0.0,0.0,0.0,1.0,-5.52581743164,4.10845004883,6.87614716797,1.0,0.0,0.0,0.0,1.0,0.0,0.0,0.0,1.0
1463504686526882301,791,1463504686496441121,,-10.7805376053,11.7524023056,82.0762939453,0.0122760003433,1.0,0.0,0.0,0.0,1.0,0.0,0.0,0.0,1.0,152.073165894,86.4024429321,-58.3536605835,1.0,0.0,0.0,0.0,1.0,0.0,0.0,0.0,1.0,9.98860932617,4.71178857493,-0.411802685547,1.0,0.0,0.0,0.0,1.0,0.0,0.0,0.0,1.0
1463504686527407246,792,1463504686505110316,,-9.66433238983,9.54444408417,81.5892486572,0.00964100006968,1.0,0.0,0.0,0.0,1.0,0.0,0.0,0.0,1.0,175.0,-182.987808228,-62.134147644,1.0,0.0,0.0,0.0,1.0,0.0,0.0,0.0,1.0,-6.48828649902,6.9767036377,0.727837304687,1.0,0.0,0.0,0.0,1.0,0.0,0.0,0.0,1.0
1463504686569568914,793,1463504686512758055,,-7.90787220001,9.73123645782,80.9355697632,0.00845700036734,1.0,0.0,0.0,0.0,1.0,0.0,0.0,0.0,1.0,219.634155273,71.2804870605,-54.634147644,1.0,0.0,0.0,0.0,1.0,0.0,0.0,0.0,1.0,-21.2940295654,-1.78128603516,-29.1565878174,1.0,0.0,0.0,0.0,1.0,0.0,0.0,0.0,1.0
1463504686569944135,794,1463504686522761275,,-5.79429674149,10.0303096771,80.3541030884,0.0100809996948,1.0,0.0,0.0,0.0,1.0,0.0,0.0,0.0,1.0,240.000015259,-1.34146344662,-43.7195129395,1.0,0.0,0.0,0.0,1.0,0.0,0.0,0.0,1.0,8.47068488911,1.36948334961,15.2223341553,1.0,0.0,0.0,0.0,1.0,0.0,0.0,0.0,1.0
1463504686570254519,795,1463504686533121646,,-3.72247576714,8.67592430115,79.9940643311,0.0100739998743,1.0,0.0,0.0,0.0,1.0,0.0,0.0,0.0,1.0,212.804885864,-77.5609741211,-30.0609760284,1.0,0.0,0.0,0.0,1.0,0.0,0.0,0.0,1.0,-19.7856825195,-2.59052619629,-3.26090266113,1.0,0.0,0.0,0.0,1.0,0.0,0.0,0.0,1.0
1463504686570582714,796,1463504686543103828,,-2.73345327377,10.7920598984,79.5976028442,0.0100919995457,1.0,0.0,0.0,0.0,1.0,0.0,0.0,0.0,1.0,118.292678833,251.463409424,-11.1585359573,1.0,0.0,0.0,0.0,1.0,0.0,0.0,0.0,1.0,-12.9191121582,2.62404501953,-15.5000615479,1.0,0.0,0.0,0.0,1.0,0.0,0.0,0.0,1.0
1463504686613601896,797,1463504686553170271,,-0.219588652253,11.1770296097,79.6333312988,0.0100699998438,1.0,0.0,0.0,0.0,1.0,0.0,0.0,0.0,1.0,254.756103516,-2.5,13.9634151459,1.0,0.0,0.0,0.0,1.0,0.0,0.0,0.0,1.0,19.4409174805,-3.88818349609,31.1772940186,1.0,0.0,0.0,0.0,1.0,0.0,0.0,0.0,1.0
1463504686614035445,798,1463504686563678230,,0.663227617741,7.56778430939,79.6448440552,0.0101030003279,1.0,0.0,0.0,0.0,1.0,0.0,0.0,0.0,1.0,132.682922363,-363.719512939,21.5243911743,1.0,0.0,0.0,0.0,1.0,0.0,0.0,0.0,1.0,4.35744702148,13.4793553467,-14.9877023926,1.0,0.0,0.0,0.0,1.0,0.0,0.0,0.0,1.0
1463504686614315155,799,1463504686592139357,,2.20505642891,7.05305719376,79.7594223022,0.0102129997686,1.0,0.0,0.0,0.0,1.0,0.0,0.0,0.0,1.0,164.512191772,-64.7561035156,25.2439041138,1.0,0.0,0.0,0.0,1.0,0.0,0.0,0.0,1.0,7.50342800293,1.97282216797,-20.4608473877,1.0,0.0,0.0,0.0,1.0,0.0,0.0,0.0,1.0
1463504686614576377,800,1463504686596022127,,4.8216714859,7.12461662292,80.7033843994,0.0208429992199,1.0,0.0,0.0,0.0,1.0,0.0,0.0,0.0,1.0,123.78049469,23.7804889679,55.1219520569,1.0,0.0,0.0,0.0,1.0,0.0,0.0,0.0,1.0,-5.37258852539,-3.06936652832,-22.0458088867,1.0,0.0,0.0,0.0,1.0,0.0,0.0,0.0,1.0
1463504686614954619,801,1463504686604702935,,6.09244966507,7.62618541718,81.0006637573,0.0102770002559,1.0,0.0,0.0,0.0,1.0,0.0,0.0,0.0,1.0,118.841468811,16.4024391174,37.317073822,1.0,0.0,0.0,0.0,1.0,0.0,0.0,0.0,1.0,10.9702320068,-3.99831677246,-11.4682259521,1.0,0.0,0.0,0.0,1.0,0.0,0.0,0.0,1.0
1463504686663343862,802,1463504686615484251,,7.41297197342,7.77999162674,81.5820846558,0.0103380000219,1.0,0.0,0.0,0.0,1.0,0.0,0.0,0.0,1.0,106.951225281,34.2682952881,60.7926826477,1.0,0.0,0.0,0.0,1.0,0.0,0.0,0.0,1.0,-6.78037910156,-21.317971582,-36.8850707764,1.0,0.0,0.0,0.0,1.0,0.0,0.0,0.0,1.0
1463504686663622167,803,1463504686628443984,,8.4195766449,9.7428855896,82.5548248291,0.00996300019324,1.0,0.0,0.0,0.0,1.0,0.0,0.0,0.0,1.0,110.0,217.012207031,80.8536605835,1.0,0.0,0.0,0.0,1.0,0.0,0.0,0.0,1.0,-1.22104284668,2.92571442871,-21.8351191406,1.0,0.0,0.0,0.0,1.0,0.0,0.0,0.0,1.0
1463504686663878494,804,1463504686634955801,,9.11169910431,9.90151500702,83.0245819092,0.0102040003985,1.0,0.0,0.0,0.0,1.0,0.0,0.0,0.0,1.0,59.8780517578,7.56097555161,54.5731735229,1.0,0.0,0.0,0.0,1.0,0.0,0.0,0.0,1.0,9.00698664551,-7.13950935059,-20.9253225098,1.0,0.0,0.0,0.0,1.0,0.0,0.0,0.0,1.0
1463504686664321052,805,1463504686646319816,,9.93203353882,8.98071956635,83.8422164917,0.0113730002195,1.0,0.0,0.0,0.0,1.0,0.0,0.0,0.0,1.0,44.8780479431,-36.8902435303,85.365852356,1.0,0.0,0.0,0.0,1.0,0.0,0.0,0.0,1.0,-7.65186850586,-3.73016618652,6.44040246582,1.0,0.0,0.0,0.0,1.0,0.0,0.0,0.0,1.0
1463504686664693252,806,1463504686655449066,,9.78265094757,9.0580329895,84.5486907959,0.00858299992979,1.0,0.0,0.0,0.0,1.0,0.0,0.0,0.0,1.0,-20.8536586761,61.8292655945,83.1097564697,1.0,0.0,0.0,0.0,1.0,0.0,0.0,0.0,1.0,-14.5806881104,-3.02627089844,-17.9134156522,1.0,0.0,0.0,0.0,1.0,0.0,0.0,0.0,1.0
1463504686721086083,807,1463504686665701219,,9.57000732422,12.1075649261,85.9182128906,0.0102829998359,1.0,0.0,0.0,0.0,1.0,0.0,0.0,0.0,1.0,-53.4146347046,324.085388184,86.0365829468,1.0,0.0,0.0,0.0,1.0,0.0,0.0,0.0,1.0,-1.57538469238,-10.6398321777,-20.0251026855,1.0,0.0,0.0,0.0,1.0,0.0,0.0,0.0,1.0
1463504686721341993,808,1463504686675146217,,10.1602678299,12.1027975082,86.5886688232,0.0099189998582,1.0,0.0,0.0,0.0,1.0,0.0,0.0,0.0,1.0,15.6707315445,-31.5853652954,75.3048782349,1.0,0.0,0.0,0.0,1.0,0.0,0.0,0.0,1.0,31.8716125,-31.7997864502,21.1216470459,1.0,0.0,0.0,0.0,1.0,0.0,0.0,0.0,1.0
1463504686721603372,809,1463504686689641727,,9.41819953918,9.55194377899,87.3528518677,0.0107270004228,1.0,0.0,0.0,0.0,1.0,0.0,0.0,0.0,1.0,-61.1585350037,-190.243911743,117.682929993,1.0,0.0,0.0,0.0,1.0,0.0,0.0,0.0,1.0,-53.4385810547,7.75242497559,-108.332836719,1.0,0.0,0.0,0.0,1.0,0.0,0.0,0.0,1.0
1463504686722080718,810,1463504686698347011,,8.07531547546,11.2384986877,88.8341903687,0.00947900023311,1.0,0.0,0.0,0.0,1.0,0.0,0.0,0.0,1.0,-160.975616455,250.731704712,127.5,1.0,0.0,0.0,0.0,1.0,0.0,0.0,0.0,1.0,-52.3133062744,-4.3382934082,-25.1486942383,1.0,0.0,0.0,0.0,1.0,0.0,0.0,0.0,1.0
1463504686722429744,811,1463504686706207488,,6.37438964844,14.1493015289,90.3492889404,0.010106000118,1.0,0.0,0.0,0.0,1.0,0.0,0.0,0.0,1.0,-195.548782349,250.548782349,127.317077637,1.0,0.0,0.0,0.0,1.0,0.0,0.0,0.0,1.0,41.3670162842,1.09175595703,28.4239621094,1.0,0.0,0.0,0.0,1.0,0.0,0.0,0.0,1.0
1463504686722871156,812,1463504686717538955,,5.11500644684,12.6216840744,90.8383636475,0.0101190004498,1.0,0.0,0.0,0.0,1.0,0.0,0.0,0.0,1.0,-134.268295288,-196.524398804,77.1951217651,1.0,0.0,0.0,0.0,1.0,0.0,0.0,0.0,1.0,16.1560728027,-1.40779057617,16.0507279297,1.0,0.0,0.0,0.0,1.0,0.0,0.0,0.0,1.0
1463504686731391668,813,1463504686727254914,,3.70413684845,10.4385766983,92.1620941162,0.011706000194,1.0,0.0,0.0,0.0,1.0,0.0,0.0,0.0,1.0,-146.158538818,-132.439025879,129.451217651,1.0,0.0,0.0,0.0,1.0,0.0,0.0,0.0,1.0,-41.7405117432,-8.58081933452,13.7810247559,1.0,0.0,0.0,0.0,1.0,0.0,0.0,0.0,1.0
1463504686765737281,814,1463504686736457073,,2.02665925026,13.1671257019,92.7056884766,0.00879899971187,1.0,0.0,0.0,0.0,1.0,0.0,0.0,0.0,1.0,-199.634155273,303.231719971,56.4024429321,1.0,0.0,0.0,0.0,1.0,0.0,0.0,0.0,1.0,24.4687409668,-12.378022583,-74.1292718018,1.0,0.0,0.0,0.0,1.0,0.0,0.0,0.0,1.0
1463504686766189630,815,1463504686749218598,,0.0566490851343,11.8854131699,93.3208084106,0.0128319999203,1.0,0.0,0.0,0.0,1.0,0.0,0.0,0.0,1.0,-163.231719971,-148.658538818,60.1219520569,1.0,0.0,0.0,0.0,1.0,0.0,0.0,0.0,1.0,12.0141039307,-2.20266552734,12.5647703125,1.0,0.0,0.0,0.0,1.0,0.0,0.0,0.0,1.0
1463504686766652133,816,1463504686755904355,,-1.32929885387,10.9972429276,93.6786880493,0.00704000005499,1.0,0.0,0.0,0.0,1.0,0.0,0.0,0.0,1.0,-180.365859985,-121.158531189,63.9024429321,1.0,0.0,0.0,0.0,1.0,0.0,0.0,0.0,1.0,0.995987890625,5.58327827148,-16.7642000244,1.0,0.0,0.0,0.0,1.0,0.0,0.0,0.0,1.0
1463504686776259250,817,1463504686766512252,,-3.14471340179,11.4530363083,94.1757278442,0.010153000243,1.0,0.0,0.0,0.0,1.0,0.0,0.0,0.0,1.0,-174.817077637,-2.13414645195,61.524394989,1.0,0.0,0.0,0.0,1.0,0.0,0.0,0.0,1.0,6.37815322266,0.651222851562,8.15465085449,1.0,0.0,0.0,0.0,1.0,0.0,0.0,0.0,1.0
1463504686782305959,818,1463504686778215242,,-4.86380720139,10.4457674026,94.7998428345,0.0105490004644,1.0,0.0,0.0,0.0,1.0,0.0,0.0,0.0,1.0,-142.195129395,-59.390247345,70.0609741211,1.0,0.0,0.0,0.0,1.0,0.0,0.0,0.0,1.0,-20.331560498,14.3556331543,-20.0681983154,1.0,0.0,0.0,0.0,1.0,0.0,0.0,0.0,1.0
1463504686794703668,819,1463504686786717162,,-6.91442537308,12.9386568069,94.5538864136,0.00960000045598,1.0,0.0,0.0,0.0,1.0,0.0,0.0,0.0,1.0,-212.012207031,221.402450562,8.5365858078,1.0,0.0,0.0,0.0,1.0,0.0,0.0,0.0,1.0,12.0667763672,-2.6862942627,-9.15063874512,1.0,0.0,0.0,0.0,1.0,0.0,0.0,0.0,1.0
1463504686801306360,820,1463504686796287772,,-8.4349937439,12.5275697708,94.665473938,0.0101220002398,1.0,0.0,0.0,0.0,1.0,0.0,0.0,0.0,1.0,-146.829269409,-62.4390258789,14.1463422775,1.0,0.0,0.0,0.0,1.0,0.0,0.0,0.0,1.0,9.02135185547,0.751779321289,-14.3412679443,1.0,0.0,0.0,0.0,1.0,0.0,0.0,0.0,1.0
1463504686822382377,821,1463504686809561691,,-10.3758745193,13.3559617996,94.4479751587,0.0118739996105,1.0,0.0,0.0,0.0,1.0,0.0,0.0,0.0,1.0,-139.268295288,45.8536605835,4.93902444839,1.0,0.0,0.0,0.0,1.0,0.0,0.0,0.0,1.0,9.73003554687,5.08528432617,-11.9997387207,1.0,0.0,0.0,0.0,1.0,0.0,0.0,0.0,1.0
1463504686822852015,822,1463504686816487892,,-11.5641489029,12.5431890488,94.3621063232,0.00831099972129,1.0,0.0,0.0,0.0,1.0,0.0,0.0,0.0,1.0,-122.378051758,-51.5853691101,-6.09756088257,1.0,0.0,0.0,0.0,1.0,0.0,0.0,0.0,1.0,-11.9997387207,5.39653054199,-12.5647703125,1.0,0.0,0.0,0.0,1.0,0.0,0.0,0.0,1.0
1463504686835703270,823,1463504686830436844,,-12.5609407425,15.515748024,93.1132736206,0.0101600000635,1.0,0.0,0.0,0.0,1.0,0.0,0.0,0.0,1.0,-74.3292694092,317.5,-44.2682914734,1.0,0.0,0.0,0.0,1.0,0.0,0.0,0.0,1.0,2.05901342773,-2.13562802699,-29.4774108398,1.0,0.0,0.0,0.0,1.0,0.0,0.0,0.0,1.0
1463504686848851578,824,1463504686842378507,,-13.7291202545,14.7246332169,92.625793457,0.0100680002943,1.0,0.0,0.0,0.0,1.0,0.0,0.0,0.0,1.0,-76.0975646973,-119.512199402,-57.6829299927,1.0,0.0,0.0,0.0,1.0,0.0,0.0,0.0,1.0,30.4590335205,10.5440641113,2.13562802699,1.0,0.0,0.0,0.0,1.0,0.0,0.0,0.0,1.0
1463504686848894282,825,1463504686847003490,,-13.6109724045,13.1890296936,92.4624862671,0.010108999908,1.0,0.0,0.0,0.0,1.0,0.0,0.0,0.0,1.0,2.98780488968,-128.963424683,-41.0365867615,1.0,0.0,0.0,0.0,1.0,0.0,0.0,0.0,1.0,-2.30322199707,-6.65588061523,-38.9488726074,1.0,0.0,0.0,0.0,1.0,0.0,0.0,0.0,1.0
1463504686862911977,826,1463504686860806000,,-13.9134979248,13.5918569565,91.5993652344,0.0101140001789,1.0,0.0,0.0,0.0,1.0,0.0,0.0,0.0,1.0,12.5,92.8658599854,-46.5853691101,1.0,0.0,0.0,0.0,1.0,0.0,0.0,0.0,1.0,-10.2711251221,8.84896933594,-15.2366993652,1.0,0.0,0.0,0.0,1.0,0.0,0.0,0.0,1.0
1463504686872773546,827,1463504686867338231,,-13.698343277,13.4151000977,91.0108795166,0.0100600002334,1.0,0.0,0.0,0.0,1.0,0.0,0.0,0.0,1.0,21.5853652954,-32.8048782349,-59.6951255798,1.0,0.0,0.0,0.0,1.0,0.0,0.0,0.0,1.0,3.62003291016,-1.34075292969,-3.69664736328,1.0,0.0,0.0,0.0,1.0,0.0,0.0,0.0,1.0
1463504686889744004,828,1463504686882444249,,-13.4383001328,13.6380500793,90.3414840698,0.0101169999689,1.0,0.0,0.0,0.0,1.0,0.0,0.0,0.0,1.0,52.7439041138,20.6097564697,-47.8658561707,1.0,0.0,0.0,0.0,1.0,0.0,0.0,0.0,1.0,6.86178195801,3.74453139648,-12.5743471191,1.0,0.0,0.0,0.0,1.0,0.0,0.0,0.0,1.0
1463504686901884813,829,1463504686888155525,,-13.0183992386,14.3489818573,89.7418289185,0.0101849995553,1.0,0.0,0.0,0.0,1.0,0.0,0.0,0.0,1.0,35.1829299927,75.6097564697,-35.4878044128,1.0,0.0,0.0,0.0,1.0,0.0,0.0,0.0,1.0,5.40610734863,-6.3637880127,-17.1185418701,1.0,0.0,0.0,0.0,1.0,0.0,0.0,0.0,1.0
1463504686902099530,830,1463504686898349403,,-12.4590215683,12.7543783188,89.578994751,0.0105140004307,1.0,0.0,0.0,0.0,1.0,0.0,0.0,0.0,1.0,55.7317085266,-95.7317123413,-27.1341457367,1.0,0.0,0.0,0.0,1.0,0.0,0.0,0.0,1.0,-8.99262143555,-0.61770402832,-6.67982263184,1.0,0.0,0.0,0.0,1.0,0.0,0.0,0.0,1.0
1463504686925444580,831,1463504686915085146,,-12.4145879745,12.2751626968,89.3629989624,0.0149339996278,1.0,0.0,0.0,0.0,1.0,0.0,0.0,0.0,1.0,35.4268302917,-0.0609756112099,2.80487799644,1.0,0.0,0.0,0.0,1.0,0.0,0.0,0.0,1.0,-8.79629689941,2.77727392578,8.00142194824,1.0,0.0,0.0,0.0,1.0,0.0,0.0,0.0,1.0
1463504686926495459,832,1463504686919065458,,-11.8628053665,11.5793857574,89.480178833,0.00546200014651,1.0,0.0,0.0,0.0,1.0,0.0,0.0,0.0,1.0,52.1951255798,-133.414642334,-7.01219511032,1.0,0.0,0.0,0.0,1.0,0.0,0.0,0.0,1.0,0.205901342773,-6.72291826172,0.210689746094,1.0,0.0,0.0,0.0,1.0,0.0,0.0,0.0,1.0
1463504686929473375,833,1463504686927642005,,-11.7970085144,11.2658128738,89.3008499146,0.0094229998067,1.0,0.0,0.0,0.0,1.0,0.0,0.0,0.0,1.0,9.45121955872,23.8414649963,-3.65853667259,1.0,0.0,0.0,0.0,1.0,0.0,0.0,0.0,1.0,-26.5277543945,-4.0318355957,-6.00944616699,1.0,0.0,0.0,0.0,1.0,0.0,0.0,0.0,1.0
1463504686943476593,834,1463504686937847809,,-11.635424614,11.618396759,89.4460067749,0.0100520001724,1.0,0.0,0.0,0.0,1.0,0.0,0.0,0.0,1.0,-15.548781395,-7.62195110321,17.5000019073,1.0,0.0,0.0,0.0,1.0,0.0,0.0,0.0,1.0,8.47068488911,-10.0125513428,3.0166940918,1.0,0.0,0.0,0.0,1.0,0.0,0.0,0.0,1.0
1463504686966017092,835,1463504686947877902,,-11.5247449875,11.6834201813,89.9423294067,0.0101180002093,1.0,0.0,0.0,0.0,1.0,0.0,0.0,0.0,1.0,-0.914634168148,-5.79268312454,57.8658561707,1.0,0.0,0.0,0.0,1.0,0.0,0.0,0.0,1.0,2.1691467041,-0.0143652099609,-10.180145459,1.0,0.0,0.0,0.0,1.0,0.0,0.0,0.0,1.0
1463504686966067607,836,1463504686957832222,,-11.8141231537,11.328127861,90.3785476685,0.0100910002366,1.0,0.0,0.0,0.0,1.0,0.0,0.0,0.0,1.0,-47.0731697083,-15.9146347046,48.2317085266,1.0,0.0,0.0,0.0,1.0,0.0,0.0,0.0,1.0,-8.44674287251,-3.85945307617,-22.543802832,1.0,0.0,0.0,0.0,1.0,0.0,0.0,0.0,1.0
1463504686983209506,837,1463504686967985479,,-12.5061216354,12.6166477203,90.8139953613,0.0100910002366,1.0,0.0,0.0,0.0,1.0,0.0,0.0,0.0,1.0,-94.9390258789,67.134147644,65.0,1.0,0.0,0.0,0.0,1.0,0.0,0.0,0.0,1.0,10.0795889893,-6.76122548828,3.11725056152,1.0,0.0,0.0,0.0,1.0,0.0,0.0,0.0,1.0
1463504686983923181,838,1463504686978328299,,-13.0048809052,11.8218650818,91.5613250732,0.0101429997012,1.0,0.0,0.0,0.0,1.0,0.0,0.0,0.0,1.0,-69.1463470459,-79.7560958862,64.8170776367,1.0,0.0,0.0,0.0,1.0,0.0,0.0,0.0,1.0,-1.47003981934,-0.866701000977,-31.2826388916,1.0,0.0,0.0,0.0,1.0,0.0,0.0,0.0,1.0
1463504686994105810,839,1463504686988595295,,-14.44851017,13.4504041672,91.94556427,0.0100870002061,1.0,0.0,0.0,0.0,1.0,0.0,0.0,0.0,1.0,-142.743896484,94.2682952881,74.5731735229,1.0,0.0,0.0,0.0,1.0,0.0,0.0,0.0,1.0,9.69172832031,-1.48919343262,6.13873305664,1.0,0.0,0.0,0.0,1.0,0.0,0.0,0.0,1.0
1463504687003818123,840,1463504686998474206,,-15.5612030029,11.6623764038,92.9963684082,0.0101009998471,1.0,0.0,0.0,0.0,1.0,0.0,0.0,0.0,1.0,-143.597564697,-176.280487061,64.7561035156,1.0,0.0,0.0,0.0,1.0,0.0,0.0,0.0,1.0,-6.49307490234,-3.99831677246,-31.9386501465,1.0,0.0,0.0,0.0,1.0,0.0,0.0,0.0,1.0
1463504687012818475,841,1463504687008646259,,-17.352678299,13.4872779846,93.1459274292,0.0100739998743,1.0,0.0,0.0,0.0,1.0,0.0,0.0,0.0,1.0,-183.719512939,115.731712341,60.5487823486,1.0,0.0,0.0,0.0,1.0,0.0,0.0,0.0,1.0,15.6915976807,-5.38216533203,5.62637390137,1.0,0.0,0.0,0.0,1.0,0.0,0.0,0.0,1.0
1463504687029155348,842,1463504687018870442,,-19.1535549164,13.0588493347,94.068977356,0.0101429997012,1.0,0.0,0.0,0.0,1.0,0.0,0.0,0.0,1.0,-190.0,-106.646339417,70.9146347046,1.0,0.0,0.0,0.0,1.0,0.0,0.0,0.0,1.0,2.67671745605,-1.52271225586,4.63517441406,1.0,0.0,0.0,0.0,1.0,0.0,0.0,0.0,1.0
1463504687051956905,843,1463504687028857463,,-21.672164917,13.746846199,94.4199676514,0.0100659998134,1.0,0.0,0.0,0.0,1.0,0.0,0.0,0.0,1.0,-253.536590576,103.536590576,85.4268341064,1.0,0.0,0.0,0.0,1.0,0.0,0.0,0.0,1.0,-23.798364502,-0.186747729492,-5.04697709961,1.0,0.0,0.0,0.0,1.0,0.0,0.0,0.0,1.0
1463504687053303638,844,1463504687038999468,,-24.2416667938,14.5460262299,94.8852920532,0.010111999698,1.0,0.0,0.0,0.0,1.0,0.0,0.0,0.0,1.0,-244.085372925,7.19512224197,68.9024429321,1.0,0.0,0.0,0.0,1.0,0.0,0.0,0.0,1.0,18.4401411865,-1.03908344744,18.2438166504,1.0,0.0,0.0,0.0,1.0,0.0,0.0,0.0,1.0
1463504687053373370,845,1463504687049524140,,-26.199640274,12.8799171448,96.2665252686,0.0101509997621,1.0,0.0,0.0,0.0,1.0,0.0,0.0,0.0,1.0,-239.878051758,-176.829269409,67.7439041138,1.0,0.0,0.0,0.0,1.0,0.0,0.0,0.0,1.0,-12.0619879639,-1.80043964844,-33.6098029053,1.0,0.0,0.0,0.0,1.0,0.0,0.0,0.0,1.0
1463504687083114508,846,1463504687059110526,,-29.5782585144,15.25481987,95.518699646,0.0100910002366,1.0,0.0,0.0,0.0,1.0,0.0,0.0,0.0,1.0,-291.463439941,193.841461182,41.1585350037,1.0,0.0,0.0,0.0,1.0,0.0,0.0,0.0,1.0,18.8232134521,0.134075302102,16.668431958,1.0,0.0,0.0,0.0,1.0,0.0,0.0,0.0,1.0
1463504687083638776,847,1463504687069321586,,-31.9621181488,13.7703113556,96.5318069458,0.0100530004129,1.0,0.0,0.0,0.0,1.0,0.0,0.0,0.0,1.0,-251.34147644,-153.841461182,34.5731735229,1.0,0.0,0.0,0.0,1.0,0.0,0.0,0.0,1.0,-22.8837794678,-9.78749638672,19.3116305908,1.0,0.0,0.0,0.0,1.0,0.0,0.0,0.0,1.0
1463504687083685906,848,1463504687079447811,,-34.9784355164,16.5179271698,94.8400268555,0.0102009996772,1.0,0.0,0.0,0.0,1.0,0.0,0.0,0.0,1.0,-266.646362305,357.134155273,50.9756088257,1.0,0.0,0.0,0.0,1.0,0.0,0.0,0.0,1.0,-15.0786820557,-4.29040966726,-6.60320817871,1.0,0.0,0.0,0.0,1.0,0.0,0.0,0.0,1.0
1463504687091532215,849,1463504687089888378,,-38.3139076233,16.5251369476,94.7233657837,0.0101460004225,1.0,0.0,0.0,0.0,1.0,0.0,0.0,0.0,1.0,-301.036590576,-39.3292694092,-21.8902435303,1.0,0.0,0.0,0.0,1.0,0.0,0.0,0.0,1.0,25.3019231445,-3.55299526367,21.4281048584,1.0,0.0,0.0,0.0,1.0,0.0,0.0,0.0,1.0
1463504687102274208,850,1463504687099627508,,-39.745475769,13.4065237045,97.0006713867,0.00996199995279,1.0,0.0,0.0,0.0,1.0,0.0,0.0,0.0,1.0,-223.84147644,-356.707305908,-4.93902444839,1.0,0.0,0.0,0.0,1.0,0.0,0.0,0.0,1.0,-43.622354248,7.16823977051,-146.711879979,1.0,0.0,0.0,0.0,1.0,0.0,0.0,0.0,1.0
1463504687113255656,851,1463504687109686448,,-43.0931358337,15.9161720276,93.942199707,0.0101950000972,1.0,0.0,0.0,0.0,1.0,0.0,0.0,0.0,1.0,-272.987823486,361.463409424,-60.7317085266,1.0,0.0,0.0,0.0,1.0,0.0,0.0,0.0,1.0,50.5368086426,-0.129286889648,-75.4891830209,1.0,0.0,0.0,0.0,1.0,0.0,0.0,0.0,1.0
1463504687126341204,852,1463504687119578271,,-45.9580383301,14.8729410172,93.8980484009,0.0100039998069,1.0,0.0,0.0,0.0,1.0,0.0,0.0,0.0,1.0,-234.268310547,-97.4390258789,-70.6097564697,1.0,0.0,0.0,0.0,1.0,0.0,0.0,0.0,1.0,6.94318481445,4.37660063477,30.2291901611,1.0,0.0,0.0,0.0,1.0,0.0,0.0,0.0,1.0
1463504687132669861,853,1463504687130271624,,-47.3008041382,14.2432394028,93.6286849976,0.0102589996532,1.0,0.0,0.0,0.0,1.0,0.0,0.0,0.0,1.0,-97.865852356,-18.1097564697,-35.3658561707,1.0,0.0,0.0,0.0,1.0,0.0,0.0,0.0,1.0,-26.0728560791,-18.641254126,40.0837241943,1.0,0.0,0.0,0.0,1.0,0.0,0.0,0.0,1.0
1463504687150145988,854,1463504687140259113,,-49.9419288635,14.8299942017,91.1201248169,0.0100729996338,1.0,0.0,0.0,0.0,1.0,0.0,0.0,0.0,1.0,-135.731704712,206.463424683,-93.1707382202,1.0,0.0,0.0,0.0,1.0,0.0,0.0,0.0,1.0,0.60812722168,16.4625306152,14.6860329834,1.0,0.0,0.0,0.0,1.0,0.0,0.0,0.0,1.0
1463504687154212748,855,1463504687150193379,,-50.3531150818,12.2355566025,92.1628799438,0.00996300019324,1.0,0.0,0.0,0.0,1.0,0.0,0.0,0.0,1.0,-100.121955872,-224.146347046,-114.878044128,1.0,0.0,0.0,0.0,1.0,0.0,0.0,0.0,1.0,-9.76355437012,-3.40934316406,-38.8483161377,1.0,0.0,0.0,0.0,1.0,0.0,0.0,0.0,1.0
1463504687166474581,856,1463504687160066350,,-51.7401428223,13.612944603,88.0055770874,0.0101180002093,1.0,0.0,0.0,0.0,1.0,0.0,0.0,0.0,1.0,-75.1219558716,383.292694092,-158.963409424,1.0,0.0,0.0,0.0,1.0,0.0,0.0,0.0,1.0,77.6774739859,-18.7609630399,-105.37839187,1.0,0.0,0.0,0.0,1.0,0.0,0.0,0.0,1.0
1463504687172837556,857,1463504687170465879,,-51.7557449341,12.7547473907,87.3166427612,0.0102279996499,1.0,0.0,0.0,0.0,1.0,0.0,0.0,0.0,1.0,9.20731735229,-28.5365848541,-133.231704712,1.0,0.0,0.0,0.0,1.0,0.0,0.0,0.0,1.0,22.6395708984,2.14520483363,-9.56244201519,1.0,0.0,0.0,0.0,1.0,0.0,0.0,0.0,1.0
1463504687182078093,858,1463504687180312238,,-51.8493003845,10.6373271942,87.166809082,0.0100760003552,1.0,0.0,0.0,0.0,1.0,0.0,0.0,0.0,1.0,33.1097564697,-107.804878235,-135.365859985,1.0,0.0,0.0,0.0,1.0,0.0,0.0,0.0,1.0,-5.23851323242,-0.679953271484,6.07648381348,1.0,0.0,0.0,0.0,1.0,0.0,0.0,0.0,1.0
1463504687199993706,859,1463504687190512309,,-52.3956947327,10.8203048706,84.1709594727,0.00998700037599,1.0,0.0,0.0,0.0,1.0,0.0,0.0,0.0,1.0,-2.86585378647,276.890258789,-111.829269409,1.0,0.0,0.0,0.0,1.0,0.0,0.0,0.0,1.0,-35.6736023982,3.9360675293,-14.7291286133,1.0,0.0,0.0,0.0,1.0,0.0,0.0,0.0,1.0
1463504687204225031,860,1463504687200568958,,-51.7112617493,10.4618177414,81.8048782349,0.0101250000298,1.0,0.0,0.0,0.0,1.0,0.0,0.0,0.0,1.0,161.097564697,173.841461182,-121.34147644,1.0,0.0,0.0,0.0,1.0,0.0,0.0,0.0,1.0,-17.8224371582,16.9844665771,12.7610948486,1.0,0.0,0.0,0.0,1.0,0.0,0.0,0.0,1.0
1463504687225799530,861,1463504687210571238,,-50.3954086304,8.83508014679,80.1851119995,0.0101439999416,1.0,0.0,0.0,0.0,1.0,0.0,0.0,0.0,1.0,150.182922363,53.5365867615,-172.804885864,1.0,0.0,0.0,0.0,1.0,0.0,0.0,0.0,1.0,-25.6466881836,-7.78115539551,-3.46201560059,1.0,0.0,0.0,0.0,1.0,0.0,0.0,0.0,1.0
1463504687226219329,862,1463504687220811670,,-49.0761947632,8.75824165344,78.424156189,0.0100549999624,1.0,0.0,0.0,0.0,1.0,0.0,0.0,0.0,1.0,185.914642334,88.6585388184,-144.695129395,1.0,0.0,0.0,0.0,1.0,0.0,0.0,0.0,1.0,20.7146327637,2.7341782959,7.3310454834,1.0,0.0,0.0,0.0,1.0,0.0,0.0,0.0,1.0
1463504687237726398,863,1463504687230647717,,-46.7386322021,6.5683555603,77.8867111206,0.0100809996948,1.0,0.0,0.0,0.0,1.0,0.0,0.0,0.0,1.0,212.073181152,-77.1951217651,-157.256103516,1.0,0.0,0.0,0.0,1.0,0.0,0.0,0.0,1.0,-32.3408783635,-7.66623371582,-33.4038992244,1.0,0.0,0.0,0.0,1.0,0.0,0.0,0.0,1.0
1463504687247744197,864,1463504687244881530,,-44.4894561768,9.24206066132,72.7842254639,0.0110790003091,1.0,0.0,0.0,0.0,1.0,0.0,0.0,0.0,1.0,277.134155273,473.231689453,-153.536590576,1.0,0.0,0.0,0.0,1.0,0.0,0.0,0.0,1.0,12.3253501465,12.5312514893,-10.8840407471,1.0,0.0,0.0,0.0,1.0,0.0,0.0,0.0,1.0
1463504687264279903,865,1463504687251547286,,-42.7547492981,8.67361164093,71.6671295166,0.00913199968636,1.0,0.0,0.0,0.0,1.0,0.0,0.0,0.0,1.0,246.585357666,1.34146344662,-146.280502319,1.0,0.0,0.0,0.0,1.0,0.0,0.0,0.0,1.0,20.7289979736,0.502782348633,20.3507141113,1.0,0.0,0.0,0.0,1.0,0.0,0.0,0.0,1.0
1463504687264723919,866,1463504687261238036,,-38.8283843994,4.87792348862,72.8965454102,0.0101150004193,1.0,0.0,0.0,0.0,1.0,0.0,0.0,0.0,1.0,336.219512939,-343.04876709,-132.195129395,1.0,0.0,0.0,0.0,1.0,0.0,0.0,0.0,1.0,-12.3492921631,-11.3102086426,-29.9897699951,1.0,0.0,0.0,0.0,1.0,0.0,0.0,0.0,1.0
1463504687276480597,867,1463504687271121630,,-36.3498649597,5.15781497955,70.4582214355,0.0100760003552,1.0,0.0,0.0,0.0,1.0,0.0,0.0,0.0,1.0,268.536590576,139.329269409,-184.756103516,1.0,0.0,0.0,0.0,1.0,0.0,0.0,0.0,1.0,18.2438166504,-19.8431433594,17.3435979952,1.0,0.0,0.0,0.0,1.0,0.0,0.0,0.0,1.0
1463504687284335395,868,1463504687281543241,,-33.7527809143,4.59003305435,70.2070007324,0.0100999996066,1.0,0.0,0.0,0.0,1.0,0.0,0.0,0.0,1.0,267.134155273,-76.4634170532,-72.2560958862,1.0,0.0,0.0,0.0,1.0,0.0,0.0,0.0,1.0,16.6780087646,-5.31991608887,6.40688364258,1.0,0.0,0.0,0.0,1.0,0.0,0.0,0.0,1.0
1463504687296187375,869,1463504687293482400,,-31.5138263702,5.7345700264,68.5060348511,0.0101180002093,1.0,0.0,0.0,0.0,1.0,0.0,0.0,0.0,1.0,222.621948242,160.609771729,-84.9390258789,1.0,0.0,0.0,0.0,1.0,0.0,0.0,0.0,1.0,13.8672160156,1.54665427246,-20.2166388184,1.0,0.0,0.0,0.0,1.0,0.0,0.0,0.0,1.0
1463504687316465656,870,1463504687301418491,,-29.229341507,5.63638210297,68.2971801758,0.0101030003279,1.0,0.0,0.0,0.0,1.0,0.0,0.0,0.0,1.0,218.414642334,-21.7682933807,-26.158536911,1.0,0.0,0.0,0.0,1.0,0.0,0.0,0.0,1.0,16.4194349854,3.50989963379,-24.9763117187,1.0,0.0,0.0,0.0,1.0,0.0,0.0,0.0,1.0
1463504687316841502,871,1463504687314130537,,-26.8330974579,6.66705131531,67.3145446777,0.0102960001677,1.0,0.0,0.0,0.0,1.0,0.0,0.0,0.0,1.0,242.804885864,84.4512176514,-51.4634170532,1.0,0.0,0.0,0.0,1.0,0.0,0.0,0.0,1.0,8.09719001465,-2.93529123535,2.18351191406,1.0,0.0,0.0,0.0,1.0,0.0,0.0,0.0,1.0
1463504687343438908,872,1463504687321822800,,-25.2229118347,4.61369466782,67.9855499268,0.00991099979728,1.0,0.0,0.0,0.0,1.0,0.0,0.0,0.0,1.0,178.353652954,-212.865859985,-14.4512205124,1.0,0.0,0.0,0.0,1.0,0.0,0.0,0.0,1.0,-5.67425793457,-5.37737692871,23.3291009766,1.0,0.0,0.0,0.0,1.0,0.0,0.0,0.0,1.0
1463504687344211327,873,1463504687333731493,,-23.1145362854,5.61639976501,66.8945465088,0.0105830002576,1.0,0.0,0.0,0.0,1.0,0.0,0.0,0.0,1.0,201.89024353,172.073165894,-22.1951236725,1.0,0.0,0.0,0.0,1.0,0.0,0.0,0.0,1.0,-15.2414877686,-1.08696755371,-9.39484672993,1.0,0.0,0.0,0.0,1.0,0.0,0.0,0.0,1.0
1463504687344644042,874,1463504687342116339,,-21.0299263,4.8455581665,66.7175521851,0.00966299977154,1.0,0.0,0.0,0.0,1.0,0.0,0.0,0.0,1.0,237.195129395,-75.4878082275,-36.4634170532,1.0,0.0,0.0,0.0,1.0,0.0,0.0,0.0,1.0,0.411802685547,-7.80030900879,34.9744978516,1.0,0.0,0.0,0.0,1.0,0.0,0.0,0.0,1.0
1463504687387445887,875,1463504687351985456,,-19.0417499542,4.93655061722,66.3204574585,0.0100360000506,1.0,0.0,0.0,0.0,1.0,0.0,0.0,0.0,1.0,182.926834106,42.8658561707,-15.4268302917,1.0,0.0,0.0,0.0,1.0,0.0,0.0,0.0,1.0,-13.1298019043,-6.36857641602,-33.9545679443,1.0,0.0,0.0,0.0,1.0,0.0,0.0,0.0,1.0
1463504687387777831,876,1463504687362034606,,-17.6296005249,5.53646373749,66.3162155151,0.0101819997653,1.0,0.0,0.0,0.0,1.0,0.0,0.0,0.0,1.0,169.207321167,44.0853652954,28.8414649963,1.0,0.0,0.0,0.0,1.0,0.0,0.0,0.0,1.0,0.962469067383,0.560243188477,10.7691190674,1.0,0.0,0.0,0.0,1.0,0.0,0.0,0.0,1.0
1463504687388065145,877,1463504687372090317,,-16.2711353302,4.93339014053,66.5154342651,0.0100220004097,1.0,0.0,0.0,0.0,1.0,0.0,0.0,0.0,1.0,118.231712341,-31.2804889679,21.7682933807,1.0,0.0,0.0,0.0,1.0,0.0,0.0,0.0,1.0,-20.3363489014,-7.38371791992,-29.3577007568,1.0,0.0,0.0,0.0,1.0,0.0,0.0,0.0,1.0
1463504687388456197,878,1463504687382261589,,-15.4185152054,5.77134466171,66.7730407715,0.0100919995457,1.0,0.0,0.0,0.0,1.0,0.0,0.0,0.0,1.0,71.158531189,23.7195129395,43.5975608826,1.0,0.0,0.0,0.0,1.0,0.0,0.0,0.0,1.0,10.3956236084,-5.67904633789,3.63918652344,1.0,0.0,0.0,0.0,1.0,0.0,0.0,0.0,1.0
1463504687424661081,879,1463504687392260015,,-14.0483875275,4.92367362976,67.4163894653,0.0101110003889,1.0,0.0,0.0,0.0,1.0,0.0,0.0,0.0,1.0,85.6097564697,-115.548782349,41.7073173523,1.0,0.0,0.0,0.0,1.0,0.0,0.0,0.0,1.0,1.59932670898,-4.39575424805,-1.50355864258,1.0,0.0,0.0,0.0,1.0,0.0,0.0,0.0,1.0
1463504687424986932,880,1463504687404810204,,-13.2455472946,4.55534982681,67.7070770264,0.0107720000669,1.0,0.0,0.0,0.0,1.0,0.0,0.0,0.0,1.0,54.1463432312,-1.95121955872,37.6219520569,1.0,0.0,0.0,0.0,1.0,0.0,0.0,0.0,1.0,-22.9412403076,-11.3676694824,-22.677878125,1.0,0.0,0.0,0.0,1.0,0.0,0.0,0.0,1.0
1463504687425269142,881,1463504687412498821,,-12.8881158829,7.37182378769,67.7553024292,0.00942400004715,1.0,0.0,0.0,0.0,1.0,0.0,0.0,0.0,1.0,20.1219520569,240.487808228,71.5243911743,1.0,0.0,0.0,0.0,1.0,0.0,0.0,0.0,1.0,17.774553125,-8.71010563965,-4.29040966726,1.0,0.0,0.0,0.0,1.0,0.0,0.0,0.0,1.0
1463504687425656706,882,1463504687422502455,,-12.614066124,6.47587299347,68.5025863647,0.0101070003584,1.0,0.0,0.0,0.0,1.0,0.0,0.0,0.0,1.0,-21.4024391174,-127.134147644,52.1951255798,1.0,0.0,0.0,0.0,1.0,0.0,0.0,0.0,1.0,4.69263496165,-11.0660000732,1.29286889648,1.0,0.0,0.0,0.0,1.0,0.0,0.0,0.0,1.0
1463504687450779215,883,1463504687432836262,,-13.0766630173,7.16549634933,68.9479904175,0.010156000033,1.0,0.0,0.0,0.0,1.0,0.0,0.0,0.0,1.0,-43.1097564697,108.231712341,81.5853652954,1.0,0.0,0.0,0.0,1.0,0.0,0.0,0.0,1.0,-19.8383549561,0.981622680664,-6.84741674805,1.0,0.0,0.0,0.0,1.0,0.0,0.0,0.0,1.0
1463504687451178757,884,1463504687442791932,,-13.9294023514,6.29279232025,69.5129013062,0.010153000243,1.0,0.0,0.0,0.0,1.0,0.0,0.0,0.0,1.0,-66.4024353027,-46.4024391174,59.6951255798,1.0,0.0,0.0,0.0,1.0,0.0,0.0,0.0,1.0,-13.3883756836,3.64876333008,0.646434448242,1.0,0.0,0.0,0.0,1.0,0.0,0.0,0.0,1.0
1463504687468457614,885,1463504687453513719,,-14.6545858383,8.87151622772,69.440826416,0.0105010000989,1.0,0.0,0.0,0.0,1.0,0.0,0.0,0.0,1.0,-74.634147644,285.792663574,76.7073135376,1.0,0.0,0.0,0.0,1.0,0.0,0.0,0.0,1.0,-22.7497041748,-4.0557776123,-15.3420442383,1.0,0.0,0.0,0.0,1.0,0.0,0.0,0.0,1.0
1463504687468904962,886,1463504687463133070,,-15.1181459427,9.61687278748,69.7339706421,0.00959799997509,1.0,0.0,0.0,0.0,1.0,0.0,0.0,0.0,1.0,-57.134147644,12.3780488968,45.182926178,1.0,0.0,0.0,0.0,1.0,0.0,0.0,0.0,1.0,39.5809418457,-12.1098719971,7.55610043945,1.0,0.0,0.0,0.0,1.0,0.0,0.0,0.0,1.0
1463504687486478580,887,1463504687473100874,,-16.2983760834,6.949177742,70.9643249512,0.0100910002366,1.0,0.0,0.0,0.0,1.0,0.0,0.0,0.0,1.0,-134.512191772,-337.012207031,41.5243911743,1.0,0.0,0.0,0.0,1.0,0.0,0.0,0.0,1.0,9.23683000488,-0.746990917969,-3.36145913086,1.0,0.0,0.0,0.0,1.0,0.0,0.0,0.0,1.0
1463504687486903848,888,1463504687483398800,,-17.550819397,7.0956993103,71.1250686646,0.0101110003889,1.0,0.0,0.0,0.0,1.0,0.0,0.0,0.0,1.0,-122.743904114,60.7926826477,46.4024391174,1.0,0.0,0.0,0.0,1.0,0.0,0.0,0.0,1.0,-28.1893303467,-2.95444484863,-0.694318481445,1.0,0.0,0.0,0.0,1.0,0.0,0.0,0.0,1.0
1463504687515521458,889,1463504687493493987,,-18.6170425415,8.16964149475,70.9201202393,0.010098000057,1.0,0.0,0.0,0.0,1.0,0.0,0.0,0.0,1.0,-127.195129395,128.536590576,29.2073173523,1.0,0.0,0.0,0.0,1.0,0.0,0.0,0.0,1.0,-12.1194488037,-12.8472861084,-33.1932094783,1.0,0.0,0.0,0.0,1.0,0.0,0.0,0.0,1.0
1463504687516002189,890,1463504687506491107,,-19.2269325256,9.03263187408,70.993309021,0.0101269995794,1.0,0.0,0.0,0.0,1.0,0.0,0.0,0.0,1.0,-50.6707344055,44.1463432312,35.9756088257,1.0,0.0,0.0,0.0,1.0,0.0,0.0,0.0,1.0,13.8720044189,-7.6135612793,24.9332160889,1.0,0.0,0.0,0.0,1.0,0.0,0.0,0.0,1.0
1463504687516364078,891,1463504687514193265,,-20.3312320709,6.70448541641,71.736831665,0.0100819999352,1.0,0.0,0.0,0.0,1.0,0.0,0.0,0.0,1.0,-81.0365905762,-291.524383545,-9.45121955872,1.0,0.0,0.0,0.0,1.0,0.0,0.0,0.0,1.0,13.7139871094,7.28794985352,5.32470449219,1.0,0.0,0.0,0.0,1.0,0.0,0.0,0.0,1.0
1463504687549409919,892,1463504687527139401,,-21.8648948669,8.44322681427,71.1950836182,0.0120970001444,1.0,0.0,0.0,0.0,1.0,0.0,0.0,0.0,1.0,-108.048782349,200.609771729,42.8658561707,1.0,0.0,0.0,0.0,1.0,0.0,0.0,0.0,1.0,-30.7846449463,3.29442148437,-2.89698400879,1.0,0.0,0.0,0.0,1.0,0.0,0.0,0.0,1.0
1463504687549525168,893,1463504687534465035,,-22.7988166809,9.13174915314,70.645362854,0.00810599979013,1.0,0.0,0.0,0.0,1.0,0.0,0.0,0.0,1.0,-61.7682952881,107.439025879,-9.63414573669,1.0,0.0,0.0,0.0,1.0,0.0,0.0,0.0,1.0,-5.32470449219,5.74129558105,19.029115964,1.0,0.0,0.0,0.0,1.0,0.0,0.0,0.0,1.0
