%time,field.header.seq,field.header.stamp,field.header.frame_id,field.orientation.x,field.orientation.y,field.orientation.z,field.orientation.w,field.orientation_covariance0,field.orientation_covariance1,field.orientation_covariance2,field.orientation_covariance3,field.orientation_covariance4,field.orientation_covariance5,field.orientation_covariance6,field.orientation_covariance7,field.orientation_covariance8,field.angular_velocity.x,field.angular_velocity.y,field.angular_velocity.z,field.angular_velocity_covariance0,field.angular_velocity_covariance1,field.angular_velocity_covariance2,field.angular_velocity_covariance3,field.angular_velocity_covariance4,field.angular_velocity_covariance5,field.angular_velocity_covariance6,field.angular_velocity_covariance7,field.angular_velocity_covariance8,field.linear_acceleration.x,field.linear_acceleration.y,field.linear_acceleration.z,field.linear_acceleration_covariance0,field.linear_acceleration_covariance1,field.linear_acceleration_covariance2,field.linear_acceleration_covariance3,field.linear_acceleration_covariance4,field.linear_acceleration_covariance5,field.linear_acceleration_covariance6,field.linear_acceleration_covariance7,field.linear_acceleration_covariance8
1463470180275219022,374,1463470180061547407,,-5.61780881882,4.29652309418,-178.83833313,0.0100090000778,1.0,0.0,0.0,0.0,1.0,0.0,0.0,0.0,1.0,-2.13414645195,61.3414611816,16.6463413239,1.0,0.0,0.0,0.0,1.0,0.0,0.0,0.0,1.0,-1.58974990234,2.12605122035,-12.0571995605,1.0,0.0,0.0,0.0,1.0,0.0,0.0,0.0,1.0
1463470180275432043,375,1463470180071684835,,-5.67935419083,4.91404247284,-178.738815308,0.0100830001757,1.0,0.0,0.0,0.0,1.0,0.0,0.0,0.0,1.0,6.15853643417,59.8170700073,13.9024391174,1.0,0.0,0.0,0.0,1.0,0.0,0.0,0.0,1.0,0.440533105469,1.2976572998,-11.5879360352,1.0,0.0,0.0,0.0,1.0,0.0,0.0,0.0,1.0
1463470180276342457,376,1463470180081513358,,-5.68083238602,5.50740098953,-178.606628418,0.00994300004095,1.0,0.0,0.0,0.0,1.0,0.0,0.0,0.0,1.0,7.25609779358,56.7073173523,16.6463413239,1.0,0.0,0.0,0.0,1.0,0.0,0.0,0.0,1.0,0.823605371094,0.392649072266,-11.6645504883,1.0,0.0,0.0,0.0,1.0,0.0,0.0,0.0,1.0
1463470180276448655,377,1463470180091736255,,-5.69860076904,6.06011295319,-178.420059204,0.0100440001115,1.0,0.0,0.0,0.0,1.0,0.0,0.0,0.0,1.0,5.30487823486,52.5,21.4634151459,1.0,0.0,0.0,0.0,1.0,0.0,0.0,0.0,1.0,0.77093293457,0.474051928711,-11.9805851074,1.0,0.0,0.0,0.0,1.0,0.0,0.0,0.0,1.0
1463470180276498343,378,1463470180101513527,,-5.66648054123,6.57618522644,-178.184631348,0.00990999955684,1.0,0.0,0.0,0.0,1.0,0.0,0.0,0.0,1.0,6.21951246262,46.7073173523,25.6097564697,1.0,0.0,0.0,0.0,1.0,0.0,0.0,0.0,1.0,1.50355864258,-0.268150604204,-12.9382657715,1.0,0.0,0.0,0.0,1.0,0.0,0.0,0.0,1.0
1463470180276537718,379,1463470180111827830,,-5.65798902512,7.04027938843,-177.904342651,0.0100849997252,1.0,0.0,0.0,0.0,1.0,0.0,0.0,0.0,1.0,5.24390268326,34.5121955872,28.5365848541,1.0,0.0,0.0,0.0,1.0,0.0,0.0,0.0,1.0,2.7820623291,0.177170922852,-12.0141039307,1.0,0.0,0.0,0.0,1.0,0.0,0.0,0.0,1.0
1463470180276576520,380,1463470180124086556,,-5.63418197632,7.42299127579,-177.565032959,0.00991700030863,1.0,0.0,0.0,0.0,1.0,0.0,0.0,0.0,1.0,5.24390268326,23.475610733,33.6585388184,1.0,0.0,0.0,0.0,1.0,0.0,0.0,0.0,1.0,3.52426484375,0.0335188255255,-11.8129909912,1.0,0.0,0.0,0.0,1.0,0.0,0.0,0.0,1.0
1463470180276654019,381,1463470180131481333,,-5.57999610901,7.63231611252,-177.171478271,0.0100050000474,1.0,0.0,0.0,0.0,1.0,0.0,0.0,0.0,1.0,5.30487823486,6.58536624908,36.7073173523,1.0,0.0,0.0,0.0,1.0,0.0,0.0,0.0,1.0,3.36624753418,-0.435744702148,-11.899182251,1.0,0.0,0.0,0.0,1.0,0.0,0.0,0.0,1.0
1463470180276691311,382,1463470180141467877,,-5.53480625153,7.67570114136,-176.733840942,0.00999400019646,1.0,0.0,0.0,0.0,1.0,0.0,0.0,0.0,1.0,3.10975623131,-7.86585378647,39.5731735229,1.0,0.0,0.0,0.0,1.0,0.0,0.0,0.0,1.0,2.83952316895,-0.565031591797,-11.8321446045,1.0,0.0,0.0,0.0,1.0,0.0,0.0,0.0,1.0
1463470180276728498,383,1463470180152456501,,-5.50938987732,7.58259773254,-176.233795166,0.0100710000843,1.0,0.0,0.0,0.0,1.0,0.0,0.0,0.0,1.0,-2.19512200356,-19.4512195587,43.9024391174,1.0,0.0,0.0,0.0,1.0,0.0,0.0,0.0,1.0,2.22660754395,-1.07739082014,-11.4347071289,1.0,0.0,0.0,0.0,1.0,0.0,0.0,0.0,1.0
1463470180276763498,384,1463470180161387109,,-5.53916501999,7.41772174835,-175.715377808,0.00993099994957,1.0,0.0,0.0,0.0,1.0,0.0,0.0,0.0,1.0,-6.34146356583,-27.9268302917,45.8536605835,1.0,0.0,0.0,0.0,1.0,0.0,0.0,0.0,1.0,2.31758720703,-0.723048901367,-11.0612116699,1.0,0.0,0.0,0.0,1.0,0.0,0.0,0.0,1.0
1463470180276846936,385,1463470180175199061,,-5.62765312195,7.18279266357,-175.109527588,0.0110210003331,1.0,0.0,0.0,0.0,1.0,0.0,0.0,0.0,1.0,-12.2560977936,-34.1463432312,47.9268302917,1.0,0.0,0.0,0.0,1.0,0.0,0.0,0.0,1.0,1.98239897461,-0.679953271484,-8.65743378765,1.0,0.0,0.0,0.0,1.0,0.0,0.0,0.0,1.0
1463470180276980373,386,1463470180182419047,,-5.74427080154,6.98917722702,-174.609802246,0.00908000022173,1.0,0.0,0.0,0.0,1.0,0.0,0.0,0.0,1.0,-15.7926826477,-32.682926178,48.2926864624,1.0,0.0,0.0,0.0,1.0,0.0,0.0,0.0,1.0,1.5562310791,-0.445321508789,-7.96311472168,1.0,0.0,0.0,0.0,1.0,0.0,0.0,0.0,1.0
1463470180277163081,387,1463470180191499342,,-5.89085292816,6.82422208786,-174.082565308,0.00992599967867,1.0,0.0,0.0,0.0,1.0,0.0,0.0,0.0,1.0,-18.4146347046,-28.7804889679,46.6463432312,1.0,0.0,0.0,0.0,1.0,0.0,0.0,0.0,1.0,1.39342536621,-0.497993945312,-6.70855305176,1.0,0.0,0.0,0.0,1.0,0.0,0.0,0.0,1.0
1463470180277244747,388,1463470180201450260,,-6.02564001083,6.74125289917,-173.596740723,0.0100060002878,1.0,0.0,0.0,0.0,1.0,0.0,0.0,0.0,1.0,-19.8780498505,-22.2560977936,42.3780517578,1.0,0.0,0.0,0.0,1.0,0.0,0.0,0.0,1.0,1.51792385254,-0.852335791016,-6.19140549316,1.0,0.0,0.0,0.0,1.0,0.0,0.0,0.0,1.0
1463470180277282768,389,1463470180216116898,,-6.17152023315,6.68827390671,-173.168762207,0.00999100040644,1.0,0.0,0.0,0.0,1.0,0.0,0.0,0.0,1.0,-22.4390239716,-16.2804889679,37.0731697083,1.0,0.0,0.0,0.0,1.0,0.0,0.0,0.0,1.0,1.24019645996,-1.09654436035,-6.30632717285,1.0,0.0,0.0,0.0,1.0,0.0,0.0,0.0,1.0
1463470180277357091,390,1463470180227960573,,-6.51477575302,6.71192073822,-172.645217896,0.0157110001892,1.0,0.0,0.0,0.0,1.0,0.0,0.0,0.0,1.0,-25.0,-3.41463422775,29.4512195587,1.0,0.0,0.0,0.0,1.0,0.0,0.0,0.0,1.0,0.656011254883,-0.660799658203,-6.58884296875,1.0,0.0,0.0,0.0,1.0,0.0,0.0,0.0,1.0
1463470180278565005,391,1463470180231533847,,-6.59692955017,6.72002267838,-172.510772705,0.00429600011557,1.0,0.0,0.0,0.0,1.0,0.0,0.0,0.0,1.0,-24.1463432312,-0.731707334518,27.5,1.0,0.0,0.0,0.0,1.0,0.0,0.0,0.0,1.0,0.392649072266,-0.861912597656,-6.5074401123,1.0,0.0,0.0,0.0,1.0,0.0,0.0,0.0,1.0
1463470180278633963,392,1463470180241443671,,-6.7703666687,6.83524179459,-172.246154785,0.0099849998951,1.0,0.0,0.0,0.0,1.0,0.0,0.0,0.0,1.0,-19.2073173523,4.87804889679,23.7195129395,1.0,0.0,0.0,0.0,1.0,0.0,0.0,0.0,1.0,0.881066210937,-0.521935925381,-6.23450112305,1.0,0.0,0.0,0.0,1.0,0.0,0.0,0.0,1.0
1463470180278677870,393,1463470180251351256,,-6.97628211975,6.99398612976,-172.009063721,0.0100159998983,1.0,0.0,0.0,0.0,1.0,0.0,0.0,0.0,1.0,-13.2926826477,5.06097555161,22.0121955872,1.0,0.0,0.0,0.0,1.0,0.0,0.0,0.0,1.0,1.41257897949,0.497993945312,-6.31590397949,1.0,0.0,0.0,0.0,1.0,0.0,0.0,0.0,1.0
1463470180278721620,394,1463470180261353945,,-7.09888124466,7.16220140457,-171.7631073,0.00999599974602,1.0,0.0,0.0,0.0,1.0,0.0,0.0,0.0,1.0,-3.59756112099,0.792682945728,22.6219520569,1.0,0.0,0.0,0.0,1.0,0.0,0.0,0.0,1.0,2.05901342773,0.703895288086,-6.33026918945,1.0,0.0,0.0,0.0,1.0,0.0,0.0,0.0,1.0
1463470180280551981,395,1463470180271392050,,-7.10200500488,7.25619363785,-171.498840332,0.00999800022691,1.0,0.0,0.0,0.0,1.0,0.0,0.0,0.0,1.0,4.81707286835,-4.45121955872,23.3536586761,1.0,0.0,0.0,0.0,1.0,0.0,0.0,0.0,1.0,1.98718737793,0.373495458984,-7.07726010742,1.0,0.0,0.0,0.0,1.0,0.0,0.0,0.0,1.0
1463470180284657858,396,1463470180282444321,,-7.05439949036,7.24369430542,-171.225982666,0.00998300034553,1.0,0.0,0.0,0.0,1.0,0.0,0.0,0.0,1.0,12.9878053665,-13.9024391174,23.475610733,1.0,0.0,0.0,0.0,1.0,0.0,0.0,0.0,1.0,2.12605122035,0.92416184082,-8.19295808105,1.0,0.0,0.0,0.0,1.0,0.0,0.0,0.0,1.0
1463470180301384596,397,1463470180294538776,,-6.85060834885,7.1164021492,-170.955673218,0.0103989997879,1.0,0.0,0.0,0.0,1.0,0.0,0.0,0.0,1.0,23.475610733,-24.2682933807,20.3048782349,1.0,0.0,0.0,0.0,1.0,0.0,0.0,0.0,1.0,2.19787712402,0.244208569336,-8.71968244629,1.0,0.0,0.0,0.0,1.0,0.0,0.0,0.0,1.0
1463470180303547925,398,1463470180301793762,,-6.61197376251,6.93164968491,-170.714248657,0.00960399955511,1.0,0.0,0.0,0.0,1.0,0.0,0.0,0.0,1.0,27.6219520569,-30.4268321991,18.658536911,1.0,0.0,0.0,0.0,1.0,0.0,0.0,0.0,1.0,2.18351191406,0.00957680664062,-9.16500395508,1.0,0.0,0.0,0.0,1.0,0.0,0.0,0.0,1.0
1463470180313312906,399,1463470180311230410,,-6.30553245544,6.66203212738,-170.452514648,0.0099849998951,1.0,0.0,0.0,0.0,1.0,0.0,0.0,0.0,1.0,30.2439022064,-38.2317085266,18.5975627899,1.0,0.0,0.0,0.0,1.0,0.0,0.0,0.0,1.0,2.04464821777,-0.536301208408,-8.66222219097,1.0,0.0,0.0,0.0,1.0,0.0,0.0,0.0,1.0
1463470180323503824,400,1463470180321233203,,-5.96730279922,6.32763671875,-170.173553467,0.0100010000169,1.0,0.0,0.0,0.0,1.0,0.0,0.0,0.0,1.0,31.0365867615,-43.9634170532,19.6341457367,1.0,0.0,0.0,0.0,1.0,0.0,0.0,0.0,1.0,1.88184250488,-0.943315454102,-8.64306857769,1.0,0.0,0.0,0.0,1.0,0.0,0.0,0.0,1.0
1463470180333385315,401,1463470180331224069,,-5.61310100555,5.95572471619,-169.870391846,0.00999899953604,1.0,0.0,0.0,0.0,1.0,0.0,0.0,0.0,1.0,30.1219520569,-48.9634170532,21.5853652954,1.0,0.0,0.0,0.0,1.0,0.0,0.0,0.0,1.0,1.8626888916,-1.29286889648,-7.95353791504,1.0,0.0,0.0,0.0,1.0,0.0,0.0,0.0,1.0
1463470180343273942,402,1463470180341238060,,-5.26483488083,5.59252500534,-169.570495605,0.0100039998069,1.0,0.0,0.0,0.0,1.0,0.0,0.0,0.0,1.0,27.4390258789,-48.8414649963,21.4024391174,1.0,0.0,0.0,0.0,1.0,0.0,0.0,0.0,1.0,1.99197578125,-1.73340200195,-8.07803640137,1.0,0.0,0.0,0.0,1.0,0.0,0.0,0.0,1.0
1463470180353178349,403,1463470180351285020,,-4.92113018036,5.21207237244,-169.30847168,0.0100149996579,1.0,0.0,0.0,0.0,1.0,0.0,0.0,0.0,1.0,24.5121955872,-49.207321167,17.6829280853,1.0,0.0,0.0,0.0,1.0,0.0,0.0,0.0,1.0,1.92493813477,-2.38462499965,-8.528146898,1.0,0.0,0.0,0.0,1.0,0.0,0.0,0.0,1.0
1463470180363348694,404,1463470180361234219,,-4.61208486557,4.82861471176,-169.104568481,0.0099849998951,1.0,0.0,0.0,0.0,1.0,0.0,0.0,0.0,1.0,15.7317075729,-46.3414649963,12.0731716156,1.0,0.0,0.0,0.0,1.0,0.0,0.0,0.0,1.0,1.49398183594,-3.64397492676,-8.74841286621,1.0,0.0,0.0,0.0,1.0,0.0,0.0,0.0,1.0
1463470180373395706,405,1463470180371258939,,-4.42894220352,4.47895145416,-168.976745605,0.0100090000778,1.0,0.0,0.0,0.0,1.0,0.0,0.0,0.0,1.0,3.7804877758,-39.817073822,5.36585378647,1.0,0.0,0.0,0.0,1.0,0.0,0.0,0.0,1.0,1.10133276367,-3.94085593262,-9.41400034321,1.0,0.0,0.0,0.0,1.0,0.0,0.0,0.0,1.0
1463470180383158708,406,1463470180381288972,,-4.41592693329,4.15218353271,-168.934555054,0.00999899953604,1.0,0.0,0.0,0.0,1.0,0.0,0.0,0.0,1.0,-9.63414573669,-32.865852356,-2.13414645195,1.0,0.0,0.0,0.0,1.0,0.0,0.0,0.0,1.0,0.335188232422,-3.48116921387,-9.83538041992,1.0,0.0,0.0,0.0,1.0,0.0,0.0,0.0,1.0
1463470180398072168,407,1463470180395548215,,-4.54415655136,3.92853355408,-169.017150879,0.00998799968511,1.0,0.0,0.0,0.0,1.0,0.0,0.0,0.0,1.0,-20.5487823486,-19.4512195587,-13.2317075729,1.0,0.0,0.0,0.0,1.0,0.0,0.0,0.0,1.0,-0.110133276367,-2.91613762207,-9.57680722515,1.0,0.0,0.0,0.0,1.0,0.0,0.0,0.0,1.0
1463470180408528085,408,1463470180406954234,,-4.80088949203,3.9890794754,-169.338897705,0.0104160001501,1.0,0.0,0.0,0.0,1.0,0.0,0.0,0.0,1.0,-29.9390258789,7.13414621353,-33.4756126404,1.0,0.0,0.0,0.0,1.0,0.0,0.0,0.0,1.0,0.397437475586,-2.35589428746,-8.29351396626,1.0,0.0,0.0,0.0,1.0,0.0,0.0,0.0,1.0
1463470180413770888,409,1463470180411464017,,-5.11194944382,4.14408826828,-169.693252563,0.009606000036,1.0,0.0,0.0,0.0,1.0,0.0,0.0,0.0,1.0,-32.865852356,13.048781395,-38.5975608826,1.0,0.0,0.0,0.0,1.0,0.0,0.0,0.0,1.0,1.13485158691,-1.5801730957,-8.03015236816,1.0,0.0,0.0,0.0,1.0,0.0,0.0,0.0,1.0
1463470180423478160,410,1463470180421294258,,-5.4882683754,4.46459674835,-170.160827637,0.00999800022691,1.0,0.0,0.0,0.0,1.0,0.0,0.0,0.0,1.0,-33.3536605835,20.5487823486,-47.3780517578,1.0,0.0,0.0,0.0,1.0,0.0,0.0,0.0,1.0,2.71502468262,-1.05823706072,-8.3749168227,1.0,0.0,0.0,0.0,1.0,0.0,0.0,0.0,1.0
1463470180433808297,411,1463470180431270124,,-5.88966655731,4.85027456284,-170.660324097,0.00999299995601,1.0,0.0,0.0,0.0,1.0,0.0,0.0,0.0,1.0,-31.9512214661,23.2926845551,-49.9390258789,1.0,0.0,0.0,0.0,1.0,0.0,0.0,0.0,1.0,3.87381828613,-0.555454785156,-9.18894597168,1.0,0.0,0.0,0.0,1.0,0.0,0.0,0.0,1.0
1463470180443926871,412,1463470180441365261,,-6.29251337051,5.10094356537,-171.165420532,0.00998300034553,1.0,0.0,0.0,0.0,1.0,0.0,0.0,0.0,1.0,-31.158536911,16.7682933807,-51.0975608826,1.0,0.0,0.0,0.0,1.0,0.0,0.0,0.0,1.0,2.97838686523,-0.354341845703,-10.1322614258,1.0,0.0,0.0,0.0,1.0,0.0,0.0,0.0,1.0
1463470180453774820,413,1463470180451287065,,-6.64764404297,5.24979066849,-171.638153076,0.0100029995665,1.0,0.0,0.0,0.0,1.0,0.0,0.0,0.0,1.0,-27.0121955872,10.548781395,-48.4756126404,1.0,0.0,0.0,0.0,1.0,0.0,0.0,0.0,1.0,2.37504819301,-0.387860668945,-10.7020814209,1.0,0.0,0.0,0.0,1.0,0.0,0.0,0.0,1.0
1463470180465387454,414,1463470180461417409,,-6.9549164772,5.32009649277,-172.063674927,0.010050999932,1.0,0.0,0.0,0.0,1.0,0.0,0.0,0.0,1.0,-22.2560977936,1.76829278469,-44.5731735229,1.0,0.0,0.0,0.0,1.0,0.0,0.0,0.0,1.0,2.58573779297,-0.296881024126,-10.927136377,1.0,0.0,0.0,0.0,1.0,0.0,0.0,0.0,1.0
1463470180473610198,415,1463470180471425775,,-7.15377283096,5.34071350098,-172.404006958,0.00999400019646,1.0,0.0,0.0,0.0,1.0,0.0,0.0,0.0,1.0,-13.7804880142,-8.5365858078,-37.7439041138,1.0,0.0,0.0,0.0,1.0,0.0,0.0,0.0,1.0,3.77326181641,-0.612915625,-11.5065331787,1.0,0.0,0.0,0.0,1.0,0.0,0.0,0.0,1.0
1463470180483708356,416,1463470180481470287,,-7.31433486938,5.18859481812,-172.673065186,0.0100140003487,1.0,0.0,0.0,0.0,1.0,0.0,0.0,0.0,1.0,-7.74390268326,-25.4268302917,-32.5,1.0,0.0,0.0,0.0,1.0,0.0,0.0,0.0,1.0,3.50989963379,0.0574608398438,-11.4155535156,1.0,0.0,0.0,0.0,1.0,0.0,0.0,0.0,1.0
1463470180493547086,417,1463470180491429643,,-7.37913417816,4.86247062683,-172.864990234,0.00998600013554,1.0,0.0,0.0,0.0,1.0,0.0,0.0,0.0,1.0,1.2195122242,-37.5,-26.4634151459,1.0,0.0,0.0,0.0,1.0,0.0,0.0,0.0,1.0,2.18830031738,0.172382519531,-11.7220113281,1.0,0.0,0.0,0.0,1.0,0.0,0.0,0.0,1.0
1463470180506493884,418,1463470180501483060,,-7.32109975815,4.38416862488,-172.988540649,0.010006999597,1.0,0.0,0.0,0.0,1.0,0.0,0.0,0.0,1.0,7.98780536652,-47.4390258789,-21.2804889679,1.0,0.0,0.0,0.0,1.0,0.0,0.0,0.0,1.0,0.890643017578,-0.852335791016,-12.2343704834,1.0,0.0,0.0,0.0,1.0,0.0,0.0,0.0,1.0
1463470180513839339,419,1463470180511361323,,-7.24550819397,3.79452800751,-173.061645508,0.00995600037277,1.0,0.0,0.0,0.0,1.0,0.0,0.0,0.0,1.0,9.5731716156,-55.4268302917,-17.134147644,1.0,0.0,0.0,0.0,1.0,0.0,0.0,0.0,1.0,-0.0957680664062,-0.852335791016,-13.0675526611,1.0,0.0,0.0,0.0,1.0,0.0,0.0,0.0,1.0
1463470180523730569,420,1463470180521509063,,-7.14146375656,3.15608143806,-173.098922729,0.0100339995697,1.0,0.0,0.0,0.0,1.0,0.0,0.0,0.0,1.0,10.0,-58.5365867615,-13.841463089,1.0,0.0,0.0,0.0,1.0,0.0,0.0,0.0,1.0,-0.641646044922,-1.35511813965,-13.0148802246,1.0,0.0,0.0,0.0,1.0,0.0,0.0,0.0,1.0
1463470180533931799,421,1463470180531480919,,-7.04945230484,2.47244644165,-173.130645752,0.0100100003183,1.0,0.0,0.0,0.0,1.0,0.0,0.0,0.0,1.0,9.69512176514,-60.9146347046,-13.2926826477,1.0,0.0,0.0,0.0,1.0,0.0,0.0,0.0,1.0,-1.31202250977,-1.13963999023,-12.737152832,1.0,0.0,0.0,0.0,1.0,0.0,0.0,0.0,1.0
1463470180543741780,422,1463470180541513555,,-6.96538734436,1.79413032532,-173.175994873,0.00999699998647,1.0,0.0,0.0,0.0,1.0,0.0,0.0,0.0,1.0,11.5243911743,-59.5731735229,-14.1463422775,1.0,0.0,0.0,0.0,1.0,0.0,0.0,0.0,1.0,-1.50355864258,-0.517147558594,-11.7028577148,1.0,0.0,0.0,0.0,1.0,0.0,0.0,0.0,1.0
1463470180553553011,423,1463470180551417703,,-6.8397436142,1.13017868996,-173.254608154,0.00999599974602,1.0,0.0,0.0,0.0,1.0,0.0,0.0,0.0,1.0,14.5731706619,-55.7926826477,-16.8292694092,1.0,0.0,0.0,0.0,1.0,0.0,0.0,0.0,1.0,-1.8626888916,-0.708683691406,-10.4913916748,1.0,0.0,0.0,0.0,1.0,0.0,0.0,0.0,1.0
1463470180565745487,424,1463470180561604089,,-6.71317815781,0.503241658211,-173.3621521,0.0100149996579,1.0,0.0,0.0,0.0,1.0,0.0,0.0,0.0,1.0,15.0000009537,-48.6585388184,-18.5975627899,1.0,0.0,0.0,0.0,1.0,0.0,0.0,0.0,1.0,-2.31279880371,-0.60812722168,-9.31823227681,1.0,0.0,0.0,0.0,1.0,0.0,0.0,0.0,1.0
1463470180573819795,425,1463470180571358393,,-6.5957326889,-0.0256577394903,-173.491439819,0.00994000025094,1.0,0.0,0.0,0.0,1.0,0.0,0.0,0.0,1.0,14.1463422775,-37.865852356,-19.3902435303,1.0,0.0,0.0,0.0,1.0,0.0,0.0,0.0,1.0,-2.55221896973,-0.60812722168,-8.97825622559,1.0,0.0,0.0,0.0,1.0,0.0,0.0,0.0,1.0
1463470180583749619,426,1463470180581488321,,-6.52313661575,-0.477511465549,-173.628219604,0.010045000352,1.0,0.0,0.0,0.0,1.0,0.0,0.0,0.0,1.0,10.4878053665,-28.5975608826,-18.7804889679,1.0,0.0,0.0,0.0,1.0,0.0,0.0,0.0,1.0,-2.63362182617,-0.430956298828,-8.35576320942,1.0,0.0,0.0,0.0,1.0,0.0,0.0,0.0,1.0
1463470180593812776,427,1463470180591335385,,-6.51962709427,-0.81834256649,-173.734466553,0.00995500013232,1.0,0.0,0.0,0.0,1.0,0.0,0.0,0.0,1.0,5.73170757294,-17.6219520569,-14.5121955872,1.0,0.0,0.0,0.0,1.0,0.0,0.0,0.0,1.0,-2.75333190918,-0.105344873047,-8.17380446777,1.0,0.0,0.0,0.0,1.0,0.0,0.0,0.0,1.0
1463470180606337440,428,1463470180601451355,,-6.52957773209,-1.10032844543,-173.820831299,0.010050999932,1.0,0.0,0.0,0.0,1.0,0.0,0.0,0.0,1.0,1.34146344662,-8.84146404266,-11.341463089,1.0,0.0,0.0,0.0,1.0,0.0,0.0,0.0,1.0,-3.30399829102,-0.603338854892,-8.13549724121,1.0,0.0,0.0,0.0,1.0,0.0,0.0,0.0,1.0
1463470180615358880,429,1463470180611325607,,-6.58034801483,-1.27316629887,-173.896331787,0.00994300004095,1.0,0.0,0.0,0.0,1.0,0.0,0.0,0.0,1.0,-2.19512200356,1.2804877758,-9.14634132385,1.0,0.0,0.0,0.0,1.0,0.0,0.0,0.0,1.0,-3.31836350098,-0.512359155273,-8.23126530762,1.0,0.0,0.0,0.0,1.0,0.0,0.0,0.0,1.0
1463470180626592817,430,1463470180621497254,,-6.65242481232,-1.3457518816,-173.96572876,0.010048000142,1.0,0.0,0.0,0.0,1.0,0.0,0.0,0.0,1.0,-3.7804877758,7.80487823486,-7.68292665482,1.0,0.0,0.0,0.0,1.0,0.0,0.0,0.0,1.0,-2.93050283203,-0.426167895508,-8.82981572266,1.0,0.0,0.0,0.0,1.0,0.0,0.0,0.0,1.0
1463470180633344679,431,1463470180631231922,,-6.73691272736,-1.34208965302,-174.035293579,0.00995799992234,1.0,0.0,0.0,0.0,1.0,0.0,0.0,0.0,1.0,-3.35365867615,12.2560977936,-7.25609779358,1.0,0.0,0.0,0.0,1.0,0.0,0.0,0.0,1.0,-2.56658417969,-0.114921679688,-9.48103915874,1.0,0.0,0.0,0.0,1.0,0.0,0.0,0.0,1.0
1463470180643422732,432,1463470180641272892,,-6.81670284271,-1.28188860416,-174.111740112,0.0100090000778,1.0,0.0,0.0,0.0,1.0,0.0,0.0,0.0,1.0,-1.40243899822,14.7560987473,-7.62195110321,1.0,0.0,0.0,0.0,1.0,0.0,0.0,0.0,1.0,-2.10210891149,0.177170922852,-10.060435376,1.0,0.0,0.0,0.0,1.0,0.0,0.0,0.0,1.0
1463470180653452764,433,1463470180651265633,,-6.86567735672,-1.20372748375,-174.176589966,0.0100039998069,1.0,0.0,0.0,0.0,1.0,0.0,0.0,0.0,1.0,1.15853655338,13.5365858078,-6.58536624908,1.0,0.0,0.0,0.0,1.0,0.0,0.0,0.0,1.0,-1.60890351563,0.105344873047,-10.419565625,1.0,0.0,0.0,0.0,1.0,0.0,0.0,0.0,1.0
1463470180663397276,434,1463470180661251603,,-6.89214706421,-1.1207164526,-174.217849731,0.00999299995601,1.0,0.0,0.0,0.0,1.0,0.0,0.0,0.0,1.0,2.37804889679,12.5,-4.32926845551,1.0,0.0,0.0,0.0,1.0,0.0,0.0,0.0,1.0,-1.38863696289,-0.0861912597656,-10.6637741943,1.0,0.0,0.0,0.0,1.0,0.0,0.0,0.0,1.0
1463470180673423559,435,1463470180671247417,,-6.8910074234,-1.06668949127,-174.202911377,0.0100050000474,1.0,0.0,0.0,0.0,1.0,0.0,0.0,0.0,1.0,1.40243899822,9.75609779358,1.03658533096,1.0,0.0,0.0,0.0,1.0,0.0,0.0,0.0,1.0,-1.64242233887,-0.885854614258,-11.4011883057,1.0,0.0,0.0,0.0,1.0,0.0,0.0,0.0,1.0
1463470180683393383,436,1463470180681239325,,-6.92176246643,-1.00937533379,-174.134277344,0.0099950004369,1.0,0.0,0.0,0.0,1.0,0.0,0.0,0.0,1.0,-3.71951246262,8.90243911743,6.34146356583,1.0,0.0,0.0,0.0,1.0,0.0,0.0,0.0,1.0,-1.5562310791,-1.33596452637,-11.645396875,1.0,0.0,0.0,0.0,1.0,0.0,0.0,0.0,1.0
1463470180693413468,437,1463470180691236441,,-7.00910329819,-0.973752677441,-174.004852295,0.0099950004369,1.0,0.0,0.0,0.0,1.0,0.0,0.0,0.0,1.0,-9.45121955872,5.48780488968,12.0121955872,1.0,0.0,0.0,0.0,1.0,0.0,0.0,0.0,1.0,-1.51792385254,-1.44130939941,-12.3157733398,1.0,0.0,0.0,0.0,1.0,0.0,0.0,0.0,1.0
1463470180703608656,438,1463470180701247307,,-7.15647363663,-0.953424215317,-173.817947388,0.0100079998374,1.0,0.0,0.0,0.0,1.0,0.0,0.0,0.0,1.0,-15.4878053665,2.92682933807,17.4390239716,1.0,0.0,0.0,0.0,1.0,0.0,0.0,0.0,1.0,-1.47482822266,-1.4844050293,-12.6030775391,1.0,0.0,0.0,0.0,1.0,0.0,0.0,0.0,1.0
1463470180713407179,439,1463470180711239475,,-7.33153247833,-0.97576713562,-173.572875977,0.00999299995601,1.0,0.0,0.0,0.0,1.0,0.0,0.0,0.0,1.0,-21.5853652954,-1.03658533096,22.8658542633,1.0,0.0,0.0,0.0,1.0,0.0,0.0,0.0,1.0,-1.84832368164,-2.42293208008,-13.4889321533,1.0,0.0,0.0,0.0,1.0,0.0,0.0,0.0,1.0
1463470180723420024,440,1463470180721242111,,-7.61974191666,-1.0462423563,-173.289047241,0.0100029995665,1.0,0.0,0.0,0.0,1.0,0.0,0.0,0.0,1.0,-29.3902435303,-5.0,26.158536911,1.0,0.0,0.0,0.0,1.0,0.0,0.0,0.0,1.0,-2.46123930664,-1.71903679199,-15.1505081055,1.0,0.0,0.0,0.0,1.0,0.0,0.0,0.0,1.0
1463470180733457244,441,1463470180731265165,,-7.95730066299,-1.15056371689,-172.997756958,0.0100060002878,1.0,0.0,0.0,0.0,1.0,0.0,0.0,0.0,1.0,-32.5,-6.70731735229,26.6463432312,1.0,0.0,0.0,0.0,1.0,0.0,0.0,0.0,1.0,-3.20823022461,-1.24498486328,-16.1512855685,1.0,0.0,0.0,0.0,1.0,0.0,0.0,0.0,1.0
1463470180743406287,442,1463470180741259572,,-8.35615348816,-1.24482476711,-172.722518921,0.00999100040644,1.0,0.0,0.0,0.0,1.0,0.0,0.0,0.0,1.0,-36.3414611816,-2.25609779358,25.6707324982,1.0,0.0,0.0,0.0,1.0,0.0,0.0,0.0,1.0,-4.29519807058,-0.497993945312,-16.1464959961,1.0,0.0,0.0,0.0,1.0,0.0,0.0,0.0,1.0
1463470180753391788,443,1463470180751255022,,-8.76440048218,-1.26484799385,-172.49395752,0.0100050000474,1.0,0.0,0.0,0.0,1.0,0.0,0.0,0.0,1.0,-33.9024391174,7.07317113876,22.3170719147,1.0,0.0,0.0,0.0,1.0,0.0,0.0,0.0,1.0,-4.72615378489,0.603338854892,-15.9022874268,1.0,0.0,0.0,0.0,1.0,0.0,0.0,0.0,1.0
1463470180763448383,444,1463470180761251148,,-9.13176250458,-1.19034445286,-172.294754028,0.0100020002574,1.0,0.0,0.0,0.0,1.0,0.0,0.0,0.0,1.0,-29.1463413239,13.9634151459,20.5487823486,1.0,0.0,0.0,0.0,1.0,0.0,0.0,0.0,1.0,-3.60087929687,0.890643017578,-14.7674358398,1.0,0.0,0.0,0.0,1.0,0.0,0.0,0.0,1.0
1463470180773430083,445,1463470180771236754,,-9.41586208344,-1.0207875967,-172.109436035,0.00999400019646,1.0,0.0,0.0,0.0,1.0,0.0,0.0,0.0,1.0,-22.3170719147,16.5853652954,19.7560977936,1.0,0.0,0.0,0.0,1.0,0.0,0.0,0.0,1.0,-1.61848032227,0.622492431641,-14.2359230713,1.0,0.0,0.0,0.0,1.0,0.0,0.0,0.0,1.0
1463470180783444542,446,1463470180781287567,,-9.64236164093,-0.822322070599,-171.912582397,0.0100159998983,1.0,0.0,0.0,0.0,1.0,0.0,0.0,0.0,1.0,-19.4512195587,16.341463089,20.975610733,1.0,0.0,0.0,0.0,1.0,0.0,0.0,0.0,1.0,-0.861912597656,-0.0383072265625,-14.2502882812,1.0,0.0,0.0,0.0,1.0,0.0,0.0,0.0,1.0
1463470180793474731,447,1463470180791265204,,-9.85417842865,-0.631175756454,-171.699859619,0.00998200010508,1.0,0.0,0.0,0.0,1.0,0.0,0.0,0.0,1.0,-17.6829280853,16.2804889679,22.682926178,1.0,0.0,0.0,0.0,1.0,0.0,0.0,0.0,1.0,-1.07260241682,0.124498486328,-14.4370360107,1.0,0.0,0.0,0.0,1.0,0.0,0.0,0.0,1.0
1463470180803416170,448,1463470180801285810,,-10.0650920868,-0.429942041636,-171.472244263,0.0100250001997,1.0,0.0,0.0,0.0,1.0,0.0,0.0,0.0,1.0,-16.341463089,16.7073173523,24.2073173523,1.0,0.0,0.0,0.0,1.0,0.0,0.0,0.0,1.0,-0.981622680664,0.493205541992,-14.3987287842,1.0,0.0,0.0,0.0,1.0,0.0,0.0,0.0,1.0
1463470180813796983,449,1463470180811256988,,-10.230093956,-0.214233860373,-171.231613159,0.00997800007463,1.0,0.0,0.0,0.0,1.0,0.0,0.0,0.0,1.0,-14.0853662491,16.5243911743,25.6707324982,1.0,0.0,0.0,0.0,1.0,0.0,0.0,0.0,1.0,-0.569819995117,-0.00957680664062,-14.2790187012,1.0,0.0,0.0,0.0,1.0,0.0,0.0,0.0,1.0
1463470180823470141,450,1463470180821277333,,-10.3554592133,0.00189937953837,-170.966171265,0.0100039998069,1.0,0.0,0.0,0.0,1.0,0.0,0.0,0.0,1.0,-10.9756097794,14.6951217651,27.8048782349,1.0,0.0,0.0,0.0,1.0,0.0,0.0,0.0,1.0,-0.172382519531,-0.167594116211,-13.8193319824,1.0,0.0,0.0,0.0,1.0,0.0,0.0,0.0,1.0
1463470180833434810,451,1463470180831232991,,-10.4925203323,0.240728914738,-170.663162231,0.00999699998647,1.0,0.0,0.0,0.0,1.0,0.0,0.0,0.0,1.0,-9.87804889679,12.4390249252,31.2195129395,1.0,0.0,0.0,0.0,1.0,0.0,0.0,0.0,1.0,0.756567724609,0.416591088867,-12.8520745117,1.0,0.0,0.0,0.0,1.0,0.0,0.0,0.0,1.0
1463470180843444842,452,1463470180841246357,,-10.5964298248,0.461785763502,-170.310501099,0.00999800022691,1.0,0.0,0.0,0.0,1.0,0.0,0.0,0.0,1.0,-5.73170757294,10.0,35.7926826477,1.0,0.0,0.0,0.0,1.0,0.0,0.0,0.0,1.0,0.689530078125,0.622492431641,-11.8896054443,1.0,0.0,0.0,0.0,1.0,0.0,0.0,0.0,1.0
1463470180853403208,453,1463470180851235817,,-10.6508188248,0.659468710423,-169.940643311,0.0100039998069,1.0,0.0,0.0,0.0,1.0,0.0,0.0,0.0,1.0,-0.243902444839,5.73170757294,36.7073173523,1.0,0.0,0.0,0.0,1.0,0.0,0.0,0.0,1.0,1.04866025408,0.76135612793,-11.540052002,1.0,0.0,0.0,0.0,1.0,0.0,0.0,0.0,1.0
1463470180863516313,454,1463470180861308870,,-10.6063108444,0.855914056301,-169.581771851,0.010006999597,1.0,0.0,0.0,0.0,1.0,0.0,0.0,0.0,1.0,7.13414621353,3.90243911743,35.1829299927,1.0,0.0,0.0,0.0,1.0,0.0,0.0,0.0,1.0,1.43173259277,0.258573779297,-11.0995188965,1.0,0.0,0.0,0.0,1.0,0.0,0.0,0.0,1.0
1463470180873479107,455,1463470180871258955,,-10.4858341217,1.0029861927,-169.249435425,0.00999599974602,1.0,0.0,0.0,0.0,1.0,0.0,0.0,0.0,1.0,13.9024391174,0.792682945728,31.8902454376,1.0,0.0,0.0,0.0,1.0,0.0,0.0,0.0,1.0,1.13006318359,0.0909796630859,-10.2136642822,1.0,0.0,0.0,0.0,1.0,0.0,0.0,0.0,1.0
1463470180883458098,456,1463470180881281591,,-10.3049640656,1.16099691391,-168.93447876,0.0100050000474,1.0,0.0,0.0,0.0,1.0,0.0,0.0,0.0,1.0,18.3536586761,0.365853667259,29.9390258789,1.0,0.0,0.0,0.0,1.0,0.0,0.0,0.0,1.0,1.34075292969,-0.196324536133,-9.05008227539,1.0,0.0,0.0,0.0,1.0,0.0,0.0,0.0,1.0
1463470180893465005,457,1463470180891273655,,-10.0577554703,1.31061673164,-168.635345459,0.00999400019646,1.0,0.0,0.0,0.0,1.0,0.0,0.0,0.0,1.0,22.1951236725,0.609756112099,28.2926845551,1.0,0.0,0.0,0.0,1.0,0.0,0.0,0.0,1.0,1.20188930646,-0.651222851562,-8.63349177105,1.0,0.0,0.0,0.0,1.0,0.0,0.0,0.0,1.0
1463470180903178788,458,1463470180901256240,,-9.8267993927,1.46742212772,-168.364013672,0.00999999977648,1.0,0.0,0.0,0.0,1.0,0.0,0.0,0.0,1.0,23.0487823486,0.12195122242,25.3658542633,1.0,0.0,0.0,0.0,1.0,0.0,0.0,0.0,1.0,1.33117612305,-0.268150604204,-7.59919606934,1.0,0.0,0.0,0.0,1.0,0.0,0.0,0.0,1.0
1463470180913259081,459,1463470180911240804,,-9.59133243561,1.65250706673,-168.098419189,0.00998899992555,1.0,0.0,0.0,0.0,1.0,0.0,0.0,0.0,1.0,21.9512195587,3.23170733452,25.2439041138,1.0,0.0,0.0,0.0,1.0,0.0,0.0,0.0,1.0,1.21146604004,-0.45968671875,-6.87135876465,1.0,0.0,0.0,0.0,1.0,0.0,0.0,0.0,1.0
1463470180922996823,460,1463470180921253753,,-9.41935920715,1.88812768459,-167.843048096,0.0100079998374,1.0,0.0,0.0,0.0,1.0,0.0,0.0,0.0,1.0,21.7682933807,5.06097555161,24.5731716156,1.0,0.0,0.0,0.0,1.0,0.0,0.0,0.0,1.0,1.52271225586,0.258573779297,-6.23450112305,1.0,0.0,0.0,0.0,1.0,0.0,0.0,0.0,1.0
1463470180932935970,461,1463470180931249098,,-9.19043254852,2.14026069641,-167.629318237,0.0100010000169,1.0,0.0,0.0,0.0,1.0,0.0,0.0,0.0,1.0,25.7926845551,6.46341466904,20.4878044128,1.0,0.0,0.0,0.0,1.0,0.0,0.0,0.0,1.0,1.52271225586,0.0335188255255,-5.67904633789,1.0,0.0,0.0,0.0,1.0,0.0,0.0,0.0,1.0
1463470180942944023,462,1463470180941258402,,-8.932056427,2.42450404167,-167.468826294,0.00999599974602,1.0,0.0,0.0,0.0,1.0,0.0,0.0,0.0,1.0,30.0000019073,6.7682929039,15.1219511032,1.0,0.0,0.0,0.0,1.0,0.0,0.0,0.0,1.0,1.87705410156,0.105344873047,-5.35822331543,1.0,0.0,0.0,0.0,1.0,0.0,0.0,0.0,1.0
1463470180953266451,463,1463470180951245465,,-8.61476898193,2.6960940361,-167.365402222,0.00999899953604,1.0,0.0,0.0,0.0,1.0,0.0,0.0,0.0,1.0,35.4878044128,4.57317066193,8.90243911743,1.0,0.0,0.0,0.0,1.0,0.0,0.0,0.0,1.0,2.13083962367,0.00957680664062,-5.37258852539,1.0,0.0,0.0,0.0,1.0,0.0,0.0,0.0,1.0
1463470180962971797,464,1463470180961256227,,-8.28001976013,2.94487524033,-167.305206299,0.0100029995665,1.0,0.0,0.0,0.0,1.0,0.0,0.0,0.0,1.0,40.4268302917,-0.12195122242,3.90243911743,1.0,0.0,0.0,0.0,1.0,0.0,0.0,0.0,1.0,2.6862942627,0.292092584273,-5.66468112793,1.0,0.0,0.0,0.0,1.0,0.0,0.0,0.0,1.0
1463470180972929329,465,1463470180971260687,,-7.90090894699,3.12573242188,-167.27166748,0.0100090000778,1.0,0.0,0.0,0.0,1.0,0.0,0.0,0.0,1.0,43.9634170532,-4.63414621353,0.487804889679,1.0,0.0,0.0,0.0,1.0,0.0,0.0,0.0,1.0,2.7102362793,0.172382519531,-6.20577070312,1.0,0.0,0.0,0.0,1.0,0.0,0.0,0.0,1.0
1463470180982911966,466,1463470180981281136,,-7.45015192032,3.24293589592,-167.257263184,0.00999299995601,1.0,0.0,0.0,0.0,1.0,0.0,0.0,0.0,1.0,46.7682952881,-11.0365858078,-2.56097555161,1.0,0.0,0.0,0.0,1.0,0.0,0.0,0.0,1.0,2.8060043457,-0.426167895508,-6.23450112305,1.0,0.0,0.0,0.0,1.0,0.0,0.0,0.0,1.0
1463470180995672983,467,1463470180991291585,,-6.97847127914,3.29231452942,-167.250671387,0.00999599974602,1.0,0.0,0.0,0.0,1.0,0.0,0.0,0.0,1.0,45.1219520569,-16.5243911743,-4.20731735229,1.0,0.0,0.0,0.0,1.0,0.0,0.0,0.0,1.0,2.81079274902,-0.981622680664,-6.54095893555,1.0,0.0,0.0,0.0,1.0,0.0,0.0,0.0,1.0
1463470181003190208,468,1463470181001251410,,-6.5409579277,3.27775335312,-167.251617432,0.0100029995665,1.0,0.0,0.0,0.0,1.0,0.0,0.0,0.0,1.0,42.2560958862,-23.658536911,-5.67073154449,1.0,0.0,0.0,0.0,1.0,0.0,0.0,0.0,1.0,2.86825358887,-0.952892260742,-6.37336481934,1.0,0.0,0.0,0.0,1.0,0.0,0.0,0.0,1.0
1463470181013520917,469,1463470181011241390,,-6.14815664291,3.22190856934,-167.256607056,0.00999299995601,1.0,0.0,0.0,0.0,1.0,0.0,0.0,0.0,1.0,37.1951255798,-29.8780498505,-6.64634132385,1.0,0.0,0.0,0.0,1.0,0.0,0.0,0.0,1.0,3.25132585449,-1.14442839355,-6.47392128906,1.0,0.0,0.0,0.0,1.0,0.0,0.0,0.0,1.0
1463470181023501106,470,1463470181021258506,,-5.78762388229,3.0632250309,-167.240768433,0.0100029995665,1.0,0.0,0.0,0.0,1.0,0.0,0.0,0.0,1.0,29.2682933807,-35.9756088257,-5.24390268326,1.0,0.0,0.0,0.0,1.0,0.0,0.0,0.0,1.0,2.79642753906,-1.84353527832,-6.87135876465,1.0,0.0,0.0,0.0,1.0,0.0,0.0,0.0,1.0
1463470181033499211,471,1463470181031261664,,-5.517598629,2.84280800819,-167.22845459,0.010006999597,1.0,0.0,0.0,0.0,1.0,0.0,0.0,0.0,1.0,18.841463089,-38.0487823486,-5.60975599289,1.0,0.0,0.0,0.0,1.0,0.0,0.0,0.0,1.0,2.3654710941,-2.17872351074,-7.42202514648,1.0,0.0,0.0,0.0,1.0,0.0,0.0,0.0,1.0
1463470181043521484,472,1463470181041265863,,-5.30136966705,2.5967912674,-167.240661621,0.00999599974602,1.0,0.0,0.0,0.0,1.0,0.0,0.0,0.0,1.0,9.02439117432,-38.7804870605,-8.10975551605,1.0,0.0,0.0,0.0,1.0,0.0,0.0,0.0,1.0,2.1691467041,-2.98796367187,-7.52258161621,1.0,0.0,0.0,0.0,1.0,0.0,0.0,0.0,1.0
1463470181053774068,473,1463470181051324437,,-5.21322059631,2.37573194504,-167.308883667,0.0100119998679,1.0,0.0,0.0,0.0,1.0,0.0,0.0,0.0,1.0,-2.86585378647,-35.9146347046,-13.1707324982,1.0,0.0,0.0,0.0,1.0,0.0,0.0,0.0,1.0,2.30801040039,-3.10288535156,-8.08282480469,1.0,0.0,0.0,0.0,1.0,0.0,0.0,0.0,1.0
1463470181063471080,474,1463470181061309001,,-5.25565862656,2.14619827271,-167.4324646,0.00999400019646,1.0,0.0,0.0,0.0,1.0,0.0,0.0,0.0,1.0,-13.7804880142,-35.6097564697,-18.475610733,1.0,0.0,0.0,0.0,1.0,0.0,0.0,0.0,1.0,2.28406838379,-2.93529123535,-8.64306857769,1.0,0.0,0.0,0.0,1.0,0.0,0.0,0.0,1.0
1463470181073432415,475,1463470181071313461,,-5.42639541626,1.89199757576,-167.613586426,0.00999400019646,1.0,0.0,0.0,0.0,1.0,0.0,0.0,0.0,1.0,-25.0609760284,-34.4512214661,-24.0243911743,1.0,0.0,0.0,0.0,1.0,0.0,0.0,0.0,1.0,1.97282216797,-3.0166940918,-10.0077629395,1.0,0.0,0.0,0.0,1.0,0.0,0.0,0.0,1.0
1463470181083434010,476,1463470181081298285,,-5.69177436829,1.58150446415,-167.881607056,0.0100010000169,1.0,0.0,0.0,0.0,1.0,0.0,0.0,0.0,1.0,-33.5975608826,-32.317073822,-32.5,1.0,0.0,0.0,0.0,1.0,0.0,0.0,0.0,1.0,0.670376464844,-2.89698400879,-10.4961800781,1.0,0.0,0.0,0.0,1.0,0.0,0.0,0.0,1.0
1463470181093595813,477,1463470181091408317,,-6.01870918274,1.23062622547,-168.2762146,0.0100020002574,1.0,0.0,0.0,0.0,1.0,0.0,0.0,0.0,1.0,-37.317073822,-30.2439022064,-44.9390258789,1.0,0.0,0.0,0.0,1.0,0.0,0.0,0.0,1.0,-0.3064578125,-2.60489140625,-11.5592056152,1.0,0.0,0.0,0.0,1.0,0.0,0.0,0.0,1.0
1463470181103405273,478,1463470181101264704,,-6.39570856094,0.944444060326,-168.830856323,0.00999999977648,1.0,0.0,0.0,0.0,1.0,0.0,0.0,0.0,1.0,-37.5,-17.6219520569,-59.5731735229,1.0,0.0,0.0,0.0,1.0,0.0,0.0,0.0,1.0,-1.24019645996,-1.50355864258,-11.511321582,1.0,0.0,0.0,0.0,1.0,0.0,0.0,0.0,1.0
1463470181113499108,479,1463470181111320310,,-6.74582624435,0.765218913555,-169.541793823,0.0100050000474,1.0,0.0,0.0,0.0,1.0,0.0,0.0,0.0,1.0,-34.6951217651,-3.84146332741,-73.6585388184,1.0,0.0,0.0,0.0,1.0,0.0,0.0,0.0,1.0,-1.46525141602,-1.37427175293,-11.1952869629,1.0,0.0,0.0,0.0,1.0,0.0,0.0,0.0,1.0
1463470181123484713,480,1463470181121298884,,-7.06831216812,0.779040694237,-170.388717651,0.00999299995601,1.0,0.0,0.0,0.0,1.0,0.0,0.0,0.0,1.0,-30.7926845551,11.5243911743,-85.4878082275,1.0,0.0,0.0,0.0,1.0,0.0,0.0,0.0,1.0,-0.296881024126,-1.01035310059,-10.7020814209,1.0,0.0,0.0,0.0,1.0,0.0,0.0,0.0,1.0
1463470181133552662,481,1463470181131328865,,-7.41486501694,0.939003050327,-171.308898926,0.0100020002574,1.0,0.0,0.0,0.0,1.0,0.0,0.0,0.0,1.0,-26.8292694092,20.1829280853,-91.5243911743,1.0,0.0,0.0,0.0,1.0,0.0,0.0,0.0,1.0,1.14442839355,0.225054956055,-11.2383825928,1.0,0.0,0.0,0.0,1.0,0.0,0.0,0.0,1.0
1463470181143521705,482,1463470181141313012,,-7.68934297562,1.13950717449,-172.247619629,0.00999599974602,1.0,0.0,0.0,0.0,1.0,0.0,0.0,0.0,1.0,-20.0,23.2926845551,-92.9878005981,1.0,0.0,0.0,0.0,1.0,0.0,0.0,0.0,1.0,1.6041151123,0.15801730957,-11.8943938477,1.0,0.0,0.0,0.0,1.0,0.0,0.0,0.0,1.0
1463470181153603300,483,1463470181151258669,,-7.90853404999,1.26466739178,-173.144470215,0.0100010000169,1.0,0.0,0.0,0.0,1.0,0.0,0.0,0.0,1.0,-14.1463422775,19.2073173523,-89.2682876587,1.0,0.0,0.0,0.0,1.0,0.0,0.0,0.0,1.0,0.952892260742,0.272938989258,-12.8999585449,1.0,0.0,0.0,0.0,1.0,0.0,0.0,0.0,1.0
1463470181163504583,484,1463470181161336306,,-8.05680370331,1.36331832409,-173.961502075,0.0100140003487,1.0,0.0,0.0,0.0,1.0,0.0,0.0,0.0,1.0,-8.17073154449,17.9268302917,-81.341468811,1.0,0.0,0.0,0.0,1.0,0.0,0.0,0.0,1.0,0.478840332031,0.067037651051,-13.0244570312,1.0,0.0,0.0,0.0,1.0,0.0,0.0,0.0,1.0
1463470181173497220,485,1463470181171294412,,-8.16281795502,1.44160997868,-174.68522644,0.00998899992555,1.0,0.0,0.0,0.0,1.0,0.0,0.0,0.0,1.0,-3.35365867615,15.0000009537,-72.5609817505,1.0,0.0,0.0,0.0,1.0,0.0,0.0,0.0,1.0,0.483628735352,0.282515795898,-13.6804682861,1.0,0.0,0.0,0.0,1.0,0.0,0.0,0.0,1.0
1463470181183160847,486,1463470181181319496,,-8.21199035645,1.49079847336,-175.299163818,0.00999899953604,1.0,0.0,0.0,0.0,1.0,0.0,0.0,0.0,1.0,1.09756100178,8.84146404266,-62.3780517578,1.0,0.0,0.0,0.0,1.0,0.0,0.0,0.0,1.0,0.9193734375,0.0478840332031,-13.3596452637,1.0,0.0,0.0,0.0,1.0,0.0,0.0,0.0,1.0
1463470181193285411,487,1463470181191420935,,-8.21574783325,1.51574623585,-175.804794312,0.0100029995665,1.0,0.0,0.0,0.0,1.0,0.0,0.0,0.0,1.0,6.64634132385,5.0,-52.0121955872,1.0,0.0,0.0,0.0,1.0,0.0,0.0,0.0,1.0,0.895431420898,0.349553442383,-13.1058598877,1.0,0.0,0.0,0.0,1.0,0.0,0.0,0.0,1.0
1463470181203107006,488,1463470181201255395,,-8.14085197449,1.45536744595,-176.204421997,0.00999400019646,1.0,0.0,0.0,0.0,1.0,0.0,0.0,0.0,1.0,11.2804880142,-1.58536589146,-42.4390258789,1.0,0.0,0.0,0.0,1.0,0.0,0.0,0.0,1.0,0.105344873047,-0.335188232422,-13.0579758545,1.0,0.0,0.0,0.0,1.0,0.0,0.0,0.0,1.0
1463470181213431569,489,1463470181211257146,,-8.03740596771,1.34590566158,-176.512908936,0.0100039998069,1.0,0.0,0.0,0.0,1.0,0.0,0.0,0.0,1.0,14.8780498505,-4.75609779358,-33.6585388184,1.0,0.0,0.0,0.0,1.0,0.0,0.0,0.0,1.0,-0.593762048251,-0.110133276367,-12.5982891357,1.0,0.0,0.0,0.0,1.0,0.0,0.0,0.0,1.0
1463470181223404206,490,1463470181221237752,,-7.88434267044,1.19969010353,-176.754592896,0.00999599974602,1.0,0.0,0.0,0.0,1.0,0.0,0.0,0.0,1.0,18.2317085266,-6.34146356583,-27.1951236725,1.0,0.0,0.0,0.0,1.0,0.0,0.0,0.0,1.0,-1.34075292969,-0.469263525391,-12.8616513184,1.0,0.0,0.0,0.0,1.0,0.0,0.0,0.0,1.0
1463470181233133822,491,1463470181231246899,,-7.70487260818,1.03943836689,-176.946105957,0.00999899953604,1.0,0.0,0.0,0.0,1.0,0.0,0.0,0.0,1.0,19.817073822,-7.74390268326,-22.3170719147,1.0,0.0,0.0,0.0,1.0,0.0,0.0,0.0,1.0,-1.56580788574,-0.723048901367,-13.005303418,1.0,0.0,0.0,0.0,1.0,0.0,0.0,0.0,1.0
1463470181243408125,492,1463470181241248390,,-7.53635025024,0.882724702358,-177.111465454,0.00999899953604,1.0,0.0,0.0,0.0,1.0,0.0,0.0,0.0,1.0,20.3658542633,-6.58536624908,-19.4512195587,1.0,0.0,0.0,0.0,1.0,0.0,0.0,0.0,1.0,-1.80043964844,-0.344765039063,-12.378022583,1.0,0.0,0.0,0.0,1.0,0.0,0.0,0.0,1.0
1463470181253123211,493,1463470181251285141,,-7.35415410995,0.715231359005,-177.260803223,0.0100130001083,1.0,0.0,0.0,0.0,1.0,0.0,0.0,0.0,1.0,22.8658542633,-6.0365858078,-17.6829280853,1.0,0.0,0.0,0.0,1.0,0.0,0.0,0.0,1.0,-2.04943662109,-0.105344873047,-11.2240173828,1.0,0.0,0.0,0.0,1.0,0.0,0.0,0.0,1.0
1463470181263421732,494,1463470181261264653,,-7.16479158401,0.550567269325,-177.397399902,0.00999299995601,1.0,0.0,0.0,0.0,1.0,0.0,0.0,0.0,1.0,25.5487804413,-3.96341490746,-16.0975608826,1.0,0.0,0.0,0.0,1.0,0.0,0.0,0.0,1.0,-2.16435844691,0.215478149414,-9.64384487163,1.0,0.0,0.0,0.0,1.0,0.0,0.0,0.0,1.0
1463470181276931914,495,1463470181271256248,,-6.97906732559,0.436949163675,-177.522796631,0.00999400019646,1.0,0.0,0.0,0.0,1.0,0.0,0.0,0.0,1.0,28.1097564697,-0.18292683363,-14.4512205124,1.0,0.0,0.0,0.0,1.0,0.0,0.0,0.0,1.0,-1.78128603516,0.632069238281,-8.6239149644,1.0,0.0,0.0,0.0,1.0,0.0,0.0,0.0,1.0
1463470181296005835,496,1463470181285112159,,-6.77997732162,0.345430165529,-177.62159729,0.0100320000201,1.0,0.0,0.0,0.0,1.0,0.0,0.0,0.0,1.0,31.341463089,2.98780488968,-11.341463089,1.0,0.0,0.0,0.0,1.0,0.0,0.0,0.0,1.0,-1.78607443848,0.809240161133,-7.60877287598,1.0,0.0,0.0,0.0,1.0,0.0,0.0,0.0,1.0
1463470181300554108,497,1463470181298772757,,-6.38199234009,0.267512947321,-177.71522522,0.0150349996984,1.0,0.0,0.0,0.0,1.0,0.0,0.0,0.0,1.0,36.5243911743,8.5365858078,-7.07317113876,1.0,0.0,0.0,0.0,1.0,0.0,0.0,0.0,1.0,-1.71424838867,0.474051928711,-6.19140549316,1.0,0.0,0.0,0.0,1.0,0.0,0.0,0.0,1.0
1463470181307459719,498,1463470181305545296,,-6.21116685867,0.240323260427,-177.751144409,0.00627799984068,1.0,0.0,0.0,0.0,1.0,0.0,0.0,0.0,1.0,38.2926864624,10.1219511032,-6.46341466904,1.0,0.0,0.0,0.0,1.0,0.0,0.0,0.0,1.0,-1.77170922852,0.531512805087,-6.00465776367,1.0,0.0,0.0,0.0,1.0,0.0,0.0,0.0,1.0
1463470181314274602,499,1463470181312797313,,-5.93811702728,0.20346018672,-177.797653198,0.00866900011897,1.0,0.0,0.0,0.0,1.0,0.0,0.0,0.0,1.0,40.7317085266,12.2560977936,-5.91463422775,1.0,0.0,0.0,0.0,1.0,0.0,0.0,0.0,1.0,-2.01591779785,0.301669427446,-5.96156213379,1.0,0.0,0.0,0.0,1.0,0.0,0.0,0.0,1.0
1463470181324079010,500,1463470181322625627,,-5.54045963287,0.185116559267,-177.845443726,0.00998300034553,1.0,0.0,0.0,0.0,1.0,0.0,0.0,0.0,1.0,42.4390258789,14.6341466904,-5.18292713165,1.0,0.0,0.0,0.0,1.0,0.0,0.0,0.0,1.0,-2.14999323695,-0.497993945312,-6.31590397949,1.0,0.0,0.0,0.0,1.0,0.0,0.0,0.0,1.0
1463470181333309304,501,1463470181331263423,,-5.15081596375,0.200544551015,-177.865829468,0.0100079998374,1.0,0.0,0.0,0.0,1.0,0.0,0.0,0.0,1.0,40.3048782349,17.8048782349,-2.25609779358,1.0,0.0,0.0,0.0,1.0,0.0,0.0,0.0,1.0,-2.17872351074,-0.694318481445,-6.34463439941,1.0,0.0,0.0,0.0,1.0,0.0,0.0,0.0,1.0
1463470181347697558,502,1463470181341260278,,-4.79943561554,0.268572747707,-177.840591431,0.0099950004369,1.0,0.0,0.0,0.0,1.0,0.0,0.0,0.0,1.0,34.8780479431,19.1463432312,2.25609779358,1.0,0.0,0.0,0.0,1.0,0.0,0.0,0.0,1.0,-1.82438166504,-0.957680664062,-6.6941878418,1.0,0.0,0.0,0.0,1.0,0.0,0.0,0.0,1.0
1463470181353066245,503,1463470181351311092,,-4.56447219849,0.386624604464,-177.760681152,0.0100159998983,1.0,0.0,0.0,0.0,1.0,0.0,0.0,0.0,1.0,27.2560977936,20.6097564697,7.68292665482,1.0,0.0,0.0,0.0,1.0,0.0,0.0,0.0,1.0,-1.4844050293,-0.493205541992,-7.07726010742,1.0,0.0,0.0,0.0,1.0,0.0,0.0,0.0,1.0
1463470181363128309,504,1463470181361272479,,-4.334379673,0.520493507385,-177.649246216,0.00998300034553,1.0,0.0,0.0,0.0,1.0,0.0,0.0,0.0,1.0,23.4146347046,20.0609760284,10.6707315445,1.0,0.0,0.0,0.0,1.0,0.0,0.0,0.0,1.0,-1.38384855957,-1.08696755371,-8.0397291748,1.0,0.0,0.0,0.0,1.0,0.0,0.0,0.0,1.0
1463470181373154018,505,1463470181371285793,,-4.18926095963,0.63436037302,-177.497619629,0.0100029995665,1.0,0.0,0.0,0.0,1.0,0.0,0.0,0.0,1.0,17.6829280853,17.6829280853,14.3902444839,1.0,0.0,0.0,0.0,1.0,0.0,0.0,0.0,1.0,-1.38384855957,-0.713472094727,-8.29830236958,1.0,0.0,0.0,0.0,1.0,0.0,0.0,0.0,1.0
1463470181383368582,506,1463470181381272440,,-4.11219835281,0.729304075241,-177.331192017,0.00999599974602,1.0,0.0,0.0,0.0,1.0,0.0,0.0,0.0,1.0,13.2926826477,17.8658542633,15.8536596298,1.0,0.0,0.0,0.0,1.0,0.0,0.0,0.0,1.0,-1.87705410156,-0.411802685547,-9.193734375,1.0,0.0,0.0,0.0,1.0,0.0,0.0,0.0,1.0
1463470181393501166,507,1463470181391334764,,-3.99517440796,0.798952579498,-177.176010132,0.0100029995665,1.0,0.0,0.0,0.0,1.0,0.0,0.0,0.0,1.0,13.5975618362,17.0121955872,14.5731706619,1.0,0.0,0.0,0.0,1.0,0.0,0.0,0.0,1.0,-2.20266552734,-1.08217922346,-9.42357714985,1.0,0.0,0.0,0.0,1.0,0.0,0.0,0.0,1.0
1463470181403451459,508,1463470181401274901,,-3.8995757103,0.873610019684,-177.018661499,0.00999999977648,1.0,0.0,0.0,0.0,1.0,0.0,0.0,0.0,1.0,7.92682981491,18.841463089,14.8170728683,1.0,0.0,0.0,0.0,1.0,0.0,0.0,0.0,1.0,-2.60010300293,-1.84353527832,-9.98860932617,1.0,0.0,0.0,0.0,1.0,0.0,0.0,0.0,1.0
1463470181413568367,509,1463470181411281913,,-3.89956951141,0.988720417023,-176.851028442,0.0100029995665,1.0,0.0,0.0,0.0,1.0,0.0,0.0,0.0,1.0,-0.670731723309,20.4878044128,15.9146347046,1.0,0.0,0.0,0.0,1.0,0.0,0.0,0.0,1.0,-2.29843359375,-1.77649763184,-10.8074262939,1.0,0.0,0.0,0.0,1.0,0.0,0.0,0.0,1.0
1463470181423488920,510,1463470181421282154,,-4.0046248436,1.09055781364,-176.646377563,0.00999299995601,1.0,0.0,0.0,0.0,1.0,0.0,0.0,0.0,1.0,-13.1707324982,20.4878044128,19.5731716156,1.0,0.0,0.0,0.0,1.0,0.0,0.0,0.0,1.0,-2.74375510254,-2.28406838379,-11.2814782227,1.0,0.0,0.0,0.0,1.0,0.0,0.0,0.0,1.0
1463470181433455203,511,1463470181431270520,,-4.25809288025,1.21385765076,-176.419326782,0.0100010000169,1.0,0.0,0.0,0.0,1.0,0.0,0.0,0.0,1.0,-24.6951236725,22.2560977936,22.0121955872,1.0,0.0,0.0,0.0,1.0,0.0,0.0,0.0,1.0,-2.95923325195,-1.69509477539,-12.5504051025,1.0,0.0,0.0,0.0,1.0,0.0,0.0,0.0,1.0
1463470181443501121,512,1463470181441284927,,-4.58937358856,1.34713923931,-176.195861816,0.00999899953604,1.0,0.0,0.0,0.0,1.0,0.0,0.0,0.0,1.0,-31.5243930817,22.8658542633,21.8292694092,1.0,0.0,0.0,0.0,1.0,0.0,0.0,0.0,1.0,-3.11725056152,-1.52750065918,-13.737929126,1.0,0.0,0.0,0.0,1.0,0.0,0.0,0.0,1.0
1463470181453476101,513,1463470181451276158,,-4.98358297348,1.48871016502,-175.994155884,0.00999800022691,1.0,0.0,0.0,0.0,1.0,0.0,0.0,0.0,1.0,-36.4024391174,25.6097564697,20.0609760284,1.0,0.0,0.0,0.0,1.0,0.0,0.0,0.0,1.0,-3.77326181641,-1.16358193377,-14.4753432373,1.0,0.0,0.0,0.0,1.0,0.0,0.0,0.0,1.0
1463470181463517280,514,1463470181461281607,,-5.43157100677,1.67817878723,-175.820999146,0.010006999597,1.0,0.0,0.0,0.0,1.0,0.0,0.0,0.0,1.0,-40.6707344055,31.9512214661,17.9878044128,1.0,0.0,0.0,0.0,1.0,0.0,0.0,0.0,1.0,-4.40533105469,-0.842758984375,-15.337255835,1.0,0.0,0.0,0.0,1.0,0.0,0.0,0.0,1.0
1463470181473389761,515,1463470181471273515,,-5.89941120148,1.92072629929,-175.709091187,0.00999599974602,1.0,0.0,0.0,0.0,1.0,0.0,0.0,0.0,1.0,-40.7317085266,39.2682914734,12.9268293381,1.0,0.0,0.0,0.0,1.0,0.0,0.0,0.0,1.0,-4.75488478933,-0.205901342773,-15.0882588623,1.0,0.0,0.0,0.0,1.0,0.0,0.0,0.0,1.0
1463470181483448335,516,1463470181481267193,,-6.35510540009,2.25577950478,-175.657363892,0.00999599974602,1.0,0.0,0.0,0.0,1.0,0.0,0.0,0.0,1.0,-40.3658561707,50.0,8.35365867615,1.0,0.0,0.0,0.0,1.0,0.0,0.0,0.0,1.0,-4.71657697825,-0.354341845703,-14.2359230713,1.0,0.0,0.0,0.0,1.0,0.0,0.0,0.0,1.0
1463470181493299618,517,1463470181491379517,,-6.84885454178,2.70123291016,-175.634475708,0.0100039998069,1.0,0.0,0.0,0.0,1.0,0.0,0.0,0.0,1.0,-41.7682952881,59.024394989,7.01219511032,1.0,0.0,0.0,0.0,1.0,0.0,0.0,0.0,1.0,-3.67270534668,0.354341845703,-13.110648291,1.0,0.0,0.0,0.0,1.0,0.0,0.0,0.0,1.0
1463470181503167255,518,1463470181501295592,,-7.34230995178,3.26904463768,-175.60496521,0.00999800022691,1.0,0.0,0.0,0.0,1.0,0.0,0.0,0.0,1.0,-42.134147644,65.2439041138,8.96341514587,1.0,0.0,0.0,0.0,1.0,0.0,0.0,0.0,1.0,-2.00634099121,0.402225878906,-12.5216746826,1.0,0.0,0.0,0.0,1.0,0.0,0.0,0.0,1.0
1463470181513200360,519,1463470181511264531,,-7.84690618515,3.89978861809,-175.543945312,0.00999899953604,1.0,0.0,0.0,0.0,1.0,0.0,0.0,0.0,1.0,-45.3048782349,67.865852356,12.9268293381,1.0,0.0,0.0,0.0,1.0,0.0,0.0,0.0,1.0,-1.16837033709,0.110133276367,-12.5791355225,1.0,0.0,0.0,0.0,1.0,0.0,0.0,0.0,1.0
1463470181523154247,520,1463470181521265917,,-8.36600494385,4.56716442108,-175.441619873,0.0100220004097,1.0,0.0,0.0,0.0,1.0,0.0,0.0,0.0,1.0,-49.1463432312,68.5365905762,17.5609760284,1.0,0.0,0.0,0.0,1.0,0.0,0.0,0.0,1.0,-0.569819995117,-0.263362164351,-13.0100918213,1.0,0.0,0.0,0.0,1.0,0.0,0.0,0.0,1.0
1463470181535159224,521,1463470181531200481,,-8.93201541901,5.24534797668,-175.29637146,0.00997699983418,1.0,0.0,0.0,0.0,1.0,0.0,0.0,0.0,1.0,-53.4146347046,68.2926864624,22.5609760284,1.0,0.0,0.0,0.0,1.0,0.0,0.0,0.0,1.0,-0.239420166016,0.129286889648,-13.3165496338,1.0,0.0,0.0,0.0,1.0,0.0,0.0,0.0,1.0
1463470181543159520,522,1463470181541266451,,-9.53660678864,5.96302700043,-175.107177734,0.0100090000778,1.0,0.0,0.0,0.0,1.0,0.0,0.0,0.0,1.0,-56.1585388184,68.4146347046,27.7439041138,1.0,0.0,0.0,0.0,1.0,0.0,0.0,0.0,1.0,0.531512805087,0.60812722168,-13.0005150146,1.0,0.0,0.0,0.0,1.0,0.0,0.0,0.0,1.0
1463470181553124605,523,1463470181551211328,,-10.1262760162,6.64139938354,-174.858581543,0.00998899992555,1.0,0.0,0.0,0.0,1.0,0.0,0.0,0.0,1.0,-54.634147644,61.1585350037,33.2926826477,1.0,0.0,0.0,0.0,1.0,0.0,0.0,0.0,1.0,1.18273554705,0.957680664062,-12.6844803955,1.0,0.0,0.0,0.0,1.0,0.0,0.0,0.0,1.0
1463470181563386929,524,1463470181561222610,,-10.68932724,7.28217220306,-174.580566406,0.010006999597,1.0,0.0,0.0,0.0,1.0,0.0,0.0,0.0,1.0,-49.0853652954,53.7195129395,35.8536605835,1.0,0.0,0.0,0.0,1.0,0.0,0.0,0.0,1.0,1.90099611816,1.79565124512,-12.1769096436,1.0,0.0,0.0,0.0,1.0,0.0,0.0,0.0,1.0
1463470181573331910,525,1463470181571212330,,-11.1566724777,7.82444238663,-174.290252686,0.00999800022691,1.0,0.0,0.0,0.0,1.0,0.0,0.0,0.0,1.0,-39.1463432312,44.3292694092,35.9146347046,1.0,0.0,0.0,0.0,1.0,0.0,0.0,0.0,1.0,1.80522805176,2.04464821777,-11.7890489746,1.0,0.0,0.0,0.0,1.0,0.0,0.0,0.0,1.0
1463470181583478452,526,1463470181581235175,,-11.504322052,8.27931880951,-173.996368408,0.0100090000778,1.0,0.0,0.0,0.0,1.0,0.0,0.0,0.0,1.0,-28.2926845551,35.2439041138,34.634147644,1.0,0.0,0.0,0.0,1.0,0.0,0.0,0.0,1.0,1.89620771484,1.89620771484,-11.4442839355,1.0,0.0,0.0,0.0,1.0,0.0,0.0,0.0,1.0
1463470181593421245,527,1463470181591210521,,-11.7515563965,8.67407989502,-173.685714722,0.00999299995601,1.0,0.0,0.0,0.0,1.0,0.0,0.0,0.0,1.0,-17.6219520569,26.8902454376,35.0000038147,1.0,0.0,0.0,0.0,1.0,0.0,0.0,0.0,1.0,2.27449157715,2.06859023437,-10.7116582275,1.0,0.0,0.0,0.0,1.0,0.0,0.0,0.0,1.0
1463470181602832113,528,1463470181601315918,,-11.8564128876,8.98349380493,-173.349121094,0.0100109996274,1.0,0.0,0.0,0.0,1.0,0.0,0.0,0.0,1.0,-5.91463422775,16.4634151459,35.1219520569,1.0,0.0,0.0,0.0,1.0,0.0,0.0,0.0,1.0,2.67192905273,1.73340200195,-10.8505219238,1.0,0.0,0.0,0.0,1.0,0.0,0.0,0.0,1.0
1463470181612893655,529,1463470181611282617,,-11.783987999,9.1758480072,-172.98840332,0.00999299995601,1.0,0.0,0.0,0.0,1.0,0.0,0.0,0.0,1.0,5.48780488968,4.39024400711,34.0853691101,1.0,0.0,0.0,0.0,1.0,0.0,0.0,0.0,1.0,2.83952316895,0.588973571866,-11.1713449463,1.0,0.0,0.0,0.0,1.0,0.0,0.0,0.0,1.0
1463470181622823740,530,1463470181621279785,,-11.6236915588,9.25158691406,-172.596176147,0.0100029995665,1.0,0.0,0.0,0.0,1.0,0.0,0.0,0.0,1.0,10.4878053665,-6.82926845551,34.2682952881,1.0,0.0,0.0,0.0,1.0,0.0,0.0,0.0,1.0,2.70065947266,-0.0909796630859,-11.1138841064,1.0,0.0,0.0,0.0,1.0,0.0,0.0,0.0,1.0
1463470181635191112,531,1463470181632659971,,-11.434305191,9.21213912964,-172.156280518,0.0099950004369,1.0,0.0,0.0,0.0,1.0,0.0,0.0,0.0,1.0,9.81707286835,-16.2804889679,36.6463432312,1.0,0.0,0.0,0.0,1.0,0.0,0.0,0.0,1.0,2.19787712402,-0.699106884766,-11.3293622559,1.0,0.0,0.0,0.0,1.0,0.0,0.0,0.0,1.0
1463470181645642081,532,1463470181642644952,,-11.2501735687,9.06921958923,-171.678283691,0.00999599974602,1.0,0.0,0.0,0.0,1.0,0.0,0.0,0.0,1.0,7.13414621353,-25.9146347046,38.2926864624,1.0,0.0,0.0,0.0,1.0,0.0,0.0,0.0,1.0,1.89141931152,-1.03908344744,-10.9845972168,1.0,0.0,0.0,0.0,1.0,0.0,0.0,0.0,1.0
1463470181655378364,533,1463470181652627536,,-11.1085443497,8.86900424957,-171.190689087,0.00999400019646,1.0,0.0,0.0,0.0,1.0,0.0,0.0,0.0,1.0,4.02439022064,-32.6219520569,38.2317085266,1.0,0.0,0.0,0.0,1.0,0.0,0.0,0.0,1.0,1.88184250488,-0.76614453125,-9.99818613281,1.0,0.0,0.0,0.0,1.0,0.0,0.0,0.0,1.0
1463470181664949231,534,1463470181662623402,,-10.9695386887,8.60471153259,-170.694137573,0.0100100003183,1.0,0.0,0.0,0.0,1.0,0.0,0.0,0.0,1.0,1.76829278469,-39.2682914734,37.5609779358,1.0,0.0,0.0,0.0,1.0,0.0,0.0,0.0,1.0,1.75734401855,-1.09175595703,-9.20809958496,1.0,0.0,0.0,0.0,1.0,0.0,0.0,0.0,1.0
1463470181674941295,535,1463470181672613122,,-10.8953390121,8.3043346405,-170.217681885,0.0099950004369,1.0,0.0,0.0,0.0,1.0,0.0,0.0,0.0,1.0,-0.914634168148,-43.4756126404,35.4878044128,1.0,0.0,0.0,0.0,1.0,0.0,0.0,0.0,1.0,1.65678754883,-0.478840332031,-8.06367119141,1.0,0.0,0.0,0.0,1.0,0.0,0.0,0.0,1.0
1463470181684748828,536,1463470181682954092,,-10.903090477,7.97222757339,-169.799743652,0.0100060002878,1.0,0.0,0.0,0.0,1.0,0.0,0.0,0.0,1.0,-0.975609779358,-43.3536567688,30.7926845551,1.0,0.0,0.0,0.0,1.0,0.0,0.0,0.0,1.0,1.11090957031,0.493205541992,-6.90008918457,1.0,0.0,0.0,0.0,1.0,0.0,0.0,0.0,1.0
1463470181694271674,537,1463470181691441940,,-10.8994503021,7.65842103958,-169.465011597,0.00999899953604,1.0,0.0,0.0,0.0,1.0,0.0,0.0,0.0,1.0,5.06097555161,-42.7439041138,23.1707324982,1.0,0.0,0.0,0.0,1.0,0.0,0.0,0.0,1.0,1.17315874041,0.775721337891,-5.70298835449,1.0,0.0,0.0,0.0,1.0,0.0,0.0,0.0,1.0
1463470181704159571,538,1463470181701277702,,-10.8812227249,7.41952800751,-169.217544556,0.0099950004369,1.0,0.0,0.0,0.0,1.0,0.0,0.0,0.0,1.0,12.2560977936,-40.6097564697,15.4878053665,1.0,0.0,0.0,0.0,1.0,0.0,0.0,0.0,1.0,1.72861359863,1.13006318359,-5.1379567627,1.0,0.0,0.0,0.0,1.0,0.0,0.0,0.0,1.0
1463470181714227885,539,1463470181711260443,,-10.7391767502,7.25244474411,-169.017944336,0.00999699998647,1.0,0.0,0.0,0.0,1.0,0.0,0.0,0.0,1.0,17.9878044128,-38.5365829468,10.1219511032,1.0,0.0,0.0,0.0,1.0,0.0,0.0,0.0,1.0,2.33674067418,0.378283862305,-5.14753356934,1.0,0.0,0.0,0.0,1.0,0.0,0.0,0.0,1.0
1463470181723606981,540,1463470181721269694,,-10.5459079742,7.03207540512,-168.834716797,0.0100039998069,1.0,0.0,0.0,0.0,1.0,0.0,0.0,0.0,1.0,20.4878044128,-39.7560997009,7.98780536652,1.0,0.0,0.0,0.0,1.0,0.0,0.0,0.0,1.0,2.15957004359,0.110133276367,-5.83227524414,1.0,0.0,0.0,0.0,1.0,0.0,0.0,0.0,1.0
1463470181734692793,541,1463470181731277071,,-10.3240699768,6.79745197296,-168.649612427,0.0100020002574,1.0,0.0,0.0,0.0,1.0,0.0,0.0,0.0,1.0,19.7560977936,-39.5731735229,7.92682981491,1.0,0.0,0.0,0.0,1.0,0.0,0.0,0.0,1.0,1.98718737793,-0.31124621582,-5.96156213379,1.0,0.0,0.0,0.0,1.0,0.0,0.0,0.0,1.0
1463470181744129962,542,1463470181741280176,,-10.0856351852,6.52614879608,-168.450561523,0.00999699998647,1.0,0.0,0.0,0.0,1.0,0.0,0.0,0.0,1.0,18.2926826477,-40.4268302917,9.02439117432,1.0,0.0,0.0,0.0,1.0,0.0,0.0,0.0,1.0,1.71424838867,-0.699106884766,-6.34463439941,1.0,0.0,0.0,0.0,1.0,0.0,0.0,0.0,1.0
1463470181753295205,543,1463470181751275365,,-9.84243392944,6.26558017731,-168.239593506,0.00999999977648,1.0,0.0,0.0,0.0,1.0,0.0,0.0,0.0,1.0,14.8780498505,-41.0975646973,9.87804889679,1.0,0.0,0.0,0.0,1.0,0.0,0.0,0.0,1.0,1.81001645508,-1.17315874041,-6.06690700684,1.0,0.0,0.0,0.0,1.0,0.0,0.0,0.0,1.0
1463470181763011696,544,1463470181761288679,,-9.68248653412,5.99123907089,-168.046615601,0.0100079998374,1.0,0.0,0.0,0.0,1.0,0.0,0.0,0.0,1.0,12.4390249252,-40.9146385193,8.96341514587,1.0,0.0,0.0,0.0,1.0,0.0,0.0,0.0,1.0,1.64242233887,-0.517147558594,-6.13394465332,1.0,0.0,0.0,0.0,1.0,0.0,0.0,0.0,1.0
1463470181772913135,545,1463470181771277982,,-9.52937221527,5.71785831451,-167.870269775,0.00999699998647,1.0,0.0,0.0,0.0,1.0,0.0,0.0,0.0,1.0,11.9512195587,-40.1219520569,7.62195110321,1.0,0.0,0.0,0.0,1.0,0.0,0.0,0.0,1.0,1.54186586914,-0.531512805087,-6.06211860352,1.0,0.0,0.0,0.0,1.0,0.0,0.0,0.0,1.0
1463470181797825274,546,1463470181784152020,,-9.39462566376,5.44366550446,-167.724441528,0.00999800022691,1.0,0.0,0.0,0.0,1.0,0.0,0.0,0.0,1.0,10.8536586761,-38.7195129395,5.0,1.0,0.0,0.0,0.0,1.0,0.0,0.0,0.0,1.0,1.51313544922,-0.536301208408,-6.56011254883,1.0,0.0,0.0,0.0,1.0,0.0,0.0,0.0,1.0
1463470181797881941,547,1463470181796485537,,-9.2249917984,5.0328578949,-167.592636108,0.0143839996308,1.0,0.0,0.0,0.0,1.0,0.0,0.0,0.0,1.0,8.65853691101,-35.3658561707,0.18292683363,1.0,0.0,0.0,0.0,1.0,0.0,0.0,0.0,1.0,1.21625444336,-0.775721337891,-7.6614453125,1.0,0.0,0.0,0.0,1.0,0.0,0.0,0.0,1.0
1463470181803099222,548,1463470181801370997,,-9.15435504913,4.87009906769,-167.549575806,0.00563600007445,1.0,0.0,0.0,0.0,1.0,0.0,0.0,0.0,1.0,7.37804937363,-34.8780479431,-1.2804877758,1.0,0.0,0.0,0.0,1.0,0.0,0.0,0.0,1.0,1.16358193377,-1.19231249982,-8.23605371094,1.0,0.0,0.0,0.0,1.0,0.0,0.0,0.0,1.0
1463470181813163474,549,1463470181811251238,,-9.05253410339,4.55908250809,-167.502059937,0.00997500028461,1.0,0.0,0.0,0.0,1.0,0.0,0.0,0.0,1.0,2.68292689323,-33.5975608826,-4.08536577225,1.0,0.0,0.0,0.0,1.0,0.0,0.0,0.0,1.0,0.746990917969,-1.78128603516,-9.15063874512,1.0,0.0,0.0,0.0,1.0,0.0,0.0,0.0,1.0
1463470181823063558,550,1463470181821255749,,-9.01187038422,4.24650716782,-167.500198364,0.0100079998374,1.0,0.0,0.0,0.0,1.0,0.0,0.0,0.0,1.0,-4.57317066193,-30.6097583771,-8.17073154449,1.0,0.0,0.0,0.0,1.0,0.0,0.0,0.0,1.0,0.325611425781,-2.19787712402,-9.7827079834,1.0,0.0,0.0,0.0,1.0,0.0,0.0,0.0,1.0
1463470181833136768,551,1463470181831239897,,-9.07919216156,3.95295596123,-167.557479858,0.00999999977648,1.0,0.0,0.0,0.0,1.0,0.0,0.0,0.0,1.0,-10.9756097794,-27.682926178,-13.2317075729,1.0,0.0,0.0,0.0,1.0,0.0,0.0,0.0,1.0,0.263362164351,-1.5083470459,-10.2184526855,1.0,0.0,0.0,0.0,1.0,0.0,0.0,0.0,1.0
1463470181843039092,552,1463470181841247273,,-9.17816638947,3.6753692627,-167.680114746,0.00999299995601,1.0,0.0,0.0,0.0,1.0,0.0,0.0,0.0,1.0,-17.7439022064,-20.6097564697,-18.9024391174,1.0,0.0,0.0,0.0,1.0,0.0,0.0,0.0,1.0,-0.632069238281,-2.27927998047,-10.1514150391,1.0,0.0,0.0,0.0,1.0,0.0,0.0,0.0,1.0
1463470181852983656,553,1463470181851249181,,-9.35514354706,3.49275970459,-167.887435913,0.0100050000474,1.0,0.0,0.0,0.0,1.0,0.0,0.0,0.0,1.0,-25.0,-12.6219520569,-26.0365848541,1.0,0.0,0.0,0.0,1.0,0.0,0.0,0.0,1.0,-0.148440512063,-2.13083962367,-9.62947966167,1.0,0.0,0.0,0.0,1.0,0.0,0.0,0.0,1.0
1463470181862804106,554,1463470181861231974,,-9.62359237671,3.43382549286,-168.204986572,0.00999899953604,1.0,0.0,0.0,0.0,1.0,0.0,0.0,0.0,1.0,-26.0365848541,-6.0365858078,-35.5487823486,1.0,0.0,0.0,0.0,1.0,0.0,0.0,0.0,1.0,1.19710090314,-0.775721337891,-10.1131078125,1.0,0.0,0.0,0.0,1.0,0.0,0.0,0.0,1.0
1463470181872620181,555,1463470181871237475,,-9.87537097931,3.36145234108,-168.61479187,0.0100029995665,1.0,0.0,0.0,0.0,1.0,0.0,0.0,0.0,1.0,-21.5243911743,-7.01219511032,-44.8780479431,1.0,0.0,0.0,0.0,1.0,0.0,0.0,0.0,1.0,1.64242233887,-0.349553442383,-11.5687824219,1.0,0.0,0.0,0.0,1.0,0.0,0.0,0.0,1.0
1463470181882560265,556,1463470181881240581,,-10.061589241,3.24252128601,-169.095275879,0.0100020002574,1.0,0.0,0.0,0.0,1.0,0.0,0.0,0.0,1.0,-16.4024391174,-7.62195110321,-52.2560997009,1.0,0.0,0.0,0.0,1.0,0.0,0.0,0.0,1.0,1.17794714373,-0.718260498047,-12.5982891357,1.0,0.0,0.0,0.0,1.0,0.0,0.0,0.0,1.0
1463470181894354565,557,1463470181892889360,,-10.214217186,3.0244512558,-169.596038818,0.00999599974602,1.0,0.0,0.0,0.0,1.0,0.0,0.0,0.0,1.0,-13.048781395,-10.8536586761,-54.9390258789,1.0,0.0,0.0,0.0,1.0,0.0,0.0,0.0,1.0,-0.234631762695,-0.708683691406,-13.6517378662,1.0,0.0,0.0,0.0,1.0,0.0,0.0,0.0,1.0
1463470181903568975,558,1463470181901243198,,-10.3508472443,2.76663804054,-170.065231323,0.0100039998069,1.0,0.0,0.0,0.0,1.0,0.0,0.0,0.0,1.0,-11.7682924271,-12.8048782349,-52.0731697083,1.0,0.0,0.0,0.0,1.0,0.0,0.0,0.0,1.0,-0.876277807617,-0.670376464844,-13.6996218994,1.0,0.0,0.0,0.0,1.0,0.0,0.0,0.0,1.0
1463470181913370726,559,1463470181911234064,,-10.5037670135,2.54283595085,-170.480926514,0.0099950004369,1.0,0.0,0.0,0.0,1.0,0.0,0.0,0.0,1.0,-12.5609760284,-12.1341466904,-46.5243911743,1.0,0.0,0.0,0.0,1.0,0.0,0.0,0.0,1.0,-0.493205541992,-0.316034619141,-13.9007348389,1.0,0.0,0.0,0.0,1.0,0.0,0.0,0.0,1.0
1463470181922548677,560,1463470181921239409,,-10.6433868408,2.31961345673,-170.832443237,0.0100020002574,1.0,0.0,0.0,0.0,1.0,0.0,0.0,0.0,1.0,-10.548781395,-15.2439022064,-40.5487823486,1.0,0.0,0.0,0.0,1.0,0.0,0.0,0.0,1.0,-0.0191536132812,0.0,-13.843273999,1.0,0.0,0.0,0.0,1.0,0.0,0.0,0.0,1.0
1463470181933788655,561,1463470181931259650,,-10.7426528931,2.07928323746,-171.120635986,0.00999599974602,1.0,0.0,0.0,0.0,1.0,0.0,0.0,0.0,1.0,-6.58536624908,-19.6951236725,-35.0000038147,1.0,0.0,0.0,0.0,1.0,0.0,0.0,0.0,1.0,0.325611425781,0.105344873047,-13.2543003906,1.0,0.0,0.0,0.0,1.0,0.0,0.0,0.0,1.0
1463470181943889938,562,1463470181941228276,,-10.7947845459,1.79025030136,-171.374984741,0.00999599974602,1.0,0.0,0.0,0.0,1.0,0.0,0.0,0.0,1.0,0.0,-24.0243911743,-32.317073822,1.0,0.0,0.0,0.0,1.0,0.0,0.0,0.0,1.0,0.0191536132812,0.632069238281,-13.2782424072,1.0,0.0,0.0,0.0,1.0,0.0,0.0,0.0,1.0
1463470181954529188,563,1463470181951267059,,-10.7287797928,1.42109656334,-171.623703003,0.0100060002878,1.0,0.0,0.0,0.0,1.0,0.0,0.0,0.0,1.0,8.47560977936,-27.5,-32.4390220642,1.0,0.0,0.0,0.0,1.0,0.0,0.0,0.0,1.0,-1.09654436035,-0.119710083008,-12.9574193848,1.0,0.0,0.0,0.0,1.0,0.0,0.0,0.0,1.0
1463470181964693751,564,1463470181961235321,,-10.6012020111,1.04352855682,-171.869293213,0.00999899953604,1.0,0.0,0.0,0.0,1.0,0.0,0.0,0.0,1.0,13.9634151459,-27.7439041138,-32.0731697083,1.0,0.0,0.0,0.0,1.0,0.0,0.0,0.0,1.0,-1.37906015625,-0.263362164351,-13.2207815674,1.0,0.0,0.0,0.0,1.0,0.0,0.0,0.0,1.0
1463470181974978575,565,1463470181971309884,,-10.4304656982,0.65412324667,-172.106796265,0.0100010000169,1.0,0.0,0.0,0.0,1.0,0.0,0.0,0.0,1.0,18.475610733,-29.4512195587,-31.4024391174,1.0,0.0,0.0,0.0,1.0,0.0,0.0,0.0,1.0,-1.36948334961,-0.201112939453,-13.0148802246,1.0,0.0,0.0,0.0,1.0,0.0,0.0,0.0,1.0
1463470181984794702,566,1463470181981251532,,-10.2478017807,0.26553851366,-172.345535278,0.00999899953604,1.0,0.0,0.0,0.0,1.0,0.0,0.0,0.0,1.0,22.2560977936,-28.9024410248,-31.2195129395,1.0,0.0,0.0,0.0,1.0,0.0,0.0,0.0,1.0,-1.52750065918,0.383072265625,-12.4881558594,1.0,0.0,0.0,0.0,1.0,0.0,0.0,0.0,1.0
1463470181995121036,567,1463470181991259585,,-10.0797109604,-0.16318950057,-172.573822021,0.0100010000169,1.0,0.0,0.0,0.0,1.0,0.0,0.0,0.0,1.0,23.475610733,-30.6707305908,-30.3048782349,1.0,0.0,0.0,0.0,1.0,0.0,0.0,0.0,1.0,-2.07816689489,0.92416184082,-11.8512982178,1.0,0.0,0.0,0.0,1.0,0.0,0.0,0.0,1.0
1463470182004384247,568,1463470182001352690,,-9.86926555634,-0.529878616333,-172.783843994,0.010006999597,1.0,0.0,0.0,0.0,1.0,0.0,0.0,0.0,1.0,28.1707324982,-27.1951236725,-27.682926178,1.0,0.0,0.0,0.0,1.0,0.0,0.0,0.0,1.0,-1.47961662598,0.909796630859,-10.4818148682,1.0,0.0,0.0,0.0,1.0,0.0,0.0,0.0,1.0
1463470182014873081,569,1463470182011340483,,-9.61996936798,-0.901053071022,-172.974639893,0.0100159998983,1.0,0.0,0.0,0.0,1.0,0.0,0.0,0.0,1.0,30.4878044128,-26.0975627899,-25.3658542633,1.0,0.0,0.0,0.0,1.0,0.0,0.0,0.0,1.0,-1.75255561523,0.536301208408,-9.52892319194,1.0,0.0,0.0,0.0,1.0,0.0,0.0,0.0,1.0
1463470182025629153,570,1463470182021263693,,-9.34182453156,-1.22936999798,-173.137832642,0.00997800007463,1.0,0.0,0.0,0.0,1.0,0.0,0.0,0.0,1.0,32.4390220642,-23.0487823486,-21.9512195587,1.0,0.0,0.0,0.0,1.0,0.0,0.0,0.0,1.0,-1.5322890625,0.292092584273,-8.46589648579,1.0,0.0,0.0,0.0,1.0,0.0,0.0,0.0,1.0
1463470182036128820,571,1463470182031350913,,-9.07294559479,-1.50955140591,-173.275726318,0.00999999977648,1.0,0.0,0.0,0.0,1.0,0.0,0.0,0.0,1.0,32.5,-19.1463432312,-18.5975627899,1.0,0.0,0.0,0.0,1.0,0.0,0.0,0.0,1.0,-1.42215578613,0.387860668945,-7.92480749512,1.0,0.0,0.0,0.0,1.0,0.0,0.0,0.0,1.0
1463470182044652189,572,1463470182041263758,,-8.78854656219,-1.75608158112,-173.371887207,0.0099950004369,1.0,0.0,0.0,0.0,1.0,0.0,0.0,0.0,1.0,32.4390220642,-17.8048782349,-14.0243902206,1.0,0.0,0.0,0.0,1.0,0.0,0.0,0.0,1.0,-1.19710090314,0.105344873047,-7.4268135498,1.0,0.0,0.0,0.0,1.0,0.0,0.0,0.0,1.0
1463470182054800294,573,1463470182051335249,,-8.51187992096,-1.95222246647,-173.426147461,0.00999999977648,1.0,0.0,0.0,0.0,1.0,0.0,0.0,0.0,1.0,27.8658542633,-14.6341466904,-9.08536529541,1.0,0.0,0.0,0.0,1.0,0.0,0.0,0.0,1.0,-0.981622680664,-0.411802685547,-6.78037910156,1.0,0.0,0.0,0.0,1.0,0.0,0.0,0.0,1.0
1463470182062527415,574,1463470182061255074,,-8.27396965027,-2.13700485229,-173.42729187,0.0100159998983,1.0,0.0,0.0,0.0,1.0,0.0,0.0,0.0,1.0,22.9268302917,-14.1463422775,-3.53658556938,1.0,0.0,0.0,0.0,1.0,0.0,0.0,0.0,1.0,-0.995987890625,-0.579396801758,-6.58884296875,1.0,0.0,0.0,0.0,1.0,0.0,0.0,0.0,1.0
1463470182072550729,575,1463470182071286200,,-8.12719345093,-2.2983186245,-173.376190186,0.00999699998647,1.0,0.0,0.0,0.0,1.0,0.0,0.0,0.0,1.0,16.7073173523,-12.3170728683,1.95121955872,1.0,0.0,0.0,0.0,1.0,0.0,0.0,0.0,1.0,-1.02950671387,-0.282515795898,-6.45476767578,1.0,0.0,0.0,0.0,1.0,0.0,0.0,0.0,1.0
1463470182083294510,576,1463470182081222170,,-8.02274513245,-2.44175696373,-173.304260254,0.00999199971557,1.0,0.0,0.0,0.0,1.0,0.0,0.0,0.0,1.0,13.1097564697,-12.1951217651,4.08536577225,1.0,0.0,0.0,0.0,1.0,0.0,0.0,0.0,1.0,-0.91458503418,-0.239420166016,-6.65588061523,1.0,0.0,0.0,0.0,1.0,0.0,0.0,0.0,1.0
1463470182093728500,577,1463470182091268244,,-7.97514486313,-2.56759476662,-173.239089966,0.00999899953604,1.0,0.0,0.0,0.0,1.0,0.0,0.0,0.0,1.0,12.6829271317,-12.4390249252,3.17073178291,1.0,0.0,0.0,0.0,1.0,0.0,0.0,0.0,1.0,-0.670376464844,0.378283862305,-6.57447775879,1.0,0.0,0.0,0.0,1.0,0.0,0.0,0.0,1.0
1463470182103581762,578,1463470182101226662,,-7.94498491287,-2.69915175438,-173.204025269,0.0100029995665,1.0,0.0,0.0,0.0,1.0,0.0,0.0,0.0,1.0,16.5853652954,-13.048781395,-0.18292683363,1.0,0.0,0.0,0.0,1.0,0.0,0.0,0.0,1.0,-0.660799658203,1.10133276367,-6.86178195801,1.0,0.0,0.0,0.0,1.0,0.0,0.0,0.0,1.0
1463470182115189031,579,1463470182112928983,,-7.83839702606,-2.83245658875,-173.198928833,0.00999899953604,1.0,0.0,0.0,0.0,1.0,0.0,0.0,0.0,1.0,24.4512195587,-14.2073173523,-3.35365867615,1.0,0.0,0.0,0.0,1.0,0.0,0.0,0.0,1.0,-0.521935925381,1.18273554705,-7.11077893066,1.0,0.0,0.0,0.0,1.0,0.0,0.0,0.0,1.0
1463470182123701931,580,1463470182121223446,,-7.59633779526,-2.95251870155,-173.208786011,0.00999599974602,1.0,0.0,0.0,0.0,1.0,0.0,0.0,0.0,1.0,27.5609760284,-15.3048791885,-4.45121955872,1.0,0.0,0.0,0.0,1.0,0.0,0.0,0.0,1.0,-0.215478149414,-0.15801730957,-7.45075556641,1.0,0.0,0.0,0.0,1.0,0.0,0.0,0.0,1.0
1463470182135311023,581,1463470182131286395,,-7.3561630249,-3.08396840096,-173.195861816,0.0100039998069,1.0,0.0,0.0,0.0,1.0,0.0,0.0,0.0,1.0,24.5731716156,-18.1097564697,-2.31707310677,1.0,0.0,0.0,0.0,1.0,0.0,0.0,0.0,1.0,-0.0478840332031,-0.588973571866,-7.58004245605,1.0,0.0,0.0,0.0,1.0,0.0,0.0,0.0,1.0
1463470182144087048,582,1463470182141218928,,-7.09051990509,-3.27663707733,-173.179046631,0.00999699998647,1.0,0.0,0.0,0.0,1.0,0.0,0.0,0.0,1.0,22.0121955872,-21.341463089,-1.95121955872,1.0,0.0,0.0,0.0,1.0,0.0,0.0,0.0,1.0,-0.512359155273,-1.50355864258,-8.44195446919,1.0,0.0,0.0,0.0,1.0,0.0,0.0,0.0,1.0
1463470182154234476,583,1463470182151242294,,-6.89324998856,-3.50567317009,-173.153488159,0.010006999597,1.0,0.0,0.0,0.0,1.0,0.0,0.0,0.0,1.0,16.6463413239,-22.9268302917,-1.2195122242,1.0,0.0,0.0,0.0,1.0,0.0,0.0,0.0,1.0,-0.962469067383,-1.47482822266,-9.39963513325,1.0,0.0,0.0,0.0,1.0,0.0,0.0,0.0,1.0
1463470182164122581,584,1463470182161217118,,-6.7904291153,-3.75867819786,-173.115356445,0.0100029995665,1.0,0.0,0.0,0.0,1.0,0.0,0.0,0.0,1.0,9.81707286835,-20.9146347046,0.243902444839,1.0,0.0,0.0,0.0,1.0,0.0,0.0,0.0,1.0,-1.93451494141,-1.18273554705,-10.2040874756,1.0,0.0,0.0,0.0,1.0,0.0,0.0,0.0,1.0
1463470182174222458,585,1463470182171228453,,-6.71763467789,-4.00649595261,-173.077026367,0.0099950004369,1.0,0.0,0.0,0.0,1.0,0.0,0.0,0.0,1.0,6.89024400711,-18.7195110321,0.609756112099,1.0,0.0,0.0,0.0,1.0,0.0,0.0,0.0,1.0,-2.38462499965,-1.2497732666,-10.539275708,1.0,0.0,0.0,0.0,1.0,0.0,0.0,0.0,1.0
1463470182184313688,586,1463470182181220413,,-6.6737203598,-4.20486736298,-173.035629272,0.00999899953604,1.0,0.0,0.0,0.0,1.0,0.0,0.0,0.0,1.0,2.80487799644,-11.2804880142,1.95121955872,1.0,0.0,0.0,0.0,1.0,0.0,0.0,0.0,1.0,-3.0406361084,-1.58974990234,-10.8217915039,1.0,0.0,0.0,0.0,1.0,0.0,0.0,0.0,1.0
1463470182194122940,587,1463470182191224456,,-6.6594119072,-4.33507919312,-173.011734009,0.0100020002574,1.0,0.0,0.0,0.0,1.0,0.0,0.0,0.0,1.0,-2.86585378647,-1.58536589146,1.58536589146,1.0,0.0,0.0,0.0,1.0,0.0,0.0,0.0,1.0,-3.96479794922,-2.37025978969,-11.5831476318,1.0,0.0,0.0,0.0,1.0,0.0,0.0,0.0,1.0
1463470182204189066,588,1463470182201221572,,-6.74172115326,-4.34362888336,-173.017288208,0.00999800022691,1.0,0.0,0.0,0.0,1.0,0.0,0.0,0.0,1.0,-10.0,12.5,0.12195122242,1.0,0.0,0.0,0.0,1.0,0.0,0.0,0.0,1.0,-4.51546433105,-1.82917006836,-11.9710083008,1.0,0.0,0.0,0.0,1.0,0.0,0.0,0.0,1.0
1463470182214441963,589,1463470182211481395,,-6.90961742401,-4.16096639633,-173.086151123,0.0100010000169,1.0,0.0,0.0,0.0,1.0,0.0,0.0,0.0,1.0,-16.8292694092,32.317073822,-3.96341490746,1.0,0.0,0.0,0.0,1.0,0.0,0.0,0.0,1.0,-4.36702382812,-1.2497732666,-11.5735708252,1.0,0.0,0.0,0.0,1.0,0.0,0.0,0.0,1.0
1463470182224121944,590,1463470182221226689,,-7.12887477875,-3.79891490936,-173.203598022,0.0100029995665,1.0,0.0,0.0,0.0,1.0,0.0,0.0,0.0,1.0,-23.7804889679,50.365852356,-6.40243911743,1.0,0.0,0.0,0.0,1.0,0.0,0.0,0.0,1.0,-4.08450803223,-1.48919343262,-11.1330377197,1.0,0.0,0.0,0.0,1.0,0.0,0.0,0.0,1.0
1463470182234210987,591,1463470182231216409,,-7.42677545547,-3.23315930367,-173.359359741,0.00999599974602,1.0,0.0,0.0,0.0,1.0,0.0,0.0,0.0,1.0,-32.9878044128,67.6829299927,-7.80487823486,1.0,0.0,0.0,0.0,1.0,0.0,0.0,0.0,1.0,-3.02148249512,-1.52750065918,-10.4387192383,1.0,0.0,0.0,0.0,1.0,0.0,0.0,0.0,1.0
1463470182244099196,592,1463470182241218785,,-7.81452703476,-2.53575086594,-173.508682251,0.00999299995601,1.0,0.0,0.0,0.0,1.0,0.0,0.0,0.0,1.0,-39.817073822,77.2561035156,-5.73170757294,1.0,0.0,0.0,0.0,1.0,0.0,0.0,0.0,1.0,-2.54264216309,-1.19231249982,-12.0524111572,1.0,0.0,0.0,0.0,1.0,0.0,0.0,0.0,1.0
1463470182254144333,593,1463470182251232933,,-8.23604297638,-1.74526166916,-173.638946533,0.0100090000778,1.0,0.0,0.0,0.0,1.0,0.0,0.0,0.0,1.0,-44.6341438293,84.3292694092,-2.31707310677,1.0,0.0,0.0,0.0,1.0,0.0,0.0,0.0,1.0,-2.10210891149,-1.56580788574,-12.7419412354,1.0,0.0,0.0,0.0,1.0,0.0,0.0,0.0,1.0
1463470182264131866,594,1463470182261235048,,-8.71143817902,-0.959796905518,-173.738952637,0.0099950004369,1.0,0.0,0.0,0.0,1.0,0.0,0.0,0.0,1.0,-49.6951217651,84.2682952881,1.15853655338,1.0,0.0,0.0,0.0,1.0,0.0,0.0,0.0,1.0,-2.29364519043,-1.56580788574,-13.9390420654,1.0,0.0,0.0,0.0,1.0,0.0,0.0,0.0,1.0
1463470182278476265,595,1463470182271243206,,-9.28162002563,-0.160075351596,-173.768310547,0.0100050000474,1.0,0.0,0.0,0.0,1.0,0.0,0.0,0.0,1.0,-59.8780517578,84.3902511597,8.90243911743,1.0,0.0,0.0,0.0,1.0,0.0,0.0,0.0,1.0,-2.06859023437,-1.68072956543,-13.8863696289,1.0,0.0,0.0,0.0,1.0,0.0,0.0,0.0,1.0
1463470182284584743,596,1463470182282185164,,-9.94507789612,0.689554035664,-173.714035034,0.0100229997188,1.0,0.0,0.0,0.0,1.0,0.0,0.0,0.0,1.0,-66.6463470459,83.5365905762,17.9268302917,1.0,0.0,0.0,0.0,1.0,0.0,0.0,0.0,1.0,-0.871489404297,-0.938527050781,-14.7387054199,1.0,0.0,0.0,0.0,1.0,0.0,0.0,0.0,1.0
1463470182293182851,597,1463470182291222698,,-10.632727623,1.53565239906,-173.603347778,0.00996899977326,1.0,0.0,0.0,0.0,1.0,0.0,0.0,0.0,1.0,-67.865852356,80.5487823486,24.0243911743,1.0,0.0,0.0,0.0,1.0,0.0,0.0,0.0,1.0,-0.167594116211,-0.3064578125,-15.3755630615,1.0,0.0,0.0,0.0,1.0,0.0,0.0,0.0,1.0
1463470182304200590,598,1463470182301230648,,-11.2797346115,2.27851438522,-173.461639404,0.0100060002878,1.0,0.0,0.0,0.0,1.0,0.0,0.0,0.0,1.0,-65.9756088257,68.6585388184,25.6097564697,1.0,0.0,0.0,0.0,1.0,0.0,0.0,0.0,1.0,0.220266552734,-0.732625708008,-15.5048499512,1.0,0.0,0.0,0.0,1.0,0.0,0.0,0.0,1.0
1463470182314610622,599,1463470182311712502,,-11.8758964539,2.92890763283,-173.320663452,0.0100020002574,1.0,0.0,0.0,0.0,1.0,0.0,0.0,0.0,1.0,-61.2804870605,59.6341438293,24.3292694092,1.0,0.0,0.0,0.0,1.0,0.0,0.0,0.0,1.0,0.344765039063,-0.61770402832,-15.6006180176,1.0,0.0,0.0,0.0,1.0,0.0,0.0,0.0,1.0
1463470182324137374,600,1463470182321267952,,-12.4265232086,3.47468948364,-173.190597534,0.00999400019646,1.0,0.0,0.0,0.0,1.0,0.0,0.0,0.0,1.0,-55.9756126404,52.8658561707,22.3170719147,1.0,0.0,0.0,0.0,1.0,0.0,0.0,0.0,1.0,-0.445321508789,-0.205901342773,-15.4904847412,1.0,0.0,0.0,0.0,1.0,0.0,0.0,0.0,1.0
1463470182334245844,601,1463470182331233245,,-12.9094581604,3.92491531372,-173.072769165,0.0100140003487,1.0,0.0,0.0,0.0,1.0,0.0,0.0,0.0,1.0,-47.8658561707,44.390247345,19.6341457367,1.0,0.0,0.0,0.0,1.0,0.0,0.0,0.0,1.0,-0.536301208408,0.292092584273,-15.2366993652,1.0,0.0,0.0,0.0,1.0,0.0,0.0,0.0,1.0
1463470182344128377,602,1463470182341219997,,-13.2924852371,4.3230471611,-172.949874878,0.00998300034553,1.0,0.0,0.0,0.0,1.0,0.0,0.0,0.0,1.0,-40.0609741211,37.3780517578,18.7195110321,1.0,0.0,0.0,0.0,1.0,0.0,0.0,0.0,1.0,0.076614453125,-0.105344873047,-14.6142069336,1.0,0.0,0.0,0.0,1.0,0.0,0.0,0.0,1.0
1463470182354168774,603,1463470182351234873,,-13.6395053864,4.66894245148,-172.818710327,0.0100090000778,1.0,0.0,0.0,0.0,1.0,0.0,0.0,0.0,1.0,-32.865852356,29.7560997009,18.1707305908,1.0,0.0,0.0,0.0,1.0,0.0,0.0,0.0,1.0,0.756567724609,0.962469067383,-14.8344734863,1.0,0.0,0.0,0.0,1.0,0.0,0.0,0.0,1.0
1463470182364170473,604,1463470182361246624,,-13.8785543442,4.9251871109,-172.671783447,0.00999599974602,1.0,0.0,0.0,0.0,1.0,0.0,0.0,0.0,1.0,-21.7073173523,20.4268302917,17.6829280853,1.0,0.0,0.0,0.0,1.0,0.0,0.0,0.0,1.0,0.876277807617,1.18273554705,-14.4801316406,1.0,0.0,0.0,0.0,1.0,0.0,0.0,0.0,1.0
1463470182374220193,605,1463470182371233376,,-13.9975099564,5.07249736786,-172.521087646,0.0100039998069,1.0,0.0,0.0,0.0,1.0,0.0,0.0,0.0,1.0,-11.7682924271,10.6707315445,15.4878053665,1.0,0.0,0.0,0.0,1.0,0.0,0.0,0.0,1.0,0.646434448242,0.679953271484,-13.6756798828,1.0,0.0,0.0,0.0,1.0,0.0,0.0,0.0,1.0
1463470182384138819,606,1463470182381218773,,-14.01541996,5.11948442459,-172.367614746,0.00999800022691,1.0,0.0,0.0,0.0,1.0,0.0,0.0,0.0,1.0,-3.7804877758,2.74390244484,13.5975618362,1.0,0.0,0.0,0.0,1.0,0.0,0.0,0.0,1.0,0.205901342773,0.191536132812,-13.3404916504,1.0,0.0,0.0,0.0,1.0,0.0,0.0,0.0,1.0
1463470182394194737,607,1463470182391223441,,-13.9741039276,5.09377384186,-172.210723877,0.00999699998647,1.0,0.0,0.0,0.0,1.0,0.0,0.0,0.0,1.0,1.40243899822,-3.71951246262,12.2560977936,1.0,0.0,0.0,0.0,1.0,0.0,0.0,0.0,1.0,0.0478840332031,0.0191536132812,-12.2008516602,1.0,0.0,0.0,0.0,1.0,0.0,0.0,0.0,1.0
1463470182404135655,608,1463470182401224515,,-13.8884429932,5.02818107605,-172.053909302,0.0100039998069,1.0,0.0,0.0,0.0,1.0,0.0,0.0,0.0,1.0,5.12195110321,-7.80487823486,11.1585359573,1.0,0.0,0.0,0.0,1.0,0.0,0.0,0.0,1.0,0.0909796630859,-0.143652099609,-11.6549736816,1.0,0.0,0.0,0.0,1.0,0.0,0.0,0.0,1.0
1463470182414509854,609,1463470182411220954,,-13.7732782364,4.92468118668,-171.88381958,0.00999899953604,1.0,0.0,0.0,0.0,1.0,0.0,0.0,0.0,1.0,10.0,-13.9024391174,11.2195119858,1.0,0.0,0.0,0.0,1.0,0.0,0.0,0.0,1.0,0.502782348633,0.253785375977,-11.1186725098,1.0,0.0,0.0,0.0,1.0,0.0,0.0,0.0,1.0
1463470182424201606,610,1463470182421224737,,-13.6116809845,4.79858970642,-171.711669922,0.0099950004369,1.0,0.0,0.0,0.0,1.0,0.0,0.0,0.0,1.0,16.2804889679,-18.0487823486,10.6097564697,1.0,0.0,0.0,0.0,1.0,0.0,0.0,0.0,1.0,0.809240161133,0.512359155273,-10.314220752,1.0,0.0,0.0,0.0,1.0,0.0,0.0,0.0,1.0
1463470182434246691,611,1463470182431231801,,-13.3661937714,4.61547899246,-171.553924561,0.0100079998374,1.0,0.0,0.0,0.0,1.0,0.0,0.0,0.0,1.0,24.3292694092,-24.1463432312,7.68292665482,1.0,0.0,0.0,0.0,1.0,0.0,0.0,0.0,1.0,0.938527050781,0.378283862305,-10.0269165527,1.0,0.0,0.0,0.0,1.0,0.0,0.0,0.0,1.0
1463470182444180682,612,1463470182441228500,,-13.0360631943,4.40301036835,-171.393936157,0.00999100040644,1.0,0.0,0.0,0.0,1.0,0.0,0.0,0.0,1.0,28.7195110321,-28.7195110321,6.64634132385,1.0,0.0,0.0,0.0,1.0,0.0,0.0,0.0,1.0,1.10612116699,-0.397437475586,-9.1458503418,1.0,0.0,0.0,0.0,1.0,0.0,0.0,0.0,1.0
1463470182453753632,613,1463470182451282751,,-12.6713027954,4.15282201767,-171.213134766,0.0100079998374,1.0,0.0,0.0,0.0,1.0,0.0,0.0,0.0,1.0,29.6951236725,-32.6219520569,7.86585378647,1.0,0.0,0.0,0.0,1.0,0.0,0.0,0.0,1.0,0.943315454102,-0.76614453125,-8.2264769043,1.0,0.0,0.0,0.0,1.0,0.0,0.0,0.0,1.0
1463470182463730123,614,1463470182461278513,,-12.3434667587,3.87513232231,-171.000930786,0.00999299995601,1.0,0.0,0.0,0.0,1.0,0.0,0.0,0.0,1.0,28.2926845551,-36.7073173523,10.6097564697,1.0,0.0,0.0,0.0,1.0,0.0,0.0,0.0,1.0,0.881066210937,-0.392649072266,-7.12993254395,1.0,0.0,0.0,0.0,1.0,0.0,0.0,0.0,1.0
1463470182473698332,615,1463470182471276254,,-12.0949020386,3.63494157791,-170.771713257,0.0100060002878,1.0,0.0,0.0,0.0,1.0,0.0,0.0,0.0,1.0,28.8414649963,-35.7317085266,13.3536586761,1.0,0.0,0.0,0.0,1.0,0.0,0.0,0.0,1.0,1.09175595703,0.627280834961,-6.66545742187,1.0,0.0,0.0,0.0,1.0,0.0,0.0,0.0,1.0
1463470182483769667,616,1463470182481282745,,-11.8391599655,3.4186296463,-170.541442871,0.00999999977648,1.0,0.0,0.0,0.0,1.0,0.0,0.0,0.0,1.0,32.0121955872,-34.634147644,14.0243902206,1.0,0.0,0.0,0.0,1.0,0.0,0.0,0.0,1.0,0.995987890625,0.718260498047,-5.42526096191,1.0,0.0,0.0,0.0,1.0,0.0,0.0,0.0,1.0
1463470182493728293,617,1463470182491269496,,-11.5348882675,3.31107258797,-170.344604492,0.00999699998647,1.0,0.0,0.0,0.0,1.0,0.0,0.0,0.0,1.0,38.2317085266,-29.3292694092,11.9512195587,1.0,0.0,0.0,0.0,1.0,0.0,0.0,0.0,1.0,1.32159931641,0.646434448242,-4.41969626465,1.0,0.0,0.0,0.0,1.0,0.0,0.0,0.0,1.0
1463470182503716503,618,1463470182501283747,,-11.0428934097,3.20883440971,-170.19644165,0.00999599974602,1.0,0.0,0.0,0.0,1.0,0.0,0.0,0.0,1.0,39.8780479431,-27.1341457367,6.58536624908,1.0,0.0,0.0,0.0,1.0,0.0,0.0,0.0,1.0,1.40300217285,-0.943315454102,-4.90811340332,1.0,0.0,0.0,0.0,1.0,0.0,0.0,0.0,1.0
1463470182513890546,619,1463470182511266697,,-10.5517206192,3.08612751961,-170.101287842,0.0100029995665,1.0,0.0,0.0,0.0,1.0,0.0,0.0,0.0,1.0,36.1585350037,-22.2560977936,2.19512200356,1.0,0.0,0.0,0.0,1.0,0.0,0.0,0.0,1.0,1.01992990723,-1.60890351563,-5.89931289062,1.0,0.0,0.0,0.0,1.0,0.0,0.0,0.0,1.0
1463470182523740527,620,1463470182521276313,,-10.1024494171,2.95906043053,-170.08190918,0.00999899953604,1.0,0.0,0.0,0.0,1.0,0.0,0.0,0.0,1.0,31.0975627899,-15.7317075729,-4.08536577225,1.0,0.0,0.0,0.0,1.0,0.0,0.0,0.0,1.0,0.416591088867,-1.92972653809,-6.35899960937,1.0,0.0,0.0,0.0,1.0,0.0,0.0,0.0,1.0
1463470182533750715,621,1463470182531268533,,-9.74548244476,2.80246400833,-170.132263184,0.0100029995665,1.0,0.0,0.0,0.0,1.0,0.0,0.0,0.0,1.0,26.3414649963,-12.0121955872,-10.0609760284,1.0,0.0,0.0,0.0,1.0,0.0,0.0,0.0,1.0,-0.263362164351,-1.59932670898,-7.1203557373,1.0,0.0,0.0,0.0,1.0,0.0,0.0,0.0,1.0
1463470182543742779,622,1463470182541268617,,-9.43675327301,2.71502637863,-170.267364502,0.00999299995601,1.0,0.0,0.0,0.0,1.0,0.0,0.0,0.0,1.0,21.8292694092,-5.42682933807,-17.3780498505,1.0,0.0,0.0,0.0,1.0,0.0,0.0,0.0,1.0,-0.076614453125,-1.69030637207,-7.24485422363,1.0,0.0,0.0,0.0,1.0,0.0,0.0,0.0,1.0
1463470182553788593,623,1463470182551337660,,-9.15304088593,2.65668559074,-170.479446411,0.0100109996274,1.0,0.0,0.0,0.0,1.0,0.0,0.0,0.0,1.0,17.317073822,-3.04878044128,-24.7560977936,1.0,0.0,0.0,0.0,1.0,0.0,0.0,0.0,1.0,0.143652099609,-2.27449157715,-7.93438430176,1.0,0.0,0.0,0.0,1.0,0.0,0.0,0.0,1.0
1463470182563743886,624,1463470182561309203,,-8.93124103546,2.61643862724,-170.740982056,0.00999800022691,1.0,0.0,0.0,0.0,1.0,0.0,0.0,0.0,1.0,10.0609760284,-1.76829278469,-29.5731697083,1.0,0.0,0.0,0.0,1.0,0.0,0.0,0.0,1.0,0.31124621582,-2.55700737305,-7.98226833496,1.0,0.0,0.0,0.0,1.0,0.0,0.0,0.0,1.0
1463470182573604648,625,1463470182571283559,,-8.80369949341,2.56964325905,-171.044464111,0.00999800022691,1.0,0.0,0.0,0.0,1.0,0.0,0.0,0.0,1.0,2.25609779358,0.0,-33.4146347046,1.0,0.0,0.0,0.0,1.0,0.0,0.0,0.0,1.0,0.0335188255255,-2.51870014648,-8.61912656108,1.0,0.0,0.0,0.0,1.0,0.0,0.0,0.0,1.0
1463470182583819732,626,1463470182581293644,,-8.77096652985,2.54753541946,-171.393707275,0.0100029995665,1.0,0.0,0.0,0.0,1.0,0.0,0.0,0.0,1.0,-3.65853667259,1.2804877758,-37.6219520569,1.0,0.0,0.0,0.0,1.0,0.0,0.0,0.0,1.0,0.325611425781,-1.98718737793,-8.82023891602,1.0,0.0,0.0,0.0,1.0,0.0,0.0,0.0,1.0
1463470182593737838,627,1463470182591266853,,-8.74898719788,2.58935236931,-171.799453735,0.00999299995601,1.0,0.0,0.0,0.0,1.0,0.0,0.0,0.0,1.0,-7.13414621353,3.10975623131,-43.1707305908,1.0,0.0,0.0,0.0,1.0,0.0,0.0,0.0,1.0,1.10612116699,-2.30801040039,-8.11155522461,1.0,0.0,0.0,0.0,1.0,0.0,0.0,0.0,1.0
1463470182603764746,628,1463470182601286261,,-8.80838871002,2.69296550751,-172.240234375,0.0100050000474,1.0,0.0,0.0,0.0,1.0,0.0,0.0,0.0,1.0,-9.39024448395,0.670731723309,-46.7682952881,1.0,0.0,0.0,0.0,1.0,0.0,0.0,0.0,1.0,2.51870014648,-1.4844050293,-8.10676682129,1.0,0.0,0.0,0.0,1.0,0.0,0.0,0.0,1.0
1463470182613824830,629,1463470182611276971,,-8.9593334198,2.84093856812,-172.696273804,0.00999999977648,1.0,0.0,0.0,0.0,1.0,0.0,0.0,0.0,1.0,-9.26829242706,-1.40243899822,-48.2317085266,1.0,0.0,0.0,0.0,1.0,0.0,0.0,0.0,1.0,4.18027580637,-0.134075302102,-9.19852277832,1.0,0.0,0.0,0.0,1.0,0.0,0.0,0.0,1.0
1463470182623744655,630,1463470182621268097,,-8.99715042114,2.74571108818,-173.138092041,0.0099950004369,1.0,0.0,0.0,0.0,1.0,0.0,0.0,0.0,1.0,-2.74390244484,-16.5243911743,-49.5121955872,1.0,0.0,0.0,0.0,1.0,0.0,0.0,0.0,1.0,2.8299463623,-0.962469067383,-10.6063133545,1.0,0.0,0.0,0.0,1.0,0.0,0.0,0.0,1.0
1463470182633734219,631,1463470182631275265,,-8.986328125,2.55966472626,-173.576858521,0.0100050000474,1.0,0.0,0.0,0.0,1.0,0.0,0.0,0.0,1.0,-0.609756112099,-21.8292694092,-50.1219520569,1.0,0.0,0.0,0.0,1.0,0.0,0.0,0.0,1.0,2.11647412145,-1.47003981934,-10.8600987305,1.0,0.0,0.0,0.0,1.0,0.0,0.0,0.0,1.0
1463470182643775501,632,1463470182641267173,,-8.98719215393,2.26539683342,-173.984893799,0.00999100040644,1.0,0.0,0.0,0.0,1.0,0.0,0.0,0.0,1.0,-1.46341466904,-27.9878063202,-47.9878044128,1.0,0.0,0.0,0.0,1.0,0.0,0.0,0.0,1.0,1.16358193377,-1.42215578613,-11.8560866211,1.0,0.0,0.0,0.0,1.0,0.0,0.0,0.0,1.0
1463470182653755794,633,1463470182651289445,,-8.97616386414,1.93840265274,-174.376419067,0.0100090000778,1.0,0.0,0.0,0.0,1.0,0.0,0.0,0.0,1.0,-1.64634156227,-31.0365867615,-46.7073173523,1.0,0.0,0.0,0.0,1.0,0.0,0.0,0.0,1.0,0.991199487305,-1.61848032227,-11.5687824219,1.0,0.0,0.0,0.0,1.0,0.0,0.0,0.0,1.0
1463470182663767858,634,1463470182661246040,,-8.96683597565,1.61489534378,-174.764129639,0.0100010000169,1.0,0.0,0.0,0.0,1.0,0.0,0.0,0.0,1.0,-2.98780488968,-31.341463089,-46.3414649963,1.0,0.0,0.0,0.0,1.0,0.0,0.0,0.0,1.0,0.995987890625,-1.74297880859,-11.04684646,1.0,0.0,0.0,0.0,1.0,0.0,0.0,0.0,1.0
1463470182673721797,635,1463470182671279510,,-9.04586029053,1.31022429466,-175.143707275,0.00999999977648,1.0,0.0,0.0,0.0,1.0,0.0,0.0,0.0,1.0,-4.93902444839,-31.7073192596,-45.3048782349,1.0,0.0,0.0,0.0,1.0,0.0,0.0,0.0,1.0,1.32159931641,-0.292092584273,-10.8217915039,1.0,0.0,0.0,0.0,1.0,0.0,0.0,0.0,1.0
1463470182683746204,636,1463470182681298136,,-9.10395622253,1.00786340237,-175.539474487,0.00999899953604,1.0,0.0,0.0,0.0,1.0,0.0,0.0,0.0,1.0,-3.41463422775,-30.2439022064,-46.7073173523,1.0,0.0,0.0,0.0,1.0,0.0,0.0,0.0,1.0,1.04866025408,-0.339976635742,-10.5105452881,1.0,0.0,0.0,0.0,1.0,0.0,0.0,0.0,1.0
1463470182693732070,637,1463470182691266919,,-9.09084892273,0.711826145649,-175.995437622,0.0099950004369,1.0,0.0,0.0,0.0,1.0,0.0,0.0,0.0,1.0,-0.12195122242,-24.5121955872,-51.8902435303,1.0,0.0,0.0,0.0,1.0,0.0,0.0,0.0,1.0,0.215478149414,-1.05823706072,-10.8074262939,1.0,0.0,0.0,0.0,1.0,0.0,0.0,0.0,1.0
1463470182703605645,638,1463470182701288410,,-9.05851268768,0.41455334425,-176.506988525,0.0100020002574,1.0,0.0,0.0,0.0,1.0,0.0,0.0,0.0,1.0,1.34146344662,-21.5243911743,-56.8902435303,1.0,0.0,0.0,0.0,1.0,0.0,0.0,0.0,1.0,-0.292092584273,-1.18273554705,-11.4299187256,1.0,0.0,0.0,0.0,1.0,0.0,0.0,0.0,1.0
1463470182713933802,639,1463470182711280526,,-9.03214931488,0.154042512178,-177.050598145,0.0100020002574,1.0,0.0,0.0,0.0,1.0,0.0,0.0,0.0,1.0,1.95121955872,-17.9878044128,-59.4512176514,1.0,0.0,0.0,0.0,1.0,0.0,0.0,0.0,1.0,-0.239420166016,-0.905008227539,-11.6549736816,1.0,0.0,0.0,0.0,1.0,0.0,0.0,0.0,1.0
1463470182723583366,640,1463470182721273319,,-8.98708057404,-0.091947555542,-177.607223511,0.00999800022691,1.0,0.0,0.0,0.0,1.0,0.0,0.0,0.0,1.0,3.96341490746,-15.8536596298,-60.3658561707,1.0,0.0,0.0,0.0,1.0,0.0,0.0,0.0,1.0,-0.402225878906,-0.823605371094,-11.5544172119,1.0,0.0,0.0,0.0,1.0,0.0,0.0,0.0,1.0
1463470182733779857,641,1463470182731271945,,-8.92021083832,-0.347692996264,-178.161911011,0.0100029995665,1.0,0.0,0.0,0.0,1.0,0.0,0.0,0.0,1.0,7.01219511032,-16.2195110321,-60.1219520569,1.0,0.0,0.0,0.0,1.0,0.0,0.0,0.0,1.0,-0.612915625,-0.622492431641,-11.9422778809,1.0,0.0,0.0,0.0,1.0,0.0,0.0,0.0,1.0
1463470182743755410,642,1463470182741272394,,-8.83928966522,-0.582584619522,-178.698501587,0.00999199971557,1.0,0.0,0.0,0.0,1.0,0.0,0.0,0.0,1.0,10.6707315445,-15.0609760284,-58.1097564697,1.0,0.0,0.0,0.0,1.0,0.0,0.0,0.0,1.0,-0.550666381836,-0.105344873047,-11.899182251,1.0,0.0,0.0,0.0,1.0,0.0,0.0,0.0,1.0
1463470182753745235,643,1463470182751281437,,-8.69623470306,-0.826027750969,-179.214126587,0.0100060002878,1.0,0.0,0.0,0.0,1.0,0.0,0.0,0.0,1.0,15.2439022064,-15.2439022064,-55.8536605835,1.0,0.0,0.0,0.0,1.0,0.0,0.0,0.0,1.0,-0.828393774414,-0.430956298828,-11.884817041,1.0,0.0,0.0,0.0,1.0,0.0,0.0,0.0,1.0
1463470182763809173,644,1463470182761278501,,-8.48292160034,-1.05542862415,-179.719512939,0.0100020002574,1.0,0.0,0.0,0.0,1.0,0.0,0.0,0.0,1.0,21.5853652954,-14.2682924271,-54.5731735229,1.0,0.0,0.0,0.0,1.0,0.0,0.0,0.0,1.0,-0.857124194336,-0.565031591797,-11.8177793945,1.0,0.0,0.0,0.0,1.0,0.0,0.0,0.0,1.0
1463470182773775821,645,1463470182771284992,,-8.25698852539,-1.28419005871,179.810348511,0.0100020002574,1.0,0.0,0.0,0.0,1.0,0.0,0.0,0.0,1.0,22.6219520569,-14.7560987473,-50.9756088257,1.0,0.0,0.0,0.0,1.0,0.0,0.0,0.0,1.0,-0.948103857422,-0.636857641602,-11.9135474609,1.0,0.0,0.0,0.0,1.0,0.0,0.0,0.0,1.0
1463470182783788666,646,1463470182781307785,,-8.03856277466,-1.47914886475,179.400161743,0.00999999977648,1.0,0.0,0.0,0.0,1.0,0.0,0.0,0.0,1.0,23.2926845551,-13.9024391174,-44.7560997009,1.0,0.0,0.0,0.0,1.0,0.0,0.0,0.0,1.0,-0.641646044922,-0.344765039063,-11.1617681396,1.0,0.0,0.0,0.0,1.0,0.0,0.0,0.0,1.0
1463470182793592761,647,1463470182791275787,,-7.8446059227,-1.68680977821,179.054077148,0.00999800022691,1.0,0.0,0.0,0.0,1.0,0.0,0.0,0.0,1.0,23.1097564697,-12.6829271317,-38.1097564697,1.0,0.0,0.0,0.0,1.0,0.0,0.0,0.0,1.0,-1.38863696289,0.0478840332031,-11.1713449463,1.0,0.0,0.0,0.0,1.0,0.0,0.0,0.0,1.0
1463470182802856910,648,1463470182801299152,,-7.66201066971,-1.8715596199,178.764282227,0.00999999977648,1.0,0.0,0.0,0.0,1.0,0.0,0.0,0.0,1.0,24.6951236725,-11.6463422775,-32.317073822,1.0,0.0,0.0,0.0,1.0,0.0,0.0,0.0,1.0,-1.32638771973,0.531512805087,-10.912771167,1.0,0.0,0.0,0.0,1.0,0.0,0.0,0.0,1.0
1463470182813864857,649,1463470182811291216,,-7.43339204788,-2.01452708244,178.511474609,0.0100029995665,1.0,0.0,0.0,0.0,1.0,0.0,0.0,0.0,1.0,29.7560997009,-8.35365867615,-28.1097564697,1.0,0.0,0.0,0.0,1.0,0.0,0.0,0.0,1.0,-1.21625444336,0.536301208408,-10.1226846191,1.0,0.0,0.0,0.0,1.0,0.0,0.0,0.0,1.0
1463470182823699057,650,1463470182821300989,,-7.1592259407,-2.14668297768,178.287826538,0.0099950004369,1.0,0.0,0.0,0.0,1.0,0.0,0.0,0.0,1.0,32.317073822,-9.14634132385,-25.182926178,1.0,0.0,0.0,0.0,1.0,0.0,0.0,0.0,1.0,-0.957680664062,0.119710083008,-9.7827079834,1.0,0.0,0.0,0.0,1.0,0.0,0.0,0.0,1.0
1463470182833724246,651,1463470182831295448,,-6.84979295731,-2.26933002472,178.089813232,0.0100029995665,1.0,0.0,0.0,0.0,1.0,0.0,0.0,0.0,1.0,35.9146347046,-5.48780488968,-22.0731716156,1.0,0.0,0.0,0.0,1.0,0.0,0.0,0.0,1.0,-1.54186586914,0.0718260498047,-9.81143840332,1.0,0.0,0.0,0.0,1.0,0.0,0.0,0.0,1.0
1463470182843701726,652,1463470182841291522,,-6.51967334747,-2.36861562729,177.892471313,0.00999899953604,1.0,0.0,0.0,0.0,1.0,0.0,0.0,0.0,1.0,38.0487823486,-2.25609779358,-21.5853652954,1.0,0.0,0.0,0.0,1.0,0.0,0.0,0.0,1.0,-1.72382519531,0.0287304199219,-9.65821008159,1.0,0.0,0.0,0.0,1.0,0.0,0.0,0.0,1.0
1463470182853828113,653,1463470182851310722,,-6.1035451889,-2.44250130653,177.669067383,0.00999800022691,1.0,0.0,0.0,0.0,1.0,0.0,0.0,0.0,1.0,42.4390258789,1.76829278469,-23.5365848541,1.0,0.0,0.0,0.0,1.0,0.0,0.0,0.0,1.0,-1.88184250488,-0.713472094727,-9.15063874512,1.0,0.0,0.0,0.0,1.0,0.0,0.0,0.0,1.0
1463470182863899603,654,1463470182861266640,,-5.69928503036,-2.48995900154,177.440658569,0.00999699998647,1.0,0.0,0.0,0.0,1.0,0.0,0.0,0.0,1.0,40.3658561707,5.60975599289,-23.5975627899,1.0,0.0,0.0,0.0,1.0,0.0,0.0,0.0,1.0,-2.04943662109,-0.900219824219,-8.82981572266,1.0,0.0,0.0,0.0,1.0,0.0,0.0,0.0,1.0
1463470182873703751,655,1463470182871280683,,-5.32061052322,-2.48572778702,177.211776733,0.0100050000474,1.0,0.0,0.0,0.0,1.0,0.0,0.0,0.0,1.0,37.3780517578,9.87804889679,-23.2317085266,1.0,0.0,0.0,0.0,1.0,0.0,0.0,0.0,1.0,-1.95845695801,-1.03429511719,-8.93037219238,1.0,0.0,0.0,0.0,1.0,0.0,0.0,0.0,1.0
1463470182883784044,656,1463470182881296861,,-5.00646162033,-2.43331027031,176.991897583,0.00999999977648,1.0,0.0,0.0,0.0,1.0,0.0,0.0,0.0,1.0,32.682926178,14.4512205124,-22.0731716156,1.0,0.0,0.0,0.0,1.0,0.0,0.0,0.0,1.0,-2.03028300781,-0.847547387695,-9.28471345356,1.0,0.0,0.0,0.0,1.0,0.0,0.0,0.0,1.0
1463470182892996995,657,1463470182891288300,,-4.7194776535,-2.37002372742,176.779846191,0.00999699998647,1.0,0.0,0.0,0.0,1.0,0.0,0.0,0.0,1.0,27.5,20.0609760284,-20.7926826477,1.0,0.0,0.0,0.0,1.0,0.0,0.0,0.0,1.0,-2.96881005859,-1.42694418945,-9.55765361187,1.0,0.0,0.0,0.0,1.0,0.0,0.0,0.0,1.0
1463470182903584734,658,1463470182901293020,,-4.46515893936,-2.24953866005,176.564071655,0.00999999977648,1.0,0.0,0.0,0.0,1.0,0.0,0.0,0.0,1.0,20.8536586761,26.5243911743,-20.6097564697,1.0,0.0,0.0,0.0,1.0,0.0,0.0,0.0,1.0,-3.28005627441,-2.2170307373,-9.95030209961,1.0,0.0,0.0,0.0,1.0,0.0,0.0,0.0,1.0
1463470182913709142,659,1463470182911282480,,-4.28779315948,-2.07891225815,176.362564087,0.0100039998069,1.0,0.0,0.0,0.0,1.0,0.0,0.0,0.0,1.0,7.68292665482,32.3780517578,-18.658536911,1.0,0.0,0.0,0.0,1.0,0.0,0.0,0.0,1.0,-3.68707055664,-3.58651408691,-10.2519715088,1.0,0.0,0.0,0.0,1.0,0.0,0.0,0.0,1.0
1463470182923601987,660,1463470182921282200,,-4.28177833557,-1.81729984283,176.186981201,0.00999599974602,1.0,0.0,0.0,0.0,1.0,0.0,0.0,0.0,1.0,-4.45121955872,40.6707344055,-15.7926826477,1.0,0.0,0.0,0.0,1.0,0.0,0.0,0.0,1.0,-3.63439812012,-2.67192905273,-10.8409451172,1.0,0.0,0.0,0.0,1.0,0.0,0.0,0.0,1.0
1463470182933603322,661,1463470182931273066,,-4.38193368912,-1.51441025734,176.024765015,0.0100020002574,1.0,0.0,0.0,0.0,1.0,0.0,0.0,0.0,1.0,-15.548781395,44.390247345,-14.2073173523,1.0,0.0,0.0,0.0,1.0,0.0,0.0,0.0,1.0,-3.72058937988,-2.95444484863,-11.4490723389,1.0,0.0,0.0,0.0,1.0,0.0,0.0,0.0,1.0
1463470182943557521,662,1463470182941312109,,-4.60008811951,-1.13736057281,175.872146606,0.0100109996274,1.0,0.0,0.0,0.0,1.0,0.0,0.0,0.0,1.0,-27.1951236725,51.2195129395,-12.6829271317,1.0,0.0,0.0,0.0,1.0,0.0,0.0,0.0,1.0,-3.6056677002,-2.96881005859,-11.6837041016,1.0,0.0,0.0,0.0,1.0,0.0,0.0,0.0,1.0
1463470182953612033,663,1463470182951275214,,-4.91959810257,-0.717536270618,175.7215271,0.00998899992555,1.0,0.0,0.0,0.0,1.0,0.0,0.0,0.0,1.0,-35.8536605835,56.2195129395,-12.0121955872,1.0,0.0,0.0,0.0,1.0,0.0,0.0,0.0,1.0,-3.75410820312,-2.66235224609,-12.0428343506,1.0,0.0,0.0,0.0,1.0,0.0,0.0,0.0,1.0
1463470182963854409,664,1463470182961276185,,-5.33259391785,-0.243773311377,175.572998047,0.00999800022691,1.0,0.0,0.0,0.0,1.0,0.0,0.0,0.0,1.0,-43.2317085266,62.9268302917,-10.9756097794,1.0,0.0,0.0,0.0,1.0,0.0,0.0,0.0,1.0,-4.07971962891,-2.23618435059,-12.4211182129,1.0,0.0,0.0,0.0,1.0,0.0,0.0,0.0,1.0
1463470182973611056,665,1463470182971308925,,-5.79836416245,0.2883490026,175.422592163,0.00999999977648,1.0,0.0,0.0,0.0,1.0,0.0,0.0,0.0,1.0,-47.134147644,69.207321167,-10.1829271317,1.0,0.0,0.0,0.0,1.0,0.0,0.0,0.0,1.0,-3.96958635254,-1.80522805176,-12.1816980469,1.0,0.0,0.0,0.0,1.0,0.0,0.0,0.0,1.0
1463470182983734318,666,1463470182981366770,,-6.29663848877,0.901763737202,175.277908325,0.010006999597,1.0,0.0,0.0,0.0,1.0,0.0,0.0,0.0,1.0,-49.3292694092,74.634147644,-8.5365858078,1.0,0.0,0.0,0.0,1.0,0.0,0.0,0.0,1.0,-3.03105930176,-1.37906015625,-11.5927244385,1.0,0.0,0.0,0.0,1.0,0.0,0.0,0.0,1.0
1463470182993529559,667,1463470182991292116,,-6.79986190796,1.58090400696,175.134887695,0.00999400019646,1.0,0.0,0.0,0.0,1.0,0.0,0.0,0.0,1.0,-47.5609779358,76.6463470459,-7.56097555161,1.0,0.0,0.0,0.0,1.0,0.0,0.0,0.0,1.0,-1.80043964844,-0.737414111328,-11.2288057861,1.0,0.0,0.0,0.0,1.0,0.0,0.0,0.0,1.0
1463470183003602144,668,1463470183001298867,,-7.2909655571,2.29534220695,175.001052856,0.00999400019646,1.0,0.0,0.0,0.0,1.0,0.0,0.0,0.0,1.0,-43.2926864624,75.1219558716,-6.15853643417,1.0,0.0,0.0,0.0,1.0,0.0,0.0,0.0,1.0,-0.60812722168,-0.0287304199219,-10.539275708,1.0,0.0,0.0,0.0,1.0,0.0,0.0,0.0,1.0
1463470183013604364,669,1463470183011287077,,-7.74239206314,3.01952672005,174.889541626,0.0100060002878,1.0,0.0,0.0,0.0,1.0,0.0,0.0,0.0,1.0,-36.2195129395,72.2560958862,-3.59756112099,1.0,0.0,0.0,0.0,1.0,0.0,0.0,0.0,1.0,0.181959326172,0.632069238281,-10.7212350342,1.0,0.0,0.0,0.0,1.0,0.0,0.0,0.0,1.0
1463470183023100022,670,1463470183021282318,,-8.09012699127,3.63714289665,174.821594238,0.0100060002878,1.0,0.0,0.0,0.0,1.0,0.0,0.0,0.0,1.0,-29.5121974945,62.9878044128,-0.243902444839,1.0,0.0,0.0,0.0,1.0,0.0,0.0,0.0,1.0,-0.0383072265625,0.0430956298828,-10.8026378906,1.0,0.0,0.0,0.0,1.0,0.0,0.0,0.0,1.0
1463470183032995159,671,1463470183031277663,,-8.36287021637,4.21084928513,174.800476074,0.00999599974602,1.0,0.0,0.0,0.0,1.0,0.0,0.0,0.0,1.0,-24.0853652954,59.8170700073,4.14634132385,1.0,0.0,0.0,0.0,1.0,0.0,0.0,0.0,1.0,-0.282515795898,-0.253785375977,-11.4251303223,1.0,0.0,0.0,0.0,1.0,0.0,0.0,0.0,1.0
1463470183046370810,672,1463470183041372070,,-8.59481334686,4.75221347809,174.834655762,0.0100149996579,1.0,0.0,0.0,0.0,1.0,0.0,0.0,0.0,1.0,-21.341463089,55.0609779358,9.08536529541,1.0,0.0,0.0,0.0,1.0,0.0,0.0,0.0,1.0,-0.0430956298828,-0.416591088867,-11.8752402344,1.0,0.0,0.0,0.0,1.0,0.0,0.0,0.0,1.0
1463470183053023818,673,1463470183051298822,,-8.79663944244,5.26782274246,174.932846069,0.00997900031507,1.0,0.0,0.0,0.0,1.0,0.0,0.0,0.0,1.0,-18.9634151459,48.4146347046,14.6341466904,1.0,0.0,0.0,0.0,1.0,0.0,0.0,0.0,1.0,0.76135612793,-0.363918652344,-11.7698953613,1.0,0.0,0.0,0.0,1.0,0.0,0.0,0.0,1.0
1463470183064474265,674,1463470183062411508,,-8.96124649048,5.74004650116,175.09576416,0.0099950004369,1.0,0.0,0.0,0.0,1.0,0.0,0.0,0.0,1.0,-16.158536911,41.4634170532,20.0609760284,1.0,0.0,0.0,0.0,1.0,0.0,0.0,0.0,1.0,1.17794714373,-0.378283862305,-11.6023012451,1.0,0.0,0.0,0.0,1.0,0.0,0.0,0.0,1.0
1463470183073947111,675,1463470183071390710,,-9.10779666901,6.15722942352,175.331619263,0.0100640002638,1.0,0.0,0.0,0.0,1.0,0.0,0.0,0.0,1.0,-13.5365858078,33.7195129395,26.158536911,1.0,0.0,0.0,0.0,1.0,0.0,0.0,0.0,1.0,1.41257897949,-0.0191536132812,-11.2671130127,1.0,0.0,0.0,0.0,1.0,0.0,0.0,0.0,1.0
1463470183083505269,676,1463470183081273972,,-9.21319961548,6.48189640045,175.609573364,0.00994000025094,1.0,0.0,0.0,0.0,1.0,0.0,0.0,0.0,1.0,-6.89024400711,24.5121955872,29.5731697083,1.0,0.0,0.0,0.0,1.0,0.0,0.0,0.0,1.0,1.40300217285,0.665588061523,-10.927136377,1.0,0.0,0.0,0.0,1.0,0.0,0.0,0.0,1.0
1463470183093722020,677,1463470183091313379,,-9.25095748901,6.74354839325,175.917694092,0.0100739998743,1.0,0.0,0.0,0.0,1.0,0.0,0.0,0.0,1.0,3.59756112099,17.1951217651,31.4634151459,1.0,0.0,0.0,0.0,1.0,0.0,0.0,0.0,1.0,1.45088620605,1.42215578613,-10.4291424316,1.0,0.0,0.0,0.0,1.0,0.0,0.0,0.0,1.0
1463470183103737313,678,1463470183101278672,,-9.16869258881,6.9303188324,176.255355835,0.00992299988866,1.0,0.0,0.0,0.0,1.0,0.0,0.0,0.0,1.0,15.3658533096,11.0365858078,33.9024391174,1.0,0.0,0.0,0.0,1.0,0.0,0.0,0.0,1.0,1.14921679688,1.38384855957,-9.77313117676,1.0,0.0,0.0,0.0,1.0,0.0,0.0,0.0,1.0
1463470183116212185,679,1463470183111354850,,-8.94564247131,7.076359272,176.637023926,0.0100050000474,1.0,0.0,0.0,0.0,1.0,0.0,0.0,0.0,1.0,25.9146347046,5.12195110321,36.6463432312,1.0,0.0,0.0,0.0,1.0,0.0,0.0,0.0,1.0,1.33117612305,0.818816967773,-9.32302068013,1.0,0.0,0.0,0.0,1.0,0.0,0.0,0.0,1.0
1463470183123580972,680,1463470183121326758,,-8.62275886536,7.19720315933,177.048965454,0.00999800022691,1.0,0.0,0.0,0.0,1.0,0.0,0.0,0.0,1.0,34.8780479431,0.304878056049,38.7804870605,1.0,0.0,0.0,0.0,1.0,0.0,0.0,0.0,1.0,1.59932670898,0.636857641602,-8.72925925293,1.0,0.0,0.0,0.0,1.0,0.0,0.0,0.0,1.0
1463470183133548922,681,1463470183131327884,,-8.21504116058,7.2490363121,177.470214844,0.0100119998679,1.0,0.0,0.0,0.0,1.0,0.0,0.0,0.0,1.0,43.3536567688,-6.0365858078,38.6585388184,1.0,0.0,0.0,0.0,1.0,0.0,0.0,0.0,1.0,1.57538469238,0.627280834961,-8.8154505127,1.0,0.0,0.0,0.0,1.0,0.0,0.0,0.0,1.0
1463470183145334732,682,1463470183141321511,,-7.69629096985,7.24317741394,177.890869141,0.00998899992555,1.0,0.0,0.0,0.0,1.0,0.0,0.0,0.0,1.0,50.2439041138,-11.2804880142,37.3780517578,1.0,0.0,0.0,0.0,1.0,0.0,0.0,0.0,1.0,1.58974990234,-0.129286889648,-8.98783303223,1.0,0.0,0.0,0.0,1.0,0.0,0.0,0.0,1.0
1463470183153962788,683,1463470183151286700,,-7.19086456299,7.17561912537,178.29888916,0.0100039998069,1.0,0.0,0.0,0.0,1.0,0.0,0.0,0.0,1.0,52.5609779358,-12.1341466904,36.4634170532,1.0,0.0,0.0,0.0,1.0,0.0,0.0,0.0,1.0,0.842758984375,0.387860668945,-9.27513723145,1.0,0.0,0.0,0.0,1.0,0.0,0.0,0.0,1.0
1463470183163761155,684,1463470183161283503,,-6.62779569626,7.06943511963,178.658843994,0.0100029995665,1.0,0.0,0.0,0.0,1.0,0.0,0.0,0.0,1.0,56.8902435303,-12.4390249252,31.4634151459,1.0,0.0,0.0,0.0,1.0,0.0,0.0,0.0,1.0,0.416591088867,-0.0430956298828,-9.67257470703,1.0,0.0,0.0,0.0,1.0,0.0,0.0,0.0,1.0
1463470183173163636,685,1463470183171329421,,-5.98811769485,6.97043561935,178.948974609,0.0100330002606,1.0,0.0,0.0,0.0,1.0,0.0,0.0,0.0,1.0,58.2926826477,-9.75609779358,23.9634151459,1.0,0.0,0.0,0.0,1.0,0.0,0.0,0.0,1.0,0.239420166016,-1.32638771973,-9.33738589009,1.0,0.0,0.0,0.0,1.0,0.0,0.0,0.0,1.0
1463470183183207210,686,1463470183181321381,,-5.40711975098,6.89467096329,179.155349731,0.010006999597,1.0,0.0,0.0,0.0,1.0,0.0,0.0,0.0,1.0,54.3292694092,-6.58536624908,16.2195110321,1.0,0.0,0.0,0.0,1.0,0.0,0.0,0.0,1.0,0.258573779297,-1.2976572998,-9.25119521484,1.0,0.0,0.0,0.0,1.0,0.0,0.0,0.0,1.0
1463470183193193545,687,1463470183191318757,,-4.89609479904,6.86231279373,179.277008057,0.00995399989188,1.0,0.0,0.0,0.0,1.0,0.0,0.0,0.0,1.0,49.817073822,-2.19512200356,8.47560977936,1.0,0.0,0.0,0.0,1.0,0.0,0.0,0.0,1.0,0.387860668945,-1.1875240965,-9.23683000488,1.0,0.0,0.0,0.0,1.0,0.0,0.0,0.0,1.0
1463470183203127015,688,1463470183201255769,,-4.41969060898,6.86632871628,179.312194824,0.0100199999288,1.0,0.0,0.0,0.0,1.0,0.0,0.0,0.0,1.0,44.7560997009,2.31707310677,-0.0609756112099,1.0,0.0,0.0,0.0,1.0,0.0,0.0,0.0,1.0,0.368707055664,-1.69509477539,-9.35175110005,1.0,0.0,0.0,0.0,1.0,0.0,0.0,0.0,1.0
1463470183213511943,689,1463470183211342833,,-3.99632978439,6.90555906296,179.258621216,0.0100189996883,1.0,0.0,0.0,0.0,1.0,0.0,0.0,0.0,1.0,39.2682914734,6.40243911743,-8.71951198578,1.0,0.0,0.0,0.0,1.0,0.0,0.0,0.0,1.0,0.383072265625,-2.01591779785,-9.41878874653,1.0,0.0,0.0,0.0,1.0,0.0,0.0,0.0,1.0
1463470183223774163,690,1463470183221276928,,-3.62648510933,6.97716760635,179.118301392,0.00995500013232,1.0,0.0,0.0,0.0,1.0,0.0,0.0,0.0,1.0,33.4146347046,9.75609779358,-17.4390239716,1.0,0.0,0.0,0.0,1.0,0.0,0.0,0.0,1.0,0.445321508789,-2.33674067418,-9.07881269531,1.0,0.0,0.0,0.0,1.0,0.0,0.0,0.0,1.0
1463470183233751904,691,1463470183231277950,,-3.31452822685,7.07464027405,178.886901855,0.0100039998069,1.0,0.0,0.0,0.0,1.0,0.0,0.0,0.0,1.0,27.9878063202,11.8292684555,-26.4024391174,1.0,0.0,0.0,0.0,1.0,0.0,0.0,0.0,1.0,0.593762048251,-2.43729729004,-8.82981572266,1.0,0.0,0.0,0.0,1.0,0.0,0.0,0.0,1.0
1463470183243518551,692,1463470183241345587,,-3.09633970261,7.20241498947,178.575424194,0.0100429998711,1.0,0.0,0.0,0.0,1.0,0.0,0.0,0.0,1.0,23.7195129395,12.5609760284,-33.7195129395,1.0,0.0,0.0,0.0,1.0,0.0,0.0,0.0,1.0,1.01514150391,-1.74776721191,-8.69574042969,1.0,0.0,0.0,0.0,1.0,0.0,0.0,0.0,1.0
1463470183255343476,693,1463470183251447442,,-2.92336964607,7.3368396759,178.196563721,0.0100140003487,1.0,0.0,0.0,0.0,1.0,0.0,0.0,0.0,1.0,21.4634151459,13.5975618362,-40.3048782349,1.0,0.0,0.0,0.0,1.0,0.0,0.0,0.0,1.0,1.03908344744,-1.59932670898,-8.84418093262,1.0,0.0,0.0,0.0,1.0,0.0,0.0,0.0,1.0
1463470183263789033,694,1463470183261297371,,-2.81223511696,7.46274662018,177.783599854,0.00994400028139,1.0,0.0,0.0,0.0,1.0,0.0,0.0,0.0,1.0,18.5975627899,13.5975618362,-43.6585388184,1.0,0.0,0.0,0.0,1.0,0.0,0.0,0.0,1.0,0.890643017578,-1.10612116699,-8.25999572754,1.0,0.0,0.0,0.0,1.0,0.0,0.0,0.0,1.0
1463470183280939624,695,1463470183271283966,,-2.73909950256,7.62406206131,177.336807251,0.00999899953604,1.0,0.0,0.0,0.0,1.0,0.0,0.0,0.0,1.0,16.6463413239,15.548781395,-46.5243911743,1.0,0.0,0.0,0.0,1.0,0.0,0.0,0.0,1.0,1.1540052002,-0.9193734375,-8.29830236958,1.0,0.0,0.0,0.0,1.0,0.0,0.0,0.0,1.0
1463470183284642325,696,1463470183281764779,,-2.65641665459,7.79006147385,176.859664917,0.0100149996579,1.0,0.0,0.0,0.0,1.0,0.0,0.0,0.0,1.0,16.5853652954,15.1829271317,-49.6951217651,1.0,0.0,0.0,0.0,1.0,0.0,0.0,0.0,1.0,1.35511813965,-1.20667770978,-8.57124252788,1.0,0.0,0.0,0.0,1.0,0.0,0.0,0.0,1.0
1463470183293765380,697,1463470183291487624,,-2.61792683601,7.98453330994,176.357269287,0.0100490003824,1.0,0.0,0.0,0.0,1.0,0.0,0.0,0.0,1.0,15.6707315445,14.6341466904,-51.6463432312,1.0,0.0,0.0,0.0,1.0,0.0,0.0,0.0,1.0,1.90099611816,-0.746990917969,-8.51857009136,1.0,0.0,0.0,0.0,1.0,0.0,0.0,0.0,1.0
1463470183303982861,698,1463470183301420938,,-2.57990312576,8.16466617584,175.84286499,0.00994300004095,1.0,0.0,0.0,0.0,1.0,0.0,0.0,0.0,1.0,16.7682933807,14.2682924271,-53.2926864624,1.0,0.0,0.0,0.0,1.0,0.0,0.0,0.0,1.0,1.84353527832,-0.656011254883,-8.72447084961,1.0,0.0,0.0,0.0,1.0,0.0,0.0,0.0,1.0
1463470183313581644,699,1463470183311287013,,-2.52004003525,8.31223297119,175.312484741,0.00999299995601,1.0,0.0,0.0,0.0,1.0,0.0,0.0,0.0,1.0,16.8902435303,12.1951217651,-55.0609779358,1.0,0.0,0.0,0.0,1.0,0.0,0.0,0.0,1.0,1.71903679199,-1.07260241682,-8.97346782227,1.0,0.0,0.0,0.0,1.0,0.0,0.0,0.0,1.0
1463470183323429437,700,1463470183321334962,,-2.45376372337,8.46070098877,174.781387329,0.0100600002334,1.0,0.0,0.0,0.0,1.0,0.0,0.0,0.0,1.0,15.4878053665,11.8902444839,-55.1219520569,1.0,0.0,0.0,0.0,1.0,0.0,0.0,0.0,1.0,1.75734401855,-1.41736738281,-8.84418093262,1.0,0.0,0.0,0.0,1.0,0.0,0.0,0.0,1.0
1463470183333374366,701,1463470183331275984,,-2.41376137733,8.62459278107,174.264785767,0.00995399989188,1.0,0.0,0.0,0.0,1.0,0.0,0.0,0.0,1.0,12.1341466904,11.7073173523,-54.390247345,1.0,0.0,0.0,0.0,1.0,0.0,0.0,0.0,1.0,2.07337849156,-1.57059628906,-8.80587370605,1.0,0.0,0.0,0.0,1.0,0.0,0.0,0.0,1.0
1463470183343388200,702,1463470183341243934,,-2.39473032951,8.76277542114,173.746429443,0.00998799968511,1.0,0.0,0.0,0.0,1.0,0.0,0.0,0.0,1.0,8.96341514587,9.20731735229,-54.6951217651,1.0,0.0,0.0,0.0,1.0,0.0,0.0,0.0,1.0,2.14041643031,-1.838746875,-9.06923588867,1.0,0.0,0.0,0.0,1.0,0.0,0.0,0.0,1.0
1463470183353377973,703,1463470183351240841,,-2.45231032372,8.8807477951,173.222000122,0.0100029995665,1.0,0.0,0.0,0.0,1.0,0.0,0.0,0.0,1.0,3.47560977936,8.71951198578,-54.9390258789,1.0,0.0,0.0,0.0,1.0,0.0,0.0,0.0,1.0,1.96324536133,-1.5322890625,-9.37090471333,1.0,0.0,0.0,0.0,1.0,0.0,0.0,0.0,1.0
1463470183363360193,704,1463470183361283582,,-2.55029559135,8.98946094513,172.67288208,0.0100050000474,1.0,0.0,0.0,0.0,1.0,0.0,0.0,0.0,1.0,0.0609756112099,8.90243911743,-57.3170776367,1.0,0.0,0.0,0.0,1.0,0.0,0.0,0.0,1.0,1.85790048828,-1.52271225586,-9.56723041851,1.0,0.0,0.0,0.0,1.0,0.0,0.0,0.0,1.0
1463470183373321059,705,1463470183371240698,,-2.67054200172,9.0931968689,172.083267212,0.00999199971557,1.0,0.0,0.0,0.0,1.0,0.0,0.0,0.0,1.0,-2.07317066193,8.84146404266,-61.4634132385,1.0,0.0,0.0,0.0,1.0,0.0,0.0,0.0,1.0,1.77170922852,-1.55144267578,-9.1458503418,1.0,0.0,0.0,0.0,1.0,0.0,0.0,0.0,1.0
1463470183383340518,706,1463470183381234429,,-2.82322621346,9.1981048584,171.428573608,0.00999999977648,1.0,0.0,0.0,0.0,1.0,0.0,0.0,0.0,1.0,-3.41463422775,9.87804889679,-67.6219558716,1.0,0.0,0.0,0.0,1.0,0.0,0.0,0.0,1.0,1.8148048584,-1.4844050293,-9.73003554687,1.0,0.0,0.0,0.0,1.0,0.0,0.0,0.0,1.0
1463470183393347166,707,1463470183391262118,,-2.99587106705,9.29431056976,170.720016479,0.0100100003183,1.0,0.0,0.0,0.0,1.0,0.0,0.0,0.0,1.0,-3.47560977936,10.7317075729,-72.6219558716,1.0,0.0,0.0,0.0,1.0,0.0,0.0,0.0,1.0,1.64242233887,-1.30723410645,-9.96945571289,1.0,0.0,0.0,0.0,1.0,0.0,0.0,0.0,1.0
1463470183402861314,708,1463470183401276838,,-3.17715954781,9.41916561127,169.966278076,0.0100029995665,1.0,0.0,0.0,0.0,1.0,0.0,0.0,0.0,1.0,-2.86585378647,12.1951217651,-76.8902435303,1.0,0.0,0.0,0.0,1.0,0.0,0.0,0.0,1.0,2.01591779785,-1.18273554705,-10.046070166,1.0,0.0,0.0,0.0,1.0,0.0,0.0,0.0,1.0
1463470183413073221,709,1463470183411242391,,-3.34466123581,9.53490638733,169.201782227,0.00999199971557,1.0,0.0,0.0,0.0,1.0,0.0,0.0,0.0,1.0,-2.56097555161,11.0365858078,-78.2926864624,1.0,0.0,0.0,0.0,1.0,0.0,0.0,0.0,1.0,2.20266552734,-1.4604630127,-10.3285859619,1.0,0.0,0.0,0.0,1.0,0.0,0.0,0.0,1.0
1463470183422830546,710,1463470183421241799,,-3.52893948555,9.64990520477,168.407730103,0.00998799968511,1.0,0.0,0.0,0.0,1.0,0.0,0.0,0.0,1.0,-2.92682933807,10.7926826477,-81.0975646973,1.0,0.0,0.0,0.0,1.0,0.0,0.0,0.0,1.0,2.4516625,-1.36948334961,-10.8409451172,1.0,0.0,0.0,0.0,1.0,0.0,0.0,0.0,1.0
1463470183433347244,711,1463470183431212300,,-3.68506574631,9.73308849335,167.588699341,0.0100039998069,1.0,0.0,0.0,0.0,1.0,0.0,0.0,0.0,1.0,-2.37804889679,8.59756088257,-84.0243911743,1.0,0.0,0.0,0.0,1.0,0.0,0.0,0.0,1.0,2.32716386754,-1.89620771484,-10.7260234375,1.0,0.0,0.0,0.0,1.0,0.0,0.0,0.0,1.0
1463470183443427224,712,1463470183441226916,,-3.85712242126,9.79263496399,166.754455566,0.0100029995665,1.0,0.0,0.0,0.0,1.0,0.0,0.0,0.0,1.0,-4.2682929039,7.92682981491,-85.6707305908,1.0,0.0,0.0,0.0,1.0,0.0,0.0,0.0,1.0,2.06859023437,-1.98718737793,-10.7116582275,1.0,0.0,0.0,0.0,1.0,0.0,0.0,0.0,1.0
1463470183453392830,713,1463470183451237157,,-4.07518339157,9.88276004791,165.915130615,0.0100060002878,1.0,0.0,0.0,0.0,1.0,0.0,0.0,0.0,1.0,-6.0365858078,8.65853691101,-85.6097564697,1.0,0.0,0.0,0.0,1.0,0.0,0.0,0.0,1.0,2.63841022949,-1.45567460937,-10.8505219238,1.0,0.0,0.0,0.0,1.0,0.0,0.0,0.0,1.0
1463470183463479841,714,1463470183461336148,,-4.32227563858,9.98385810852,165.091018677,0.0100100003183,1.0,0.0,0.0,0.0,1.0,0.0,0.0,0.0,1.0,-6.40243911743,5.97560977936,-83.7804870605,1.0,0.0,0.0,0.0,1.0,0.0,0.0,0.0,1.0,3.43807358398,-0.890643017578,-10.6972930176,1.0,0.0,0.0,0.0,1.0,0.0,0.0,0.0,1.0
1463470183473411072,715,1463470183471258889,,-4.59754610062,10.1209249496,164.311355591,0.00999599974602,1.0,0.0,0.0,0.0,1.0,0.0,0.0,0.0,1.0,-6.21951246262,5.30487823486,-78.9024429321,1.0,0.0,0.0,0.0,1.0,0.0,0.0,0.0,1.0,4.19464101633,-0.129286889648,-10.2136642822,1.0,0.0,0.0,0.0,1.0,0.0,0.0,0.0,1.0
1463470183483436573,716,1463470183481279807,,-4.8199095726,10.2212848663,163.587081909,0.00999199971557,1.0,0.0,0.0,0.0,1.0,0.0,0.0,0.0,1.0,-3.29268312454,1.2804877758,-74.0853729248,1.0,0.0,0.0,0.0,1.0,0.0,0.0,0.0,1.0,4.53940634766,-0.416591088867,-10.8265799072,1.0,0.0,0.0,0.0,1.0,0.0,0.0,0.0,1.0
1463470183493461293,717,1463470183491335568,,-4.99008226395,10.2714262009,162.918884277,0.0100130001083,1.0,0.0,0.0,0.0,1.0,0.0,0.0,0.0,1.0,-0.243902444839,-4.81707286835,-69.207321167,1.0,0.0,0.0,0.0,1.0,0.0,0.0,0.0,1.0,4.73094218821,-0.656011254883,-10.7595422607,1.0,0.0,0.0,0.0,1.0,0.0,0.0,0.0,1.0
1463470183503532732,718,1463470183501282320,,-5.10946035385,10.2352190018,162.283905029,0.00998600013554,1.0,0.0,0.0,0.0,1.0,0.0,0.0,0.0,1.0,3.10975623131,-10.0609760284,-66.8292694092,1.0,0.0,0.0,0.0,1.0,0.0,0.0,0.0,1.0,4.16591059641,-0.866701000977,-11.3197854492,1.0,0.0,0.0,0.0,1.0,0.0,0.0,0.0,1.0
1463470183513865368,719,1463470183511260165,,-5.1490983963,10.0861825943,161.665893555,0.0100020002574,1.0,0.0,0.0,0.0,1.0,0.0,0.0,0.0,1.0,7.01219511032,-16.341463089,-66.3414611816,1.0,0.0,0.0,0.0,1.0,0.0,0.0,0.0,1.0,3.06936652832,-1.59932670898,-11.4203419189,1.0,0.0,0.0,0.0,1.0,0.0,0.0,0.0,1.0
1463470183524246286,720,1463470183521348531,,-5.17258262634,9.89797496796,161.055984497,0.0100050000474,1.0,0.0,0.0,0.0,1.0,0.0,0.0,0.0,1.0,9.26829242706,-19.6951236725,-65.6707305908,1.0,0.0,0.0,0.0,1.0,0.0,0.0,0.0,1.0,2.98796367187,-1.40779057617,-11.7315881348,1.0,0.0,0.0,0.0,1.0,0.0,0.0,0.0,1.0
1463470183534262308,721,1463470183531275907,,-5.15813779831,9.64739704132,160.445327759,0.00998899992555,1.0,0.0,0.0,0.0,1.0,0.0,0.0,0.0,1.0,12.3170728683,-24.0853652954,-66.3414611816,1.0,0.0,0.0,0.0,1.0,0.0,0.0,0.0,1.0,2.54264216309,-1.50355864258,-11.7411649414,1.0,0.0,0.0,0.0,1.0,0.0,0.0,0.0,1.0
1463470183544186403,722,1463470183541272346,,-5.10524749756,9.35630607605,159.833267212,0.0100039998069,1.0,0.0,0.0,0.0,1.0,0.0,0.0,0.0,1.0,14.9390249252,-27.3780498505,-66.8292694092,1.0,0.0,0.0,0.0,1.0,0.0,0.0,0.0,1.0,2.25533796387,-1.65199914551,-11.3724578857,1.0,0.0,0.0,0.0,1.0,0.0,0.0,0.0,1.0
1463470183553592322,723,1463470183551280504,,-5.09771680832,9.05639839172,159.222839355,0.0100020002574,1.0,0.0,0.0,0.0,1.0,0.0,0.0,0.0,1.0,15.0000009537,-28.3536586761,-65.9146347046,1.0,0.0,0.0,0.0,1.0,0.0,0.0,0.0,1.0,2.22181914063,-0.612915625,-11.4730143555,1.0,0.0,0.0,0.0,1.0,0.0,0.0,0.0,1.0
1463470183564184072,724,1463470183561341370,,-5.05467271805,8.76047706604,158.615280151,0.0100029995665,1.0,0.0,0.0,0.0,1.0,0.0,0.0,0.0,1.0,19.3902435303,-29.6951236725,-65.5487823486,1.0,0.0,0.0,0.0,1.0,0.0,0.0,0.0,1.0,2.4277204834,-0.354341845703,-11.0660000732,1.0,0.0,0.0,0.0,1.0,0.0,0.0,0.0,1.0
1463470183574832750,725,1463470183571343902,,-4.9541258812,8.48773670197,158.001754761,0.0100109996274,1.0,0.0,0.0,0.0,1.0,0.0,0.0,0.0,1.0,21.2804889679,-29.2073173523,-66.5853652954,1.0,0.0,0.0,0.0,1.0,0.0,0.0,0.0,1.0,2.55700737305,-1.04387185076,-10.299855542,1.0,0.0,0.0,0.0,1.0,0.0,0.0,0.0,1.0
1463470183584154919,726,1463470183581302164,,-4.83327674866,8.18947219849,157.387176514,0.00999100040644,1.0,0.0,0.0,0.0,1.0,0.0,0.0,0.0,1.0,22.9878044128,-31.4634151459,-66.9512252808,1.0,0.0,0.0,0.0,1.0,0.0,0.0,0.0,1.0,2.45645090332,-1.08696755371,-10.4626612549,1.0,0.0,0.0,0.0,1.0,0.0,0.0,0.0,1.0
1463470183594221618,727,1463470183591317926,,-4.68172168732,7.87310695648,156.758804321,0.0100050000474,1.0,0.0,0.0,0.0,1.0,0.0,0.0,0.0,1.0,25.0609760284,-34.0243911743,-68.4756164551,1.0,0.0,0.0,0.0,1.0,0.0,0.0,0.0,1.0,2.44687409668,-1.22583125,-10.0412817627,1.0,0.0,0.0,0.0,1.0,0.0,0.0,0.0,1.0
1463470183604289775,728,1463470183601283635,,-4.4951710701,7.53390407562,156.136184692,0.00998600013554,1.0,0.0,0.0,0.0,1.0,0.0,0.0,0.0,1.0,24.9390239716,-35.5487823486,-68.4756164551,1.0,0.0,0.0,0.0,1.0,0.0,0.0,0.0,1.0,2.22660754395,-1.8866309082,-10.1705686523,1.0,0.0,0.0,0.0,1.0,0.0,0.0,0.0,1.0
1463470183614193506,729,1463470183611291533,,-4.34102249146,7.13667917252,155.535385132,0.0100079998374,1.0,0.0,0.0,0.0,1.0,0.0,0.0,0.0,1.0,22.3170719147,-38.7195129395,-66.0975646973,1.0,0.0,0.0,0.0,1.0,0.0,0.0,0.0,1.0,1.62805712891,-1.64242233887,-10.2711251221,1.0,0.0,0.0,0.0,1.0,0.0,0.0,0.0,1.0
1463470183624189060,730,1463470183621317711,,-4.22946214676,6.74784755707,154.968154907,0.00999599974602,1.0,0.0,0.0,0.0,1.0,0.0,0.0,0.0,1.0,17.3780498505,-38.5975608826,-62.682926178,1.0,0.0,0.0,0.0,1.0,0.0,0.0,0.0,1.0,1.56580788574,-1.6041151123,-10.0029745361,1.0,0.0,0.0,0.0,1.0,0.0,0.0,0.0,1.0
1463470183634113676,731,1463470183631294827,,-4.17172718048,6.34148693085,154.433776855,0.0100039998069,1.0,0.0,0.0,0.0,1.0,0.0,0.0,0.0,1.0,13.4756097794,-37.134147644,-58.9024391174,1.0,0.0,0.0,0.0,1.0,0.0,0.0,0.0,1.0,0.871489404297,-1.19710090314,-10.1274730225,1.0,0.0,0.0,0.0,1.0,0.0,0.0,0.0,1.0
1463470183644175583,732,1463470183641289912,,-4.14344501495,5.9510717392,153.929779053,0.0100010000169,1.0,0.0,0.0,0.0,1.0,0.0,0.0,0.0,1.0,10.548781395,-35.0609741211,-55.6097564697,1.0,0.0,0.0,0.0,1.0,0.0,0.0,0.0,1.0,0.641646044922,-1.03908344744,-9.80665,1.0,0.0,0.0,0.0,1.0,0.0,0.0,0.0,1.0
1463470183654166293,733,1463470183651313903,,-4.14082479477,5.60114717484,153.44203186,0.0100010000169,1.0,0.0,0.0,0.0,1.0,0.0,0.0,0.0,1.0,8.04878044128,-30.975610733,-53.5975608826,1.0,0.0,0.0,0.0,1.0,0.0,0.0,0.0,1.0,0.521935925381,-0.905008227539,-9.40921193989,1.0,0.0,0.0,0.0,1.0,0.0,0.0,0.0,1.0
1463470183664167523,734,1463470183661374195,,-4.14775848389,5.27401685715,152.954147339,0.0100010000169,1.0,0.0,0.0,0.0,1.0,0.0,0.0,0.0,1.0,6.82926845551,-27.8658542633,-53.3536605835,1.0,0.0,0.0,0.0,1.0,0.0,0.0,0.0,1.0,0.320823022461,-0.885854614258,-9.28471345356,1.0,0.0,0.0,0.0,1.0,0.0,0.0,0.0,1.0
1463470183674090108,735,1463470183671293812,,-4.20754146576,4.94688415527,152.475448608,0.00999599974602,1.0,0.0,0.0,0.0,1.0,0.0,0.0,0.0,1.0,3.41463422775,-27.1341457367,-52.1951255798,1.0,0.0,0.0,0.0,1.0,0.0,0.0,0.0,1.0,0.138863696289,-0.502782348633,-9.1697923584,1.0,0.0,0.0,0.0,1.0,0.0,0.0,0.0,1.0
1463470183684087068,736,1463470183681294938,,-4.21450662613,4.66812419891,151.986343384,0.0100010000169,1.0,0.0,0.0,0.0,1.0,0.0,0.0,0.0,1.0,7.01219511032,-23.2926845551,-53.0487823486,1.0,0.0,0.0,0.0,1.0,0.0,0.0,0.0,1.0,0.248996972656,-0.699106884766,-8.61433815776,1.0,0.0,0.0,0.0,1.0,0.0,0.0,0.0,1.0
1463470183693282935,737,1463470183691265804,,-4.22546672821,4.38056755066,151.487701416,0.00999899953604,1.0,0.0,0.0,0.0,1.0,0.0,0.0,0.0,1.0,8.29268264771,-22.5609760284,-53.7804908752,1.0,0.0,0.0,0.0,1.0,0.0,0.0,0.0,1.0,-0.0287304199219,-0.440533105469,-9.2176763916,1.0,0.0,0.0,0.0,1.0,0.0,0.0,0.0,1.0
1463470183704230674,738,1463470183701338441,,-4.21462392807,4.12702322006,150.974899292,0.00999599974602,1.0,0.0,0.0,0.0,1.0,0.0,0.0,0.0,1.0,10.7317075729,-20.4268302917,-55.0,1.0,0.0,0.0,0.0,1.0,0.0,0.0,0.0,1.0,0.138863696289,-0.354341845703,-8.70531723633,1.0,0.0,0.0,0.0,1.0,0.0,0.0,0.0,1.0
1463470183713989145,739,1463470183711285452,,-4.18704032898,3.86839342117,150.447463989,0.00999599974602,1.0,0.0,0.0,0.0,1.0,0.0,0.0,0.0,1.0,13.658536911,-18.0487823486,-56.1585388184,1.0,0.0,0.0,0.0,1.0,0.0,0.0,0.0,1.0,-0.344765039063,-0.148440512063,-9.05965908203,1.0,0.0,0.0,0.0,1.0,0.0,0.0,0.0,1.0
1463470183723755949,740,1463470183721527776,,-4.12763309479,3.63744306564,149.902923584,0.0100530004129,1.0,0.0,0.0,0.0,1.0,0.0,0.0,0.0,1.0,17.1951217651,-15.6097564697,-57.3170776367,1.0,0.0,0.0,0.0,1.0,0.0,0.0,0.0,1.0,-0.292092584273,-0.067037651051,-8.73404765625,1.0,0.0,0.0,0.0,1.0,0.0,0.0,0.0,1.0
1463470183733827804,741,1463470183731608954,,-4.0695066452,3.43702077866,149.362854004,0.0100159998983,1.0,0.0,0.0,0.0,1.0,0.0,0.0,0.0,1.0,19.2073173523,-13.7804880142,-56.7682952881,1.0,0.0,0.0,0.0,1.0,0.0,0.0,0.0,1.0,-0.162805712891,0.282515795898,-8.64306857769,1.0,0.0,0.0,0.0,1.0,0.0,0.0,0.0,1.0
1463470183744022472,742,1463470183741463987,,-3.95197796822,3.27776837349,148.816192627,0.0100210001692,1.0,0.0,0.0,0.0,1.0,0.0,0.0,0.0,1.0,24.2682933807,-12.3170728683,-57.3170776367,1.0,0.0,0.0,0.0,1.0,0.0,0.0,0.0,1.0,0.196324536133,0.15322890625,-8.24084211426,1.0,0.0,0.0,0.0,1.0,0.0,0.0,0.0,1.0
1463470183753971671,743,1463470183751327145,,-3.74755597115,3.14760899544,148.267700195,0.00989899970591,1.0,0.0,0.0,0.0,1.0,0.0,0.0,0.0,1.0,29.3292694092,-13.1707324982,-58.4146347046,1.0,0.0,0.0,0.0,1.0,0.0,0.0,0.0,1.0,0.632069238281,-0.387860668945,-7.60877287598,1.0,0.0,0.0,0.0,1.0,0.0,0.0,0.0,1.0
1463470183765499982,744,1463470183761358532,,-3.51832914352,3.00048422813,147.706817627,0.0100119998679,1.0,0.0,0.0,0.0,1.0,0.0,0.0,0.0,1.0,31.6463413239,-14.3292694092,-59.024394989,1.0,0.0,0.0,0.0,1.0,0.0,0.0,0.0,1.0,0.541089611728,-0.392649072266,-7.64229169922,1.0,0.0,0.0,0.0,1.0,0.0,0.0,0.0,1.0
1463470183774829964,745,1463470183771280283,,-3.2967467308,2.86587023735,147.140487671,0.00999699998647,1.0,0.0,0.0,0.0,1.0,0.0,0.0,0.0,1.0,32.682926178,-15.7926826477,-59.5731735229,1.0,0.0,0.0,0.0,1.0,0.0,0.0,0.0,1.0,0.871489404297,-0.172382519531,-7.71890615234,1.0,0.0,0.0,0.0,1.0,0.0,0.0,0.0,1.0
1463470183783988071,746,1463470183781557347,,-3.06753468513,2.72799992561,146.564712524,0.0100469999015,1.0,0.0,0.0,0.0,1.0,0.0,0.0,0.0,1.0,36.3414611816,-16.8292694092,-60.0609779358,1.0,0.0,0.0,0.0,1.0,0.0,0.0,0.0,1.0,0.933738647461,0.225054956055,-7.7093293457,1.0,0.0,0.0,0.0,1.0,0.0,0.0,0.0,1.0
1463470183793922062,747,1463470183791481442,,-2.81144332886,2.58509063721,145.984237671,0.0100010000169,1.0,0.0,0.0,0.0,1.0,0.0,0.0,0.0,1.0,37.682926178,-17.0121955872,-60.7926826477,1.0,0.0,0.0,0.0,1.0,0.0,0.0,0.0,1.0,0.833182177734,0.00957680664062,-7.71411774902,1.0,0.0,0.0,0.0,1.0,0.0,0.0,0.0,1.0
1463470183803849335,748,1463470183801423246,,-2.55372023582,2.45541095734,145.405197144,0.00995200034231,1.0,0.0,0.0,0.0,1.0,0.0,0.0,0.0,1.0,37.2560958862,-15.1829271317,-60.7926826477,1.0,0.0,0.0,0.0,1.0,0.0,0.0,0.0,1.0,0.703895288086,-0.105344873047,-7.76200178223,1.0,0.0,0.0,0.0,1.0,0.0,0.0,0.0,1.0
1463470183813990409,749,1463470183811339007,,-2.26054310799,2.34356188774,144.82901001,0.0100010000169,1.0,0.0,0.0,0.0,1.0,0.0,0.0,0.0,1.0,34.2073173523,-13.7804880142,-60.3658561707,1.0,0.0,0.0,0.0,1.0,0.0,0.0,0.0,1.0,0.699106884766,-1.01035310059,-7.6614453125,1.0,0.0,0.0,0.0,1.0,0.0,0.0,0.0,1.0
1463470183823844869,750,1463470183821650498,,-2.00984096527,2.25647425652,144.272994995,0.0100689996034,1.0,0.0,0.0,0.0,1.0,0.0,0.0,0.0,1.0,26.2804889679,-12.3170728683,-57.9878082275,1.0,0.0,0.0,0.0,1.0,0.0,0.0,0.0,1.0,0.852335791016,-1.65199914551,-8.30787917622,1.0,0.0,0.0,0.0,1.0,0.0,0.0,0.0,1.0
1463470183833448235,751,1463470183831530426,,-1.88388097286,2.21794366837,143.739242554,0.00997999962419,1.0,0.0,0.0,0.0,1.0,0.0,0.0,0.0,1.0,16.158536911,-11.8902444839,-56.0975608826,1.0,0.0,0.0,0.0,1.0,0.0,0.0,0.0,1.0,1.42215578613,-1.31202250977,-8.07324799805,1.0,0.0,0.0,0.0,1.0,0.0,0.0,0.0,1.0
1463470183844912536,752,1463470183841311397,,-1.8275963068,2.15376973152,143.225265503,0.00998899992555,1.0,0.0,0.0,0.0,1.0,0.0,0.0,0.0,1.0,6.82926845551,-12.1341466904,-54.1463432312,1.0,0.0,0.0,0.0,1.0,0.0,0.0,0.0,1.0,1.11090957031,-1.74297880859,-8.50899328472,1.0,0.0,0.0,0.0,1.0,0.0,0.0,0.0,1.0
1463470183854993818,753,1463470183851323409,,-1.88019013405,2.0802283287,142.718307495,0.0100060002878,1.0,0.0,0.0,0.0,1.0,0.0,0.0,0.0,1.0,-3.47560977936,-11.2804880142,-53.2926864624,1.0,0.0,0.0,0.0,1.0,0.0,0.0,0.0,1.0,0.861912597656,-1.71903679199,-8.95431420898,1.0,0.0,0.0,0.0,1.0,0.0,0.0,0.0,1.0
1463470183864896768,754,1463470183861464795,,-2.04185461998,1.99436271191,142.225875854,0.00996400043368,1.0,0.0,0.0,0.0,1.0,0.0,0.0,0.0,1.0,-13.5975618362,-10.8536586761,-52.0121955872,1.0,0.0,0.0,0.0,1.0,0.0,0.0,0.0,1.0,0.612915625,-1.62326872559,-9.39963513325,1.0,0.0,0.0,0.0,1.0,0.0,0.0,0.0,1.0
1463470183874916696,755,1463470183871420401,,-2.30239486694,1.92964112759,141.744216919,0.009990000166,1.0,0.0,0.0,0.0,1.0,0.0,0.0,0.0,1.0,-22.9878044128,-8.71951198578,-50.7317085266,1.0,0.0,0.0,0.0,1.0,0.0,0.0,0.0,1.0,0.656011254883,-1.57538469238,-9.91678327637,1.0,0.0,0.0,0.0,1.0,0.0,0.0,0.0,1.0
1463470183884894229,756,1463470183881553506,,-2.64900231361,1.86411392689,141.279876709,0.0100570004433,1.0,0.0,0.0,0.0,1.0,0.0,0.0,0.0,1.0,-30.3048782349,-7.92682981491,-48.6585388184,1.0,0.0,0.0,0.0,1.0,0.0,0.0,0.0,1.0,0.550666381836,-1.36948334961,-10.3764699951,1.0,0.0,0.0,0.0,1.0,0.0,0.0,0.0,1.0
1463470183895110303,757,1463470183891516403,,-3.06176137924,1.79126858711,140.839233398,0.00999400019646,1.0,0.0,0.0,0.0,1.0,0.0,0.0,0.0,1.0,-35.8536605835,-7.92682981491,-46.5853691101,1.0,0.0,0.0,0.0,1.0,0.0,0.0,0.0,1.0,0.445321508789,-1.06781401349,-10.6685625977,1.0,0.0,0.0,0.0,1.0,0.0,0.0,0.0,1.0
1463470183905860073,758,1463470183901956487,,-3.51456165314,1.70907151699,140.413024902,0.0100029995665,1.0,0.0,0.0,0.0,1.0,0.0,0.0,0.0,1.0,-37.4390220642,-7.43902492523,-45.0609779358,1.0,0.0,0.0,0.0,1.0,0.0,0.0,0.0,1.0,0.229843359375,-0.560243188477,-11.5927244385,1.0,0.0,0.0,0.0,1.0,0.0,0.0,0.0,1.0
1463470183913856933,759,1463470183911365583,,-3.97694349289,1.60305917263,140.028442383,0.00997500028461,1.0,0.0,0.0,0.0,1.0,0.0,0.0,0.0,1.0,-38.0487823486,-6.95121955872,-41.0365867615,1.0,0.0,0.0,0.0,1.0,0.0,0.0,0.0,1.0,-0.368707055664,-0.335188232422,-11.7267997314,1.0,0.0,0.0,0.0,1.0,0.0,0.0,0.0,1.0
1463470183924887276,760,1463470183921398168,,-4.43928289413,1.49299430847,139.682785034,0.00997100025415,1.0,0.0,0.0,0.0,1.0,0.0,0.0,0.0,1.0,-38.3536567688,-6.64634132385,-37.1951255798,1.0,0.0,0.0,0.0,1.0,0.0,0.0,0.0,1.0,-0.560243188477,-0.277727392578,-12.3157733398,1.0,0.0,0.0,0.0,1.0,0.0,0.0,0.0,1.0
1463470183933413197,761,1463470183931316065,,-4.89681339264,1.4148080349,139.368423462,0.0100220004097,1.0,0.0,0.0,0.0,1.0,0.0,0.0,0.0,1.0,-34.9390258789,-3.23170733452,-33.5975608826,1.0,0.0,0.0,0.0,1.0,0.0,0.0,0.0,1.0,-0.627280834961,0.445321508789,-12.4163298096,1.0,0.0,0.0,0.0,1.0,0.0,0.0,0.0,1.0
1463470183943809635,762,1463470183941340525,,-5.29320955276,1.37625920773,139.09034729,0.00997699983418,1.0,0.0,0.0,0.0,1.0,0.0,0.0,0.0,1.0,-29.3292694092,-1.09756100178,-29.9390258789,1.0,0.0,0.0,0.0,1.0,0.0,0.0,0.0,1.0,-0.263362164351,0.497993945312,-12.3157733398,1.0,0.0,0.0,0.0,1.0,0.0,0.0,0.0,1.0
1463470183953825605,763,1463470183951337120,,-5.66328620911,1.39159607887,138.85836792,0.0100050000474,1.0,0.0,0.0,0.0,1.0,0.0,0.0,0.0,1.0,-23.658536911,-0.548780500889,-25.1219520569,1.0,0.0,0.0,0.0,1.0,0.0,0.0,0.0,1.0,0.723048901367,1.24019645996,-12.2152168701,1.0,0.0,0.0,0.0,1.0,0.0,0.0,0.0,1.0
1463470183964054856,764,1463470183961336371,,-5.96290159225,1.43698942661,138.662567139,0.00999800022691,1.0,0.0,0.0,0.0,1.0,0.0,0.0,0.0,1.0,-14.4512205124,-1.76829278469,-21.5853652954,1.0,0.0,0.0,0.0,1.0,0.0,0.0,0.0,1.0,1.59453830566,1.80043964844,-12.0811415771,1.0,0.0,0.0,0.0,1.0,0.0,0.0,0.0,1.0
1463470183974247284,765,1463470183971341821,,-6.15664672852,1.46417856216,138.503555298,0.00999899953604,1.0,0.0,0.0,0.0,1.0,0.0,0.0,0.0,1.0,-3.17073178291,-6.09756088257,-18.3536586761,1.0,0.0,0.0,0.0,1.0,0.0,0.0,0.0,1.0,2.13083962367,2.06380183105,-12.2295820801,1.0,0.0,0.0,0.0,1.0,0.0,0.0,0.0,1.0
1463470183983712838,766,1463470183981515968,,-6.21114397049,1.43403887749,138.384002686,0.0100459996611,1.0,0.0,0.0,0.0,1.0,0.0,0.0,0.0,1.0,8.5365858078,-9.69512176514,-14.8170728683,1.0,0.0,0.0,0.0,1.0,0.0,0.0,0.0,1.0,1.62326872559,1.68072956543,-12.6749035889,1.0,0.0,0.0,0.0,1.0,0.0,0.0,0.0,1.0
1463470183994167610,767,1463470183991767198,,-6.11177110672,1.32824921608,138.307418823,0.0100020002574,1.0,0.0,0.0,0.0,1.0,0.0,0.0,0.0,1.0,17.6219520569,-13.1097564697,-11.0975618362,1.0,0.0,0.0,0.0,1.0,0.0,0.0,0.0,1.0,0.670376464844,0.354341845703,-15.0595284424,1.0,0.0,0.0,0.0,1.0,0.0,0.0,0.0,1.0
