%time,field.header.seq,field.header.stamp,field.header.frame_id,field.orientation.x,field.orientation.y,field.orientation.z,field.orientation.w,field.orientation_covariance0,field.orientation_covariance1,field.orientation_covariance2,field.orientation_covariance3,field.orientation_covariance4,field.orientation_covariance5,field.orientation_covariance6,field.orientation_covariance7,field.orientation_covariance8,field.angular_velocity.x,field.angular_velocity.y,field.angular_velocity.z,field.angular_velocity_covariance0,field.angular_velocity_covariance1,field.angular_velocity_covariance2,field.angular_velocity_covariance3,field.angular_velocity_covariance4,field.angular_velocity_covariance5,field.angular_velocity_covariance6,field.angular_velocity_covariance7,field.angular_velocity_covariance8,field.linear_acceleration.x,field.linear_acceleration.y,field.linear_acceleration.z,field.linear_acceleration_covariance0,field.linear_acceleration_covariance1,field.linear_acceleration_covariance2,field.linear_acceleration_covariance3,field.linear_acceleration_covariance4,field.linear_acceleration_covariance5,field.linear_acceleration_covariance6,field.linear_acceleration_covariance7,field.linear_acceleration_covariance8
1463563957468947345,424,1463563957465466885,,0.549327194691,-6.70824432373,-147.905975342,0.0101410001516,1.0,0.0,0.0,0.0,1.0,0.0,0.0,0.0,1.0,-2.19512200356,2.01219511032,-2.56097555161,1.0,0.0,0.0,0.0,1.0,0.0,0.0,0.0,1.0,-0.861912597656,-0.493205541992,-10.2088758789,1.0,0.0,0.0,0.0,1.0,0.0,0.0,0.0,1.0
1463563957477704274,425,1463563957475758064,,0.52451723814,-6.6522436142,-147.797927856,0.0101070003584,1.0,0.0,0.0,0.0,1.0,0.0,0.0,0.0,1.0,-1.52439022064,2.25609779358,-1.8902438879,1.0,0.0,0.0,0.0,1.0,0.0,0.0,0.0,1.0,-0.785298144531,-0.45489831543,-10.1562034424,1.0,0.0,0.0,0.0,1.0,0.0,0.0,0.0,1.0
1463563957488996916,426,1463563957486333865,,0.500769436359,-6.58870983124,-147.682861328,0.0101250000298,1.0,0.0,0.0,0.0,1.0,0.0,0.0,0.0,1.0,-1.40243899822,2.43902444839,-1.2195122242,1.0,0.0,0.0,0.0,1.0,0.0,0.0,0.0,1.0,-0.675164868164,-0.45968671875,-10.1514150391,1.0,0.0,0.0,0.0,1.0,0.0,0.0,0.0,1.0
1463563957498094766,427,1463563957495803885,,0.486825495958,-6.53004980087,-147.560455322,0.010045000352,1.0,0.0,0.0,0.0,1.0,0.0,0.0,0.0,1.0,-0.731707334518,2.5,-0.365853667259,1.0,0.0,0.0,0.0,1.0,0.0,0.0,0.0,1.0,-0.751779321289,-0.521935925381,-10.1418382324,1.0,0.0,0.0,0.0,1.0,0.0,0.0,0.0,1.0
1463563957507170533,428,1463563957505833878,,0.468402981758,-6.47291755676,-147.425323486,0.0100910002366,1.0,0.0,0.0,0.0,1.0,0.0,0.0,0.0,1.0,-0.243902444839,2.74390244484,0.731707334518,1.0,0.0,0.0,0.0,1.0,0.0,0.0,0.0,1.0,-0.814028564453,-0.373495458984,-10.1131078125,1.0,0.0,0.0,0.0,1.0,0.0,0.0,0.0,1.0
1463563957522097742,429,1463563957516025895,,0.459702759981,-6.41321516037,-147.285232544,0.0100889997557,1.0,0.0,0.0,0.0,1.0,0.0,0.0,0.0,1.0,0.243902444839,2.62195134163,1.2804877758,1.0,0.0,0.0,0.0,1.0,0.0,0.0,0.0,1.0,-0.737414111328,-0.46447512207,-10.1370498291,1.0,0.0,0.0,0.0,1.0,0.0,0.0,0.0,1.0
1463563957528024493,430,1463563957525943237,,0.449809551239,-6.35265731812,-147.134216309,0.0101279998198,1.0,0.0,0.0,0.0,1.0,0.0,0.0,0.0,1.0,0.548780500889,2.80487799644,2.25609779358,1.0,0.0,0.0,0.0,1.0,0.0,0.0,0.0,1.0,-0.742202514648,-0.402225878906,-10.0652237793,1.0,0.0,0.0,0.0,1.0,0.0,0.0,0.0,1.0
1463563957539652118,431,1463563957536031092,,0.441635251045,-6.29448509216,-146.973114014,0.0100809996948,1.0,0.0,0.0,0.0,1.0,0.0,0.0,0.0,1.0,0.487804889679,2.5,3.35365867615,1.0,0.0,0.0,0.0,1.0,0.0,0.0,0.0,1.0,-0.713472094727,-0.45968671875,-10.0700121826,1.0,0.0,0.0,0.0,1.0,0.0,0.0,0.0,1.0
1463563957549318067,432,1463563957546035826,,0.437899827957,-6.23586750031,-146.802581787,0.0100959995762,1.0,0.0,0.0,0.0,1.0,0.0,0.0,0.0,1.0,1.40243899822,2.68292689323,4.20731735229,1.0,0.0,0.0,0.0,1.0,0.0,0.0,0.0,1.0,-0.737414111328,-0.392649072266,-10.1897222656,1.0,0.0,0.0,0.0,1.0,0.0,0.0,0.0,1.0
1463563957558844125,433,1463563957556052956,,0.438669204712,-6.18207550049,-146.62399292,0.0101020000875,1.0,0.0,0.0,0.0,1.0,0.0,0.0,0.0,1.0,1.2804877758,2.13414645195,5.06097555161,1.0,0.0,0.0,0.0,1.0,0.0,0.0,0.0,1.0,-0.713472094727,-0.507570751953,-10.1897222656,1.0,0.0,0.0,0.0,1.0,0.0,0.0,0.0,1.0
1463563957568834954,434,1463563957566317990,,0.442465603352,-6.12750291824,-146.441818237,0.0101129999384,1.0,0.0,0.0,0.0,1.0,0.0,0.0,0.0,1.0,1.8292683363,2.31707310677,5.36585378647,1.0,0.0,0.0,0.0,1.0,0.0,0.0,0.0,1.0,-0.713472094727,-0.45968671875,-10.0508585693,1.0,0.0,0.0,0.0,1.0,0.0,0.0,0.0,1.0
1463563957579223732,435,1463563957576472873,,0.446579605341,-6.07445335388,-146.255187988,0.0100929997861,1.0,0.0,0.0,0.0,1.0,0.0,0.0,0.0,1.0,2.31707310677,2.25609779358,5.79268312454,1.0,0.0,0.0,0.0,1.0,0.0,0.0,0.0,1.0,-0.723048901367,-0.387860668945,-10.1322614258,1.0,0.0,0.0,0.0,1.0,0.0,0.0,0.0,1.0
1463563957589133523,436,1463563957586601560,,0.464914411306,-6.03138828278,-146.070129395,0.0101079996675,1.0,0.0,0.0,0.0,1.0,0.0,0.0,0.0,1.0,3.17073178291,1.46341466904,5.67073154449,1.0,0.0,0.0,0.0,1.0,0.0,0.0,0.0,1.0,-0.751779321289,-0.483628735352,-10.1609918457,1.0,0.0,0.0,0.0,1.0,0.0,0.0,0.0,1.0
1463563957611986398,437,1463563957596817377,,0.49932166934,-5.98482227325,-145.88394165,0.0101810004562,1.0,0.0,0.0,0.0,1.0,0.0,0.0,0.0,1.0,3.96341490746,1.2804877758,5.73170757294,1.0,0.0,0.0,0.0,1.0,0.0,0.0,0.0,1.0,-0.651222851562,-0.622492431641,-10.1370498291,1.0,0.0,0.0,0.0,1.0,0.0,0.0,0.0,1.0
1463563957612142693,438,1463563957609333034,,0.547831356525,-5.93131446838,-145.66267395,0.0123800002038,1.0,0.0,0.0,0.0,1.0,0.0,0.0,0.0,1.0,4.63414621353,0.792682945728,5.30487823486,1.0,0.0,0.0,0.0,1.0,0.0,0.0,0.0,1.0,-0.598550451572,-0.593762048251,-10.1322614258,1.0,0.0,0.0,0.0,1.0,0.0,0.0,0.0,1.0
1463563957781897718,439,1463563957617212608,,0.574141323566,-5.90340948105,-145.522262573,0.00782900024205,1.0,0.0,0.0,0.0,1.0,0.0,0.0,0.0,1.0,4.69512224197,-0.0609756112099,5.30487823486,1.0,0.0,0.0,0.0,1.0,0.0,0.0,0.0,1.0,-0.574608398438,-0.493205541992,-10.2136642822,1.0,0.0,0.0,0.0,1.0,0.0,0.0,0.0,1.0
1463563957782191194,440,1463563957626985010,,0.611056983471,-5.87926292419,-145.34552002,0.010048000142,1.0,0.0,0.0,0.0,1.0,0.0,0.0,0.0,1.0,5.24390268326,-0.365853667259,4.93902444839,1.0,0.0,0.0,0.0,1.0,0.0,0.0,0.0,1.0,-0.727837304687,-0.450109912109,-10.2711251221,1.0,0.0,0.0,0.0,1.0,0.0,0.0,0.0,1.0
1463563957782470087,441,1463563957636957818,,0.657564401627,-5.8542342186,-145.172912598,0.0100630000234,1.0,0.0,0.0,0.0,1.0,0.0,0.0,0.0,1.0,4.93902444839,-0.792682945728,4.63414621353,1.0,0.0,0.0,0.0,1.0,0.0,0.0,0.0,1.0,-0.627280834961,-0.675164868164,-10.2519715088,1.0,0.0,0.0,0.0,1.0,0.0,0.0,0.0,1.0
1463563957782736220,442,1463563957647034164,,0.702650904655,-5.83450746536,-144.998123169,0.0100889997557,1.0,0.0,0.0,0.0,1.0,0.0,0.0,0.0,1.0,4.69512224197,-0.975609779358,4.81707286835,1.0,0.0,0.0,0.0,1.0,0.0,0.0,0.0,1.0,-0.694318481445,-0.713472094727,-10.4147772217,1.0,0.0,0.0,0.0,1.0,0.0,0.0,0.0,1.0
1463563957782992666,443,1463563957656996816,,0.74080902338,-5.81953573227,-144.823623657,0.0100990002975,1.0,0.0,0.0,0.0,1.0,0.0,0.0,0.0,1.0,4.14634132385,-1.15853655338,4.75609779358,1.0,0.0,0.0,0.0,1.0,0.0,0.0,0.0,1.0,-0.732625708008,-0.684741674805,-10.2807019287,1.0,0.0,0.0,0.0,1.0,0.0,0.0,0.0,1.0
1463563957783244686,444,1463563957667256903,,0.762456774712,-5.80346536636,-144.648696899,0.0101129999384,1.0,0.0,0.0,0.0,1.0,0.0,0.0,0.0,1.0,3.29268312454,-1.03658533096,4.69512224197,1.0,0.0,0.0,0.0,1.0,0.0,0.0,0.0,1.0,-0.723048901367,-0.541089611728,-10.165780249,1.0,0.0,0.0,0.0,1.0,0.0,0.0,0.0,1.0
1463563957783501861,445,1463563957677442149,,0.792831778526,-5.78309106827,-144.472702026,0.0100919995457,1.0,0.0,0.0,0.0,1.0,0.0,0.0,0.0,1.0,3.65853667259,-0.487804889679,4.87804889679,1.0,0.0,0.0,0.0,1.0,0.0,0.0,0.0,1.0,-0.732625708008,-0.632069238281,-10.0700121826,1.0,0.0,0.0,0.0,1.0,0.0,0.0,0.0,1.0
1463563957783798045,446,1463563957687971129,,0.817819654942,-5.76029634476,-144.2996521,0.0101220002398,1.0,0.0,0.0,0.0,1.0,0.0,0.0,0.0,1.0,3.35365867615,-0.487804889679,4.51219558716,1.0,0.0,0.0,0.0,1.0,0.0,0.0,0.0,1.0,-0.694318481445,-0.593762048251,-10.180145459,1.0,0.0,0.0,0.0,1.0,0.0,0.0,0.0,1.0
1463563957784086573,447,1463563957697782279,,0.833413183689,-5.73307609558,-144.126953125,0.0101079996675,1.0,0.0,0.0,0.0,1.0,0.0,0.0,0.0,1.0,2.86585378647,-0.304878056049,4.45121955872,1.0,0.0,0.0,0.0,1.0,0.0,0.0,0.0,1.0,-0.636857641602,-0.512359155273,-10.0891657959,1.0,0.0,0.0,0.0,1.0,0.0,0.0,0.0,1.0
1463563957784389944,448,1463563957707905757,,0.848688542843,-5.7143573761,-143.957107544,0.0100870002061,1.0,0.0,0.0,0.0,1.0,0.0,0.0,0.0,1.0,2.80487799644,-0.365853667259,4.20731735229,1.0,0.0,0.0,0.0,1.0,0.0,0.0,0.0,1.0,-0.780509741211,-0.521935925381,-10.2136642822,1.0,0.0,0.0,0.0,1.0,0.0,0.0,0.0,1.0
1463563957784656494,449,1463563957718636394,,0.870786786079,-5.69580411911,-143.783782959,0.0105170002207,1.0,0.0,0.0,0.0,1.0,0.0,0.0,0.0,1.0,3.47560977936,-0.365853667259,3.84146332741,1.0,0.0,0.0,0.0,1.0,0.0,0.0,0.0,1.0,-0.794874951172,-0.502782348633,-10.2280294922,1.0,0.0,0.0,0.0,1.0,0.0,0.0,0.0,1.0
1463563957784945855,450,1463563957727967983,,0.888311624527,-5.67567491531,-143.624176025,0.00969799980521,1.0,0.0,0.0,0.0,1.0,0.0,0.0,0.0,1.0,3.47560977936,0.12195122242,3.7804877758,1.0,0.0,0.0,0.0,1.0,0.0,0.0,0.0,1.0,-0.828393774414,-0.45489831543,-10.299855542,1.0,0.0,0.0,0.0,1.0,0.0,0.0,0.0,1.0
1463563957785251570,451,1463563957741270373,,0.924331784248,-5.63878154755,-143.41595459,0.0132050001994,1.0,0.0,0.0,0.0,1.0,0.0,0.0,0.0,1.0,4.08536577225,0.975609779358,3.10975623131,1.0,0.0,0.0,0.0,1.0,0.0,0.0,0.0,1.0,-0.852335791016,-0.502782348633,-10.3285859619,1.0,0.0,0.0,0.0,1.0,0.0,0.0,0.0,1.0
1463563957785585616,452,1463563957750103236,,0.941277146339,-5.61461114883,-143.305221558,0.00704699987546,1.0,0.0,0.0,0.0,1.0,0.0,0.0,0.0,1.0,4.39024400711,1.03658533096,2.98780488968,1.0,0.0,0.0,0.0,1.0,0.0,0.0,0.0,1.0,-0.742202514648,-0.392649072266,-10.3716815918,1.0,0.0,0.0,0.0,1.0,0.0,0.0,0.0,1.0
1463563957785873103,453,1463563957762019963,,0.968722045422,-5.55975103378,-143.11541748,0.0121780000627,1.0,0.0,0.0,0.0,1.0,0.0,0.0,0.0,1.0,4.02439022064,1.8902438879,2.86585378647,1.0,0.0,0.0,0.0,1.0,0.0,0.0,0.0,1.0,-0.703895288086,-0.435744702148,-10.4866032715,1.0,0.0,0.0,0.0,1.0,0.0,0.0,0.0,1.0
1463563957786163714,454,1463563957774325004,,0.981172740459,-5.52885913849,-142.975738525,0.00883399974555,1.0,0.0,0.0,0.0,1.0,0.0,0.0,0.0,1.0,3.71951246262,1.2804877758,3.04878044128,1.0,0.0,0.0,0.0,1.0,0.0,0.0,0.0,1.0,-0.76135612793,-0.339976635742,-10.419565625,1.0,0.0,0.0,0.0,1.0,0.0,0.0,0.0,1.0
1463563957786470679,455,1463563957779664022,,1.00031936169,-5.48868131638,-142.805496216,0.0105480002239,1.0,0.0,0.0,0.0,1.0,0.0,0.0,0.0,1.0,3.59756112099,1.8292683363,3.41463422775,1.0,0.0,0.0,0.0,1.0,0.0,0.0,0.0,1.0,-0.799663354492,-0.445321508789,-10.4482960449,1.0,0.0,0.0,0.0,1.0,0.0,0.0,0.0,1.0
1463563957911353196,456,1463563957789770366,,1.00652301311,-5.44922637939,-142.652099609,0.00906599964947,1.0,0.0,0.0,0.0,1.0,0.0,0.0,0.0,1.0,2.92682933807,2.13414645195,4.14634132385,1.0,0.0,0.0,0.0,1.0,0.0,0.0,0.0,1.0,-0.742202514648,-0.373495458984,-10.4099888184,1.0,0.0,0.0,0.0,1.0,0.0,0.0,0.0,1.0
1463563957911448400,457,1463563957798640623,,1.01283037663,-5.40942430496,-142.480575562,0.00982700008899,1.0,0.0,0.0,0.0,1.0,0.0,0.0,0.0,1.0,2.74390244484,1.8902438879,4.69512224197,1.0,0.0,0.0,0.0,1.0,0.0,0.0,0.0,1.0,-0.742202514648,-0.407014282227,-10.3908352051,1.0,0.0,0.0,0.0,1.0,0.0,0.0,0.0,1.0
1463563957911781978,458,1463563957808646346,,1.01043605804,-5.36403656006,-142.292770386,0.0100720003247,1.0,0.0,0.0,0.0,1.0,0.0,0.0,0.0,1.0,2.13414645195,2.25609779358,5.85365867615,1.0,0.0,0.0,0.0,1.0,0.0,0.0,0.0,1.0,-0.708683691406,-0.373495458984,-10.3094323486,1.0,0.0,0.0,0.0,1.0,0.0,0.0,0.0,1.0
1463563957912105192,459,1463563957818987835,,1.00480902195,-5.3192024231,-142.095855713,0.0102030001581,1.0,0.0,0.0,0.0,1.0,0.0,0.0,0.0,1.0,1.64634156227,2.19512200356,6.52439069748,1.0,0.0,0.0,0.0,1.0,0.0,0.0,0.0,1.0,-0.713472094727,-0.416591088867,-10.3908352051,1.0,0.0,0.0,0.0,1.0,0.0,0.0,0.0,1.0
1463563957913583663,460,1463563957828897470,,0.994194149971,-5.2765955925,-141.889144897,0.0100149996579,1.0,0.0,0.0,0.0,1.0,0.0,0.0,0.0,1.0,1.09756100178,2.25609779358,7.86585378647,1.0,0.0,0.0,0.0,1.0,0.0,0.0,0.0,1.0,-0.742202514648,-0.445321508789,-10.4435076416,1.0,0.0,0.0,0.0,1.0,0.0,0.0,0.0,1.0
1463563957913950677,461,1463563957838878559,,0.976382493973,-5.22983694077,-141.676940918,0.0100889997557,1.0,0.0,0.0,0.0,1.0,0.0,0.0,0.0,1.0,0.548780500889,2.92682933807,8.23170757294,1.0,0.0,0.0,0.0,1.0,0.0,0.0,0.0,1.0,-0.785298144531,-0.416591088867,-10.4099888184,1.0,0.0,0.0,0.0,1.0,0.0,0.0,0.0,1.0
1463563957914276131,462,1463563957850691228,,0.956588864326,-5.18024873734,-141.459732056,0.0102399997413,1.0,0.0,0.0,0.0,1.0,0.0,0.0,0.0,1.0,0.304878056049,3.10975623131,8.41463470459,1.0,0.0,0.0,0.0,1.0,0.0,0.0,0.0,1.0,-0.77093293457,-0.426167895508,-10.3860468018,1.0,0.0,0.0,0.0,1.0,0.0,0.0,0.0,1.0
1463563957914583564,463,1463563957860606852,,0.935223996639,-5.12537384033,-141.243362427,0.0101079996675,1.0,0.0,0.0,0.0,1.0,0.0,0.0,0.0,1.0,0.853658556938,3.53658556938,8.5365858078,1.0,0.0,0.0,0.0,1.0,0.0,0.0,0.0,1.0,-0.732625708008,-0.287304199219,-10.3764699951,1.0,0.0,0.0,0.0,1.0,0.0,0.0,0.0,1.0
1463563957914865373,464,1463563957871112500,,0.918360292912,-5.07738208771,-141.03805542,0.00997699983418,1.0,0.0,0.0,0.0,1.0,0.0,0.0,0.0,1.0,1.52439022064,3.71951246262,7.68292665482,1.0,0.0,0.0,0.0,1.0,0.0,0.0,0.0,1.0,-0.871489404297,-0.220266552734,-10.3477395752,1.0,0.0,0.0,0.0,1.0,0.0,0.0,0.0,1.0
1463563957915118018,465,1463563957881050726,,0.918728113174,-5.00776815414,-140.820922852,0.0111609995365,1.0,0.0,0.0,0.0,1.0,0.0,0.0,0.0,1.0,3.53658556938,4.51219558716,6.52439069748,1.0,0.0,0.0,0.0,1.0,0.0,0.0,0.0,1.0,-0.756567724609,-0.143652099609,-10.4387192383,1.0,0.0,0.0,0.0,1.0,0.0,0.0,0.0,1.0
1463563957915477480,466,1463563957891609497,,0.938049018383,-4.93919897079,-140.638671875,0.00999699998647,1.0,0.0,0.0,0.0,1.0,0.0,0.0,0.0,1.0,5.30487823486,5.0,5.30487823486,1.0,0.0,0.0,0.0,1.0,0.0,0.0,0.0,1.0,-0.718260498047,-0.143652099609,-10.3860468018,1.0,0.0,0.0,0.0,1.0,0.0,0.0,0.0,1.0
1463563957915524926,467,1463563957899871241,,0.967559993267,-4.879093647,-140.480102539,0.0091810002923,1.0,0.0,0.0,0.0,1.0,0.0,0.0,0.0,1.0,6.70731735229,5.30487823486,4.32926845551,1.0,0.0,0.0,0.0,1.0,0.0,0.0,0.0,1.0,-0.814028564453,-0.105344873047,-10.299855542,1.0,0.0,0.0,0.0,1.0,0.0,0.0,0.0,1.0
1463563957915799027,468,1463563957911844892,,1.02250647545,-4.80902242661,-140.307815552,0.0100750001147,1.0,0.0,0.0,0.0,1.0,0.0,0.0,0.0,1.0,9.02439117432,5.42682933807,4.14634132385,1.0,0.0,0.0,0.0,1.0,0.0,0.0,0.0,1.0,-0.751779321289,-0.0909796630859,-10.3381627686,1.0,0.0,0.0,0.0,1.0,0.0,0.0,0.0,1.0
1463563957941111369,469,1463563957921315484,,1.09058690071,-4.73608016968,-140.142074585,0.0100889997557,1.0,0.0,0.0,0.0,1.0,0.0,0.0,0.0,1.0,10.2439022064,5.36585378647,3.47560977936,1.0,0.0,0.0,0.0,1.0,0.0,0.0,0.0,1.0,-0.675164868164,-0.100556469727,-10.3190091553,1.0,0.0,0.0,0.0,1.0,0.0,0.0,0.0,1.0
1463563957941461144,470,1463563957932349909,,1.19355297089,-4.65440559387,-139.974838257,0.010108999908,1.0,0.0,0.0,0.0,1.0,0.0,0.0,0.0,1.0,11.9512195587,5.67073154449,3.71951246262,1.0,0.0,0.0,0.0,1.0,0.0,0.0,0.0,1.0,-0.555454785156,-0.426167895508,-10.285490332,1.0,0.0,0.0,0.0,1.0,0.0,0.0,0.0,1.0
1463563957953765613,471,1463563957942018305,,1.28451597691,-4.57968378067,-139.79989624,0.0100769996643,1.0,0.0,0.0,0.0,1.0,0.0,0.0,0.0,1.0,12.4390249252,5.60975599289,4.39024400711,1.0,0.0,0.0,0.0,1.0,0.0,0.0,0.0,1.0,-0.646434448242,-0.15322890625,-10.3477395752,1.0,0.0,0.0,0.0,1.0,0.0,0.0,0.0,1.0
1463563957954037475,472,1463563957950512277,,1.38835859299,-4.50977039337,-139.617233276,0.0101190004498,1.0,0.0,0.0,0.0,1.0,0.0,0.0,0.0,1.0,14.6341466904,5.30487823486,5.0,1.0,0.0,0.0,0.0,1.0,0.0,0.0,0.0,1.0,-0.660799658203,0.0,-10.3381627686,1.0,0.0,0.0,0.0,1.0,0.0,0.0,0.0,1.0
1463563957962765186,473,1463563957960483524,,1.52134215832,-4.43696784973,-139.434280396,0.0100899999961,1.0,0.0,0.0,0.0,1.0,0.0,0.0,0.0,1.0,16.8902435303,5.24390268326,5.12195110321,1.0,0.0,0.0,0.0,1.0,0.0,0.0,0.0,1.0,-0.579396801758,-0.138863696289,-10.4387192383,1.0,0.0,0.0,0.0,1.0,0.0,0.0,0.0,1.0
1463563957973160579,474,1463563957970656323,,1.67082118988,-4.36636829376,-139.24671936,0.0101079996675,1.0,0.0,0.0,0.0,1.0,0.0,0.0,0.0,1.0,19.7560977936,5.48780488968,5.42682933807,1.0,0.0,0.0,0.0,1.0,0.0,0.0,0.0,1.0,-0.641646044922,0.067037651051,-10.4099888184,1.0,0.0,0.0,0.0,1.0,0.0,0.0,0.0,1.0
1463563957983558107,475,1463563957980586425,,1.85230255127,-4.29797029495,-139.057601929,0.0100959995762,1.0,0.0,0.0,0.0,1.0,0.0,0.0,0.0,1.0,24.1463432312,5.79268312454,5.48780488968,1.0,0.0,0.0,0.0,1.0,0.0,0.0,0.0,1.0,-0.713472094727,0.263362164351,-10.419565625,1.0,0.0,0.0,0.0,1.0,0.0,0.0,0.0,1.0
1463563957994230309,476,1463563957991039835,,2.09263730049,-4.22759151459,-138.865722656,0.0101239997894,1.0,0.0,0.0,0.0,1.0,0.0,0.0,0.0,1.0,29.2073173523,6.0365858078,5.73170757294,1.0,0.0,0.0,0.0,1.0,0.0,0.0,0.0,1.0,-0.699106884766,0.100556469727,-10.4147772217,1.0,0.0,0.0,0.0,1.0,0.0,0.0,0.0,1.0
1463563958006447855,477,1463563958000756979,,2.36241936684,-4.15393209457,-138.656814575,0.0100790001452,1.0,0.0,0.0,0.0,1.0,0.0,0.0,0.0,1.0,34.2682952881,6.28048801422,7.31707334518,1.0,0.0,0.0,0.0,1.0,0.0,0.0,0.0,1.0,-0.636857641602,0.411802685547,-10.405200415,1.0,0.0,0.0,0.0,1.0,0.0,0.0,0.0,1.0
1463563958013300344,478,1463563958010825721,,2.68566560745,-4.08030509949,-138.421691895,0.0100910002366,1.0,0.0,0.0,0.0,1.0,0.0,0.0,0.0,1.0,40.6097564697,6.82926845551,9.75609779358,1.0,0.0,0.0,0.0,1.0,0.0,0.0,0.0,1.0,-0.679953271484,0.526724328702,-10.3046439453,1.0,0.0,0.0,0.0,1.0,0.0,0.0,0.0,1.0
1463563958023010615,479,1463563958021387463,,3.08545732498,-4.00045681,-138.161605835,0.0101100001484,1.0,0.0,0.0,0.0,1.0,0.0,0.0,0.0,1.0,48.3536567688,7.86585378647,12.0731716156,1.0,0.0,0.0,0.0,1.0,0.0,0.0,0.0,1.0,-0.703895288086,0.488417138672,-10.3956236084,1.0,0.0,0.0,0.0,1.0,0.0,0.0,0.0,1.0
1463563958037123333,480,1463563958031477559,,3.55136394501,-3.92255592346,-137.863800049,0.0102009996772,1.0,0.0,0.0,0.0,1.0,0.0,0.0,0.0,1.0,55.7926826477,8.41463470459,15.3658533096,1.0,0.0,0.0,0.0,1.0,0.0,0.0,0.0,1.0,-0.751779321289,0.60812722168,-10.1897222656,1.0,0.0,0.0,0.0,1.0,0.0,0.0,0.0,1.0
1463563958045454450,481,1463563958041485002,,4.09259223938,-3.84196209908,-137.536972046,0.0100260004401,1.0,0.0,0.0,0.0,1.0,0.0,0.0,0.0,1.0,63.9024429321,9.39024448395,18.658536911,1.0,0.0,0.0,0.0,1.0,0.0,0.0,0.0,1.0,-0.751779321289,0.450109912109,-10.1370498291,1.0,0.0,0.0,0.0,1.0,0.0,0.0,0.0,1.0
1463563958066069622,482,1463563958051144181,,4.70357370377,-3.75992918015,-137.175094604,0.0100929997861,1.0,0.0,0.0,0.0,1.0,0.0,0.0,0.0,1.0,70.9146347046,9.93902492523,21.7682933807,1.0,0.0,0.0,0.0,1.0,0.0,0.0,0.0,1.0,-0.703895288086,0.397437475586,-9.93593688965,1.0,0.0,0.0,0.0,1.0,0.0,0.0,0.0,1.0
1463563958066112380,483,1463563958061577490,,5.37584400177,-3.69051551819,-136.777282715,0.0100819999352,1.0,0.0,0.0,0.0,1.0,0.0,0.0,0.0,1.0,78.841468811,10.6097564697,25.1219520569,1.0,0.0,0.0,0.0,1.0,0.0,0.0,0.0,1.0,-0.909796630859,0.579396801758,-10.0077629395,1.0,0.0,0.0,0.0,1.0,0.0,0.0,0.0,1.0
1463563958075994726,484,1463563958072536400,,6.21294593811,-3.62010073662,-136.3152771,0.010924000293,1.0,0.0,0.0,0.0,1.0,0.0,0.0,0.0,1.0,89.0243911743,11.0975618362,27.8048782349,1.0,0.0,0.0,0.0,1.0,0.0,0.0,0.0,1.0,-0.92416184082,0.478840332031,-10.0317049561,1.0,0.0,0.0,0.0,1.0,0.0,0.0,0.0,1.0
1463563958084553019,485,1463563958081822367,,7.00157737732,-3.54797506332,-135.894134521,0.00927700009197,1.0,0.0,0.0,0.0,1.0,0.0,0.0,0.0,1.0,97.1951217651,12.4390249252,30.6707305908,1.0,0.0,0.0,0.0,1.0,0.0,0.0,0.0,1.0,-0.742202514648,0.263362164351,-9.95509050293,1.0,0.0,0.0,0.0,1.0,0.0,0.0,0.0,1.0
1463563958097345227,486,1463563958091822988,,7.94525575638,-3.47240924835,-135.397003174,0.0101199997589,1.0,0.0,0.0,0.0,1.0,0.0,0.0,0.0,1.0,105.365859985,13.2317075729,34.2073173523,1.0,0.0,0.0,0.0,1.0,0.0,0.0,0.0,1.0,-0.718260498047,0.0814028564453,-9.90720646973,1.0,0.0,0.0,0.0,1.0,0.0,0.0,0.0,1.0
1463563958104193237,487,1463563958101609557,,8.97282791138,-3.41170310974,-134.862533569,0.0100840004161,1.0,0.0,0.0,0.0,1.0,0.0,0.0,0.0,1.0,113.414634705,13.1097564697,38.0487823486,1.0,0.0,0.0,0.0,1.0,0.0,0.0,0.0,1.0,-0.675164868164,-0.215478149414,-9.64863327495,1.0,0.0,0.0,0.0,1.0,0.0,0.0,0.0,1.0
1463563958124157033,488,1463563958112074271,,10.0744714737,-3.36192202568,-134.281021118,0.0101039996371,1.0,0.0,0.0,0.0,1.0,0.0,0.0,0.0,1.0,119.939025879,13.9634151459,42.4390258789,1.0,0.0,0.0,0.0,1.0,0.0,0.0,0.0,1.0,-0.699106884766,-0.526724328702,-9.54807680523,1.0,0.0,0.0,0.0,1.0,0.0,0.0,0.0,1.0
1463563958124221509,489,1463563958122316860,,11.2510995865,-3.31547617912,-133.653335571,0.0101180002093,1.0,0.0,0.0,0.0,1.0,0.0,0.0,0.0,1.0,126.097572327,14.9390249252,46.7682952881,1.0,0.0,0.0,0.0,1.0,0.0,0.0,0.0,1.0,-0.593762048251,-0.952892260742,-9.69172832031,1.0,0.0,0.0,0.0,1.0,0.0,0.0,0.0,1.0
1463563958165247904,490,1463563958132324720,,12.4951429367,-3.31154251099,-133.003051758,0.0100959995762,1.0,0.0,0.0,0.0,1.0,0.0,0.0,0.0,1.0,131.097564697,13.9024391174,49.4512176514,1.0,0.0,0.0,0.0,1.0,0.0,0.0,0.0,1.0,-0.77093293457,-1.41736738281,-9.07402429199,1.0,0.0,0.0,0.0,1.0,0.0,0.0,0.0,1.0
1463563958165308005,491,1463563958142336955,,13.788734436,-3.32465195656,-132.331726074,0.0101399999112,1.0,0.0,0.0,0.0,1.0,0.0,0.0,0.0,1.0,134.573165894,15.4268302917,50.9756088257,1.0,0.0,0.0,0.0,1.0,0.0,0.0,0.0,1.0,-0.972045874023,-1.72382519531,-8.76277807617,1.0,0.0,0.0,0.0,1.0,0.0,0.0,0.0,1.0
1463563958169089701,492,1463563958152666050,,15.0867424011,-3.36164999008,-131.65802002,0.0100739998743,1.0,0.0,0.0,0.0,1.0,0.0,0.0,0.0,1.0,139.085357666,15.9146347046,51.3414649963,1.0,0.0,0.0,0.0,1.0,0.0,0.0,0.0,1.0,-1.16837033709,-1.41736738281,-8.76277807617,1.0,0.0,0.0,0.0,1.0,0.0,0.0,0.0,1.0
1463563958169880341,493,1463563958162695368,,16.4511985779,-3.39708089828,-130.980316162,0.0101110003889,1.0,0.0,0.0,0.0,1.0,0.0,0.0,0.0,1.0,144.024398804,17.3780498505,51.1585388184,1.0,0.0,0.0,0.0,1.0,0.0,0.0,0.0,1.0,-1.12527478027,-1.7908628418,-8.61912656108,1.0,0.0,0.0,0.0,1.0,0.0,0.0,0.0,1.0
1463563958296037244,494,1463563958172772131,,17.8741149902,-3.40858197212,-130.307556152,0.0100750001147,1.0,0.0,0.0,0.0,1.0,0.0,0.0,0.0,1.0,147.804885864,18.3536586761,50.7317085266,1.0,0.0,0.0,0.0,1.0,0.0,0.0,0.0,1.0,-0.684741674805,-2.42293208008,-8.62870336773,1.0,0.0,0.0,0.0,1.0,0.0,0.0,0.0,1.0
1463563958296367905,495,1463563958182688642,,19.3215236664,-3.44196915627,-129.634124756,0.0100809996948,1.0,0.0,0.0,0.0,1.0,0.0,0.0,0.0,1.0,147.439025879,17.1951217651,51.3414649963,1.0,0.0,0.0,0.0,1.0,0.0,0.0,0.0,1.0,-0.560243188477,-3.0406361084,-8.40364724263,1.0,0.0,0.0,0.0,1.0,0.0,0.0,0.0,1.0
1463563958296681380,496,1463563958192982635,,20.806060791,-3.50692796707,-128.956771851,0.0101110003889,1.0,0.0,0.0,0.0,1.0,0.0,0.0,0.0,1.0,145.731719971,16.0975608826,52.3780517578,1.0,0.0,0.0,0.0,1.0,0.0,0.0,0.0,1.0,-0.555454785156,-3.90733710937,-7.85298144531,1.0,0.0,0.0,0.0,1.0,0.0,0.0,0.0,1.0
1463563958297007094,497,1463563958204464436,,22.4717121124,-3.64108538628,-128.181060791,0.0115909995511,1.0,0.0,0.0,0.0,1.0,0.0,0.0,0.0,1.0,142.926834106,14.3292694092,53.2317085266,1.0,0.0,0.0,0.0,1.0,0.0,0.0,0.0,1.0,-0.780509741211,-4.10845004883,-7.80988581543,1.0,0.0,0.0,0.0,1.0,0.0,0.0,0.0,1.0
1463563958299708997,498,1463563958212707744,,23.6800098419,-3.76905560493,-127.606697083,0.00859799981117,1.0,0.0,0.0,0.0,1.0,0.0,0.0,0.0,1.0,137.682937622,14.6951217651,53.4146347046,1.0,0.0,0.0,0.0,1.0,0.0,0.0,0.0,1.0,-1.13963999023,-4.82192243582,-7.80030900879,1.0,0.0,0.0,0.0,1.0,0.0,0.0,0.0,1.0
1463563958300129029,499,1463563958222853879,,25.0109672546,-3.92451024055,-126.94871521,0.0101169999689,1.0,0.0,0.0,0.0,1.0,0.0,0.0,0.0,1.0,132.134155273,14.2073173523,51.7682952881,1.0,0.0,0.0,0.0,1.0,0.0,0.0,0.0,1.0,-1.07739082014,-4.67348134836,-8.2743609375,1.0,0.0,0.0,0.0,1.0,0.0,0.0,0.0,1.0
1463563958300455733,500,1463563958232889759,,26.2888622284,-4.06302070618,-126.30947876,0.0100999996066,1.0,0.0,0.0,0.0,1.0,0.0,0.0,0.0,1.0,125.487808228,15.7317075729,49.5731735229,1.0,0.0,0.0,0.0,1.0,0.0,0.0,0.0,1.0,-0.967257470703,-5.11880314941,-8.0397291748,1.0,0.0,0.0,0.0,1.0,0.0,0.0,0.0,1.0
1463563958303387573,501,1463563958243079434,,27.4959926605,-4.21310710907,-125.7032547,0.0100969998166,1.0,0.0,0.0,0.0,1.0,0.0,0.0,0.0,1.0,116.036582947,12.9268293381,47.8658561707,1.0,0.0,0.0,0.0,1.0,0.0,0.0,0.0,1.0,-0.684741674805,-5.87537087402,-8.02536396484,1.0,0.0,0.0,0.0,1.0,0.0,0.0,0.0,1.0
1463563958304902866,502,1463563958253097658,,28.5985298157,-4.3390994072,-125.131668091,0.0100959995762,1.0,0.0,0.0,0.0,1.0,0.0,0.0,0.0,1.0,105.914634705,12.0121955872,44.817073822,1.0,0.0,0.0,0.0,1.0,0.0,0.0,0.0,1.0,-0.191536132812,-6.07169541016,-8.04451757812,1.0,0.0,0.0,0.0,1.0,0.0,0.0,0.0,1.0
1463563958305288786,503,1463563958263215305,,29.5827293396,-4.50093269348,-124.610214233,0.0100969998166,1.0,0.0,0.0,0.0,1.0,0.0,0.0,0.0,1.0,96.0975646973,7.31707334518,41.9512214661,1.0,0.0,0.0,0.0,1.0,0.0,0.0,0.0,1.0,-0.181959326172,-5.8466404541,-8.06367119141,1.0,0.0,0.0,0.0,1.0,0.0,0.0,0.0,1.0
1463563958305757670,504,1463563958273332744,,30.5062160492,-4.63232135773,-124.159919739,0.010108999908,1.0,0.0,0.0,0.0,1.0,0.0,0.0,0.0,1.0,97.0121994019,4.93902444839,34.8780479431,1.0,0.0,0.0,0.0,1.0,0.0,0.0,0.0,1.0,0.201112939453,-4.72136538157,-8.39885883931,1.0,0.0,0.0,0.0,1.0,0.0,0.0,0.0,1.0
1463563958306068384,505,1463563958283507471,,31.3649406433,-4.79210042953,-123.749450684,0.0101279998198,1.0,0.0,0.0,0.0,1.0,0.0,0.0,0.0,1.0,83.1707305908,1.8292683363,33.1097564697,1.0,0.0,0.0,0.0,1.0,0.0,0.0,0.0,1.0,0.124498486328,-5.8226984375,-7.60398447266,1.0,0.0,0.0,0.0,1.0,0.0,0.0,0.0,1.0
1463563959143172750,506,1463563958293574079,,32.136882782,-4.96974420547,-123.410400391,0.0100870002061,1.0,0.0,0.0,0.0,1.0,0.0,0.0,0.0,1.0,76.8902435303,0.365853667259,26.0975627899,1.0,0.0,0.0,0.0,1.0,0.0,0.0,0.0,1.0,-0.569819995117,-5.96635053711,-8.26957253418,1.0,0.0,0.0,0.0,1.0,0.0,0.0,0.0,1.0
1463563959143512786,507,1463563958303668706,,32.8233184814,-5.1709651947,-123.10017395,0.0100969998166,1.0,0.0,0.0,0.0,1.0,0.0,0.0,0.0,1.0,70.3048782349,-1.2804877758,23.8414649963,1.0,0.0,0.0,0.0,1.0,0.0,0.0,0.0,1.0,-0.857124194336,-5.41089575195,-7.88650026855,1.0,0.0,0.0,0.0,1.0,0.0,0.0,0.0,1.0
1463563959143816314,508,1463563958313941241,,33.4674530029,-5.36715316772,-122.846916199,0.0101030003279,1.0,0.0,0.0,0.0,1.0,0.0,0.0,0.0,1.0,65.5487823486,-2.31707310677,18.1097564697,1.0,0.0,0.0,0.0,1.0,0.0,0.0,0.0,1.0,-1.15879360352,-5.65510432129,-7.99663354492,1.0,0.0,0.0,0.0,1.0,0.0,0.0,0.0,1.0
1463563959144112446,509,1463563958323870616,,34.0868797302,-5.55608081818,-122.637374878,0.0100969998166,1.0,0.0,0.0,0.0,1.0,0.0,0.0,0.0,1.0,63.8414649963,-3.35365867615,13.7804880142,1.0,0.0,0.0,0.0,1.0,0.0,0.0,0.0,1.0,-1.28329208984,-5.55454785156,-7.97269152832,1.0,0.0,0.0,0.0,1.0,0.0,0.0,0.0,1.0
1463563959144390089,510,1463563958333944671,,34.6834945679,-5.68450069427,-122.457427979,0.0100990002975,1.0,0.0,0.0,0.0,1.0,0.0,0.0,0.0,1.0,62.865852356,-1.8902438879,9.26829242706,1.0,0.0,0.0,0.0,1.0,0.0,0.0,0.0,1.0,-0.885854614258,-5.40131894531,-8.03015236816,1.0,0.0,0.0,0.0,1.0,0.0,0.0,0.0,1.0
1463563959144689502,511,1463563958344112784,,35.3098526001,-5.81607532501,-122.318786621,0.0101150004193,1.0,0.0,0.0,0.0,1.0,0.0,0.0,0.0,1.0,62.1951255798,-3.84146332741,6.21951246262,1.0,0.0,0.0,0.0,1.0,0.0,0.0,0.0,1.0,-0.948103857422,-5.89931289062,-7.62313808594,1.0,0.0,0.0,0.0,1.0,0.0,0.0,0.0,1.0
1463563959145937776,512,1463563958354164965,,35.8988838196,-5.92554283142,-122.193817139,0.0100889997557,1.0,0.0,0.0,0.0,1.0,0.0,0.0,0.0,1.0,58.7195129395,-3.84146332741,4.75609779358,1.0,0.0,0.0,0.0,1.0,0.0,0.0,0.0,1.0,-0.718260498047,-5.92804331055,-7.53694682617,1.0,0.0,0.0,0.0,1.0,0.0,0.0,0.0,1.0
1463563959146318123,513,1463563958364266936,,36.4766197205,-6.06602048874,-122.090667725,0.0101020000875,1.0,0.0,0.0,0.0,1.0,0.0,0.0,0.0,1.0,56.8902435303,-6.09756088257,3.96341490746,1.0,0.0,0.0,0.0,1.0,0.0,0.0,0.0,1.0,-1.06302561017,-6.40688364258,-7.84819304199,1.0,0.0,0.0,0.0,1.0,0.0,0.0,0.0,1.0
1463563959147952369,514,1463563958374334064,,37.0117607117,-6.18049526215,-121.988166809,0.0101030003279,1.0,0.0,0.0,0.0,1.0,0.0,0.0,0.0,1.0,51.8902435303,-5.18292713165,3.47560977936,1.0,0.0,0.0,0.0,1.0,0.0,0.0,0.0,1.0,-0.823605371094,-6.87614716797,-8.02057556152,1.0,0.0,0.0,0.0,1.0,0.0,0.0,0.0,1.0
1463563959149521358,515,1463563958384438170,,37.4895782471,-6.30731248856,-121.886871338,0.010095000267,1.0,0.0,0.0,0.0,1.0,0.0,0.0,0.0,1.0,46.0975646973,-7.37804937363,5.18292713165,1.0,0.0,0.0,0.0,1.0,0.0,0.0,0.0,1.0,-0.545877978516,-7.07726010742,-8.05409438477,1.0,0.0,0.0,0.0,1.0,0.0,0.0,0.0,1.0
1463563959155228120,516,1463563958394544516,,37.8994979858,-6.41158151627,-121.783294678,0.0101190004498,1.0,0.0,0.0,0.0,1.0,0.0,0.0,0.0,1.0,39.3292694092,-7.31707334518,5.54878091812,1.0,0.0,0.0,0.0,1.0,0.0,0.0,0.0,1.0,-0.0909796630859,-7.00543405762,-7.84340463867,1.0,0.0,0.0,0.0,1.0,0.0,0.0,0.0,1.0
1463563959155566698,517,1463563958404653673,,38.2562026978,-6.57848072052,-121.704612732,0.0100769996643,1.0,0.0,0.0,0.0,1.0,0.0,0.0,0.0,1.0,34.4512214661,-11.9512195587,6.21951246262,1.0,0.0,0.0,0.0,1.0,0.0,0.0,0.0,1.0,-0.521935925381,-7.18739338379,-8.06845959473,1.0,0.0,0.0,0.0,1.0,0.0,0.0,0.0,1.0
1463563959155628153,518,1463563958414763873,,38.5576896667,-6.76251316071,-121.619125366,0.0101049998775,1.0,0.0,0.0,0.0,1.0,0.0,0.0,0.0,1.0,29.1463413239,-10.9756097794,6.40243911743,1.0,0.0,0.0,0.0,1.0,0.0,0.0,0.0,1.0,-0.943315454102,-6.90966599121,-7.69975253906,1.0,0.0,0.0,0.0,1.0,0.0,0.0,0.0,1.0
1463563959155670651,519,1463563958424786472,,38.8572616577,-6.96429157257,-121.535728455,0.010095000267,1.0,0.0,0.0,0.0,1.0,0.0,0.0,0.0,1.0,26.7682933807,-11.2195119858,6.82926845551,1.0,0.0,0.0,0.0,1.0,0.0,0.0,0.0,1.0,-1.26413847656,-7.5896192627,-7.72369455566,1.0,0.0,0.0,0.0,1.0,0.0,0.0,0.0,1.0
1463563959155707472,520,1463563958435029477,,39.0862998962,-7.1209731102,-121.426231384,0.0101309996098,1.0,0.0,0.0,0.0,1.0,0.0,0.0,0.0,1.0,20.3048782349,-7.92682981491,7.50000047684,1.0,0.0,0.0,0.0,1.0,0.0,0.0,0.0,1.0,-0.847547387695,-7.7093293457,-7.84340463867,1.0,0.0,0.0,0.0,1.0,0.0,0.0,0.0,1.0
1463563959155746533,521,1463563958445348938,,39.2868118286,-7.28085517883,-121.322341919,0.0101039996371,1.0,0.0,0.0,0.0,1.0,0.0,0.0,0.0,1.0,18.2317085266,-8.84146404266,7.56097555161,1.0,0.0,0.0,0.0,1.0,0.0,0.0,0.0,1.0,-0.780509741211,-7.49385119629,-7.76200178223,1.0,0.0,0.0,0.0,1.0,0.0,0.0,0.0,1.0
1463563959155785698,522,1463563958455102695,,39.4179115295,-7.46103620529,-121.209220886,0.0100570004433,1.0,0.0,0.0,0.0,1.0,0.0,0.0,0.0,1.0,13.5365858078,-8.23170757294,8.04878044128,1.0,0.0,0.0,0.0,1.0,0.0,0.0,0.0,1.0,-1.22104284668,-7.13472094727,-7.86734665527,1.0,0.0,0.0,0.0,1.0,0.0,0.0,0.0,1.0
1463563959156340724,523,1463563958467447685,,39.521736145,-7.59479570389,-121.118354797,0.0101250000298,1.0,0.0,0.0,0.0,1.0,0.0,0.0,0.0,1.0,11.5853662491,-9.02439117432,5.67073154449,1.0,0.0,0.0,0.0,1.0,0.0,0.0,0.0,1.0,-0.555454785156,-7.27837304687,-8.31266757954,1.0,0.0,0.0,0.0,1.0,0.0,0.0,0.0,1.0
1463563959156394003,524,1463563958475398403,,39.6236915588,-7.72471523285,-121.027740479,0.010106000118,1.0,0.0,0.0,0.0,1.0,0.0,0.0,0.0,1.0,9.87804889679,-8.29268264771,5.36585378647,1.0,0.0,0.0,0.0,1.0,0.0,0.0,0.0,1.0,-0.636857641602,-7.3071034668,-7.86255825195,1.0,0.0,0.0,0.0,1.0,0.0,0.0,0.0,1.0
1463563959156431136,525,1463563958485414128,,39.7053756714,-7.8579325676,-120.95287323,0.0100910002366,1.0,0.0,0.0,0.0,1.0,0.0,0.0,0.0,1.0,7.62195110321,-9.51219558716,4.45121955872,1.0,0.0,0.0,0.0,1.0,0.0,0.0,0.0,1.0,-0.675164868164,-7.53215842285,-8.05409438477,1.0,0.0,0.0,0.0,1.0,0.0,0.0,0.0,1.0
1463563959156472124,526,1463563958495543805,,39.7731552124,-7.98550224304,-120.871940613,0.0100889997557,1.0,0.0,0.0,0.0,1.0,0.0,0.0,0.0,1.0,5.42682933807,-8.41463470459,4.51219558716,1.0,0.0,0.0,0.0,1.0,0.0,0.0,0.0,1.0,-0.718260498047,-7.39329472656,-7.62792648926,1.0,0.0,0.0,0.0,1.0,0.0,0.0,0.0,1.0
1463563959156517590,527,1463563958505612236,,39.8108825684,-8.13886642456,-120.795433044,0.0101159997284,1.0,0.0,0.0,0.0,1.0,0.0,0.0,0.0,1.0,2.5,-8.5365858078,4.02439022064,1.0,0.0,0.0,0.0,1.0,0.0,0.0,0.0,1.0,-1.30723410645,-7.68059892578,-7.92959589844,1.0,0.0,0.0,0.0,1.0,0.0,0.0,0.0,1.0
1463563959156555193,528,1463563958515850345,,39.8181114197,-8.25462436676,-120.714309692,0.0100999996066,1.0,0.0,0.0,0.0,1.0,0.0,0.0,0.0,1.0,-1.03658533096,-7.13414621353,3.59756112099,1.0,0.0,0.0,0.0,1.0,0.0,0.0,0.0,1.0,-0.857124194336,-7.62792648926,-7.69975253906,1.0,0.0,0.0,0.0,1.0,0.0,0.0,0.0,1.0
1463563959156670031,529,1463563958525863726,,39.7684555054,-8.35339927673,-120.63684845,0.0101079996675,1.0,0.0,0.0,0.0,1.0,0.0,0.0,0.0,1.0,-5.42682933807,-6.52439069748,2.37804889679,1.0,0.0,0.0,0.0,1.0,0.0,0.0,0.0,1.0,-0.818816967773,-7.65186850586,-8.08282480469,1.0,0.0,0.0,0.0,1.0,0.0,0.0,0.0,1.0
1463563959156719352,530,1463563958535883253,,39.6873512268,-8.44481277466,-120.567489624,0.0100990002975,1.0,0.0,0.0,0.0,1.0,0.0,0.0,0.0,1.0,-8.90243911743,-8.35365867615,2.92682933807,1.0,0.0,0.0,0.0,1.0,0.0,0.0,0.0,1.0,-0.339976635742,-7.44117875977,-7.80509741211,1.0,0.0,0.0,0.0,1.0,0.0,0.0,0.0,1.0
1463563959156765912,531,1463563958546115426,,39.5722084045,-8.54565811157,-120.512161255,0.0101969996467,1.0,0.0,0.0,0.0,1.0,0.0,0.0,0.0,1.0,-12.5,-9.32926845551,1.8902438879,1.0,0.0,0.0,0.0,1.0,0.0,0.0,0.0,1.0,-0.512359155273,-7.5896192627,-7.9439611084,1.0,0.0,0.0,0.0,1.0,0.0,0.0,0.0,1.0
1463563959161462670,532,1463563958556184429,,39.4352493286,-8.66886997223,-120.469429016,0.0099950004369,1.0,0.0,0.0,0.0,1.0,0.0,0.0,0.0,1.0,-15.8536596298,-10.9756097794,1.8902438879,1.0,0.0,0.0,0.0,1.0,0.0,0.0,0.0,1.0,-0.742202514648,-7.49385119629,-7.65665690918,1.0,0.0,0.0,0.0,1.0,0.0,0.0,0.0,1.0
1463563959161962646,533,1463563958566244110,,39.2443008423,-8.78105831146,-120.42804718,0.0100969998166,1.0,0.0,0.0,0.0,1.0,0.0,0.0,0.0,1.0,-20.6707324982,-10.3658542633,1.03658533096,1.0,0.0,0.0,0.0,1.0,0.0,0.0,0.0,1.0,-0.756567724609,-7.69017573242,-8.01099875488,1.0,0.0,0.0,0.0,1.0,0.0,0.0,0.0,1.0
1463563959162017331,534,1463563958576348736,,38.9998245239,-8.89955997467,-120.380485535,0.010111999698,1.0,0.0,0.0,0.0,1.0,0.0,0.0,0.0,1.0,-25.975610733,-11.0365858078,2.31707310677,1.0,0.0,0.0,0.0,1.0,0.0,0.0,0.0,1.0,-0.622492431641,-7.47469758301,-7.80030900879,1.0,0.0,0.0,0.0,1.0,0.0,0.0,0.0,1.0
1463563959162057902,535,1463563958586496434,,38.695980072,-9.01266479492,-120.33140564,0.0101199997589,1.0,0.0,0.0,0.0,1.0,0.0,0.0,0.0,1.0,-30.8536605835,-10.1829271317,1.52439022064,1.0,0.0,0.0,0.0,1.0,0.0,0.0,0.0,1.0,-0.799663354492,-7.5896192627,-8.25999572754,1.0,0.0,0.0,0.0,1.0,0.0,0.0,0.0,1.0
1463563959162097067,536,1463563958596589394,,38.356502533,-9.13189411163,-120.285575867,0.0100899999961,1.0,0.0,0.0,0.0,1.0,0.0,0.0,0.0,1.0,-36.0365867615,-10.7926826477,1.8292683363,1.0,0.0,0.0,0.0,1.0,0.0,0.0,0.0,1.0,-0.804451757813,-7.62792648926,-7.9439611084,1.0,0.0,0.0,0.0,1.0,0.0,0.0,0.0,1.0
1463563959162133940,537,1463563958606678761,,37.9549026489,-9.24089241028,-120.23639679,0.0101349996403,1.0,0.0,0.0,0.0,1.0,0.0,0.0,0.0,1.0,-40.7317085266,-9.69512176514,0.975609779358,1.0,0.0,0.0,0.0,1.0,0.0,0.0,0.0,1.0,-0.91458503418,-7.51300480957,-8.2743609375,1.0,0.0,0.0,0.0,1.0,0.0,0.0,0.0,1.0
1463563959164335503,538,1463563958616860155,,37.5115127563,-9.34218120575,-120.189109802,0.0101849995553,1.0,0.0,0.0,0.0,1.0,0.0,0.0,0.0,1.0,-44.0853652954,-9.5731716156,0.365853667259,1.0,0.0,0.0,0.0,1.0,0.0,0.0,0.0,1.0,-0.847547387695,-7.11077893066,-8.11155522461,1.0,0.0,0.0,0.0,1.0,0.0,0.0,0.0,1.0
1463563959164606116,539,1463563958626898952,,37.0449638367,-9.41849994659,-120.1508255,0.00998899992555,1.0,0.0,0.0,0.0,1.0,0.0,0.0,0.0,1.0,-46.5243911743,-8.10975551605,-2.07317066193,1.0,0.0,0.0,0.0,1.0,0.0,0.0,0.0,1.0,-0.972045874023,-7.15387456055,-8.5520889146,1.0,0.0,0.0,0.0,1.0,0.0,0.0,0.0,1.0
1463563959165986103,540,1463563958636899521,,36.5528259277,-9.48237037659,-120.120857239,0.0100889997557,1.0,0.0,0.0,0.0,1.0,0.0,0.0,0.0,1.0,-49.3292694092,-8.29268264771,-2.98780488968,1.0,0.0,0.0,0.0,1.0,0.0,0.0,0.0,1.0,-0.804451757813,-7.0964137207,-8.44195446919,1.0,0.0,0.0,0.0,1.0,0.0,0.0,0.0,1.0
1463563959167491553,541,1463563958647051854,,36.031463623,-9.52897834778,-120.101081848,0.0100999996066,1.0,0.0,0.0,0.0,1.0,0.0,0.0,0.0,1.0,-52.1951255798,-7.19512224197,-5.18292713165,1.0,0.0,0.0,0.0,1.0,0.0,0.0,0.0,1.0,-0.928950244141,-7.11077893066,-8.65264538433,1.0,0.0,0.0,0.0,1.0,0.0,0.0,0.0,1.0
1463563959168920808,542,1463563958657093514,,35.4823303223,-9.56598854065,-120.089126587,0.0100899999961,1.0,0.0,0.0,0.0,1.0,0.0,0.0,0.0,1.0,-53.7804908752,-7.25609779358,-6.46341466904,1.0,0.0,0.0,0.0,1.0,0.0,0.0,0.0,1.0,-0.861912597656,-6.56011254883,-8.54730051128,1.0,0.0,0.0,0.0,1.0,0.0,0.0,0.0,1.0
1463563959170879622,543,1463563958667254232,,34.9314079285,-9.57859516144,-120.085426331,0.0101169999689,1.0,0.0,0.0,0.0,1.0,0.0,0.0,0.0,1.0,-53.9634170532,-5.42682933807,-8.84146404266,1.0,0.0,0.0,0.0,1.0,0.0,0.0,0.0,1.0,-0.976834277344,-6.61757338867,-8.79150849609,1.0,0.0,0.0,0.0,1.0,0.0,0.0,0.0,1.0
1463563959173478406,544,1463563958677388857,,34.3937454224,-9.60116291046,-120.083984375,0.010106000118,1.0,0.0,0.0,0.0,1.0,0.0,0.0,0.0,1.0,-54.390247345,-5.0,-9.14634132385,1.0,0.0,0.0,0.0,1.0,0.0,0.0,0.0,1.0,-1.25935007324,-6.70855305176,-8.5520889146,1.0,0.0,0.0,0.0,1.0,0.0,0.0,0.0,1.0
1463563959173847764,545,1463563958687353907,,33.8315505981,-9.58372020721,-120.076057434,0.0100710000843,1.0,0.0,0.0,0.0,1.0,0.0,0.0,0.0,1.0,-57.1951217651,-1.8902438879,-10.4878053665,1.0,0.0,0.0,0.0,1.0,0.0,0.0,0.0,1.0,-1.14921679688,-6.72770666504,-8.65264538433,1.0,0.0,0.0,0.0,1.0,0.0,0.0,0.0,1.0
1463563959174154989,546,1463563958697567279,,33.2423706055,-9.55561065674,-120.059242249,0.0101140001789,1.0,0.0,0.0,0.0,1.0,0.0,0.0,0.0,1.0,-59.390247345,-1.03658533096,-10.0609760284,1.0,0.0,0.0,0.0,1.0,0.0,0.0,0.0,1.0,-1.00077629395,-6.39730683594,-8.42758925923,1.0,0.0,0.0,0.0,1.0,0.0,0.0,0.0,1.0
1463563959174546585,547,1463563958707640240,,32.6440582275,-9.50320720673,-120.04662323,0.0100859999657,1.0,0.0,0.0,0.0,1.0,0.0,0.0,0.0,1.0,-62.5609779358,0.243902444839,-10.9756097794,1.0,0.0,0.0,0.0,1.0,0.0,0.0,0.0,1.0,-0.876277807617,-6.94318481445,-8.66701059429,1.0,0.0,0.0,0.0,1.0,0.0,0.0,0.0,1.0
1463563959174601218,548,1463563958717688255,,31.988161087,-9.44885730743,-120.033416748,0.0101049998775,1.0,0.0,0.0,0.0,1.0,0.0,0.0,0.0,1.0,-67.5,0.243902444839,-11.0365858078,1.0,0.0,0.0,0.0,1.0,0.0,0.0,0.0,1.0,-0.823605371094,-6.59363137207,-8.61433815776,1.0,0.0,0.0,0.0,1.0,0.0,0.0,0.0,1.0
1463563959174645903,549,1463563958727850483,,31.2822418213,-9.37895488739,-120.029632568,0.0101269995794,1.0,0.0,0.0,0.0,1.0,0.0,0.0,0.0,1.0,-71.0365905762,0.426829278469,-12.5,1.0,0.0,0.0,0.0,1.0,0.0,0.0,0.0,1.0,-0.718260498047,-6.38294162598,-9.01177504883,1.0,0.0,0.0,0.0,1.0,0.0,0.0,0.0,1.0
1463563959176087293,550,1463563958737944381,,30.5537109375,-9.30306434631,-120.042098999,0.0101070003584,1.0,0.0,0.0,0.0,1.0,0.0,0.0,0.0,1.0,-73.7804870605,0.0609756112099,-14.0853662491,1.0,0.0,0.0,0.0,1.0,0.0,0.0,0.0,1.0,-0.670376464844,-6.13873305664,-8.8633345459,1.0,0.0,0.0,0.0,1.0,0.0,0.0,0.0,1.0
1463563959178591603,551,1463563958748063434,,29.7993793488,-9.22827148438,-120.06048584,0.0100779999048,1.0,0.0,0.0,0.0,1.0,0.0,0.0,0.0,1.0,-75.5487823486,-0.0609756112099,-14.8780498505,1.0,0.0,0.0,0.0,1.0,0.0,0.0,0.0,1.0,-0.742202514648,-5.95198532715,-9.2176763916,1.0,0.0,0.0,0.0,1.0,0.0,0.0,0.0,1.0
1463563959178936847,552,1463563958758218788,,29.0396881104,-9.15244865417,-120.090904236,0.0101319998503,1.0,0.0,0.0,0.0,1.0,0.0,0.0,0.0,1.0,-76.7073135376,0.0609756112099,-16.0975608826,1.0,0.0,0.0,0.0,1.0,0.0,0.0,0.0,1.0,-0.833182177734,-5.86100566406,-9.04050546875,1.0,0.0,0.0,0.0,1.0,0.0,0.0,0.0,1.0
1463563959180685619,553,1463563958768309040,,28.2607479095,-9.07876968384,-120.120674133,0.0100769996643,1.0,0.0,0.0,0.0,1.0,0.0,0.0,0.0,1.0,-77.865852356,1.03658533096,-16.7682933807,1.0,0.0,0.0,0.0,1.0,0.0,0.0,0.0,1.0,-1.0534486574,-5.44920297852,-9.06444748535,1.0,0.0,0.0,0.0,1.0,0.0,0.0,0.0,1.0
1463563959182279606,554,1463563958778433666,,27.4752693176,-8.99712085724,-120.14616394,0.0101070003584,1.0,0.0,0.0,0.0,1.0,0.0,0.0,0.0,1.0,-78.9634170532,2.07317066193,-16.6463413239,1.0,0.0,0.0,0.0,1.0,0.0,0.0,0.0,1.0,-1.04387185076,-5.42047255859,-9.02135185547,1.0,0.0,0.0,0.0,1.0,0.0,0.0,0.0,1.0
1463563959182656255,555,1463563958788480743,,26.6967639923,-8.88574790955,-120.170143127,0.0100919995457,1.0,0.0,0.0,0.0,1.0,0.0,0.0,0.0,1.0,-80.792678833,3.17073178291,-16.5243911743,1.0,0.0,0.0,0.0,1.0,0.0,0.0,0.0,1.0,-0.646434448242,-5.7748144043,-8.99740983887,1.0,0.0,0.0,0.0,1.0,0.0,0.0,0.0,1.0
1463563959184589133,556,1463563958798669845,,25.8597259521,-8.78242206573,-120.195594788,0.0101960003376,1.0,0.0,0.0,0.0,1.0,0.0,0.0,0.0,1.0,-82.9878005981,2.56097555161,-16.7682933807,1.0,0.0,0.0,0.0,1.0,0.0,0.0,0.0,1.0,-0.703895288086,-5.10922634277,-9.193734375,1.0,0.0,0.0,0.0,1.0,0.0,0.0,0.0,1.0
1463563959185035049,557,1463563958808541566,,25.0278263092,-8.68183135986,-120.218215942,0.0099950004369,1.0,0.0,0.0,0.0,1.0,0.0,0.0,0.0,1.0,-83.1097564697,1.8902438879,-16.2804889679,1.0,0.0,0.0,0.0,1.0,0.0,0.0,0.0,1.0,-0.541089611728,-4.81234562918,-9.35653950337,1.0,0.0,0.0,0.0,1.0,0.0,0.0,0.0,1.0
1463563959185085724,558,1463563958822139725,,24.1958904266,-8.59346961975,-120.237976074,0.0101159997284,1.0,0.0,0.0,0.0,1.0,0.0,0.0,0.0,1.0,-82.6829299927,2.68292689323,-16.158536911,1.0,0.0,0.0,0.0,1.0,0.0,0.0,0.0,1.0,-0.881066210937,-4.73094218821,-9.27992563477,1.0,0.0,0.0,0.0,1.0,0.0,0.0,0.0,1.0
1463563959185332014,559,1463563958828993620,,23.3616333008,-8.50082683563,-120.261909485,0.0101520000026,1.0,0.0,0.0,0.0,1.0,0.0,0.0,0.0,1.0,-83.2317123413,2.5,-16.341463089,1.0,0.0,0.0,0.0,1.0,0.0,0.0,0.0,1.0,-0.775721337891,-4.72136538157,-9.37090471333,1.0,0.0,0.0,0.0,1.0,0.0,0.0,0.0,1.0
1463563959185375606,560,1463563958838971846,,22.5191555023,-8.39067459106,-120.277816772,0.0100560002029,1.0,0.0,0.0,0.0,1.0,0.0,0.0,0.0,1.0,-85.2439041138,3.41463422775,-15.7317075729,1.0,0.0,0.0,0.0,1.0,0.0,0.0,0.0,1.0,-0.517147558594,-4.61123239746,-9.27513723145,1.0,0.0,0.0,0.0,1.0,0.0,0.0,0.0,1.0
1463563959187072505,561,1463563958849162459,,21.6598148346,-8.30501365662,-120.287269592,0.0101140001789,1.0,0.0,0.0,0.0,1.0,0.0,0.0,0.0,1.0,-85.8536605835,1.95121955872,-14.4512205124,1.0,0.0,0.0,0.0,1.0,0.0,0.0,0.0,1.0,-0.60812722168,-4.35265861816,-9.2942902602,1.0,0.0,0.0,0.0,1.0,0.0,0.0,0.0,1.0
1463563959189723214,562,1463563958859184849,,20.8022117615,-8.2255525589,-120.299697876,0.0100819999352,1.0,0.0,0.0,0.0,1.0,0.0,0.0,0.0,1.0,-87.9268341064,2.5,-14.6341466904,1.0,0.0,0.0,0.0,1.0,0.0,0.0,0.0,1.0,-0.814028564453,-4.61123239746,-9.36611631001,1.0,0.0,0.0,0.0,1.0,0.0,0.0,0.0,1.0
1463563959190093717,563,1463563958869290466,,19.9027633667,-8.14974689484,-120.309112549,0.0101100001484,1.0,0.0,0.0,0.0,1.0,0.0,0.0,0.0,1.0,-89.7560958862,2.01219511032,-14.3902444839,1.0,0.0,0.0,0.0,1.0,0.0,0.0,0.0,1.0,-0.756567724609,-4.04141240234,-9.39963513325,1.0,0.0,0.0,0.0,1.0,0.0,0.0,0.0,1.0
1463563959190428597,564,1463563958879504514,,18.9909114838,-8.06970977783,-120.32207489,0.0101039996371,1.0,0.0,0.0,0.0,1.0,0.0,0.0,0.0,1.0,-90.9756164551,2.62195134163,-14.9390249252,1.0,0.0,0.0,0.0,1.0,0.0,0.0,0.0,1.0,-0.809240161133,-3.90733710937,-9.55286520855,1.0,0.0,0.0,0.0,1.0,0.0,0.0,0.0,1.0
1463563959190825557,565,1463563958889882930,,18.0743503571,-7.99407100677,-120.342140198,0.0101110003889,1.0,0.0,0.0,0.0,1.0,0.0,0.0,0.0,1.0,-91.2804870605,2.19512200356,-15.4878053665,1.0,0.0,0.0,0.0,1.0,0.0,0.0,0.0,1.0,-0.833182177734,-3.73016618652,-9.65342167827,1.0,0.0,0.0,0.0,1.0,0.0,0.0,0.0,1.0
1463563959192555268,566,1463563958899754026,,17.153881073,-7.91599941254,-120.378318787,0.0100750001147,1.0,0.0,0.0,0.0,1.0,0.0,0.0,0.0,1.0,-90.1219558716,2.13414645195,-17.3780498505,1.0,0.0,0.0,0.0,1.0,0.0,0.0,0.0,1.0,-0.857124194336,-3.19386501465,-9.79228479004,1.0,0.0,0.0,0.0,1.0,0.0,0.0,0.0,1.0
1463563959194023896,567,1463563958909962919,,16.1561489105,-7.80719852448,-120.411766052,0.010106000118,1.0,0.0,0.0,0.0,1.0,0.0,0.0,0.0,1.0,-86.9512252808,2.98780488968,-18.7804889679,1.0,0.0,0.0,0.0,1.0,0.0,0.0,0.0,1.0,-0.392649072266,-0.933738647461,-8.38928203267,1.0,0.0,0.0,0.0,1.0,0.0,0.0,0.0,1.0
1463563959194383254,568,1463563958919884898,,15.2690439224,-7.73742723465,-120.462562561,0.0101209999993,1.0,0.0,0.0,0.0,1.0,0.0,0.0,0.0,1.0,-85.8536605835,3.29268312454,-19.1463432312,1.0,0.0,0.0,0.0,1.0,0.0,0.0,0.0,1.0,-1.20188930646,-2.62404501953,-9.5432884019,1.0,0.0,0.0,0.0,1.0,0.0,0.0,0.0,1.0
1463563959194733030,569,1463563958929940933,,14.3721075058,-7.63002490997,-120.515525818,0.0100809996948,1.0,0.0,0.0,0.0,1.0,0.0,0.0,0.0,1.0,-88.1707305908,4.51219558716,-19.4512195587,1.0,0.0,0.0,0.0,1.0,0.0,0.0,0.0,1.0,-0.785298144531,-2.82515795898,-10.2040874756,1.0,0.0,0.0,0.0,1.0,0.0,0.0,0.0,1.0
1463563959195025151,570,1463563958940355441,,13.5024137497,-7.51981639862,-120.569320679,0.0100990002975,1.0,0.0,0.0,0.0,1.0,0.0,0.0,0.0,1.0,-88.0487823486,3.7804877758,-18.841463089,1.0,0.0,0.0,0.0,1.0,0.0,0.0,0.0,1.0,-0.526724328702,-3.09330854492,-9.89284125977,1.0,0.0,0.0,0.0,1.0,0.0,0.0,0.0,1.0
1463563959196373577,571,1463563958950267056,,12.592455864,-7.4196562767,-120.600746155,0.0100849997252,1.0,0.0,0.0,0.0,1.0,0.0,0.0,0.0,1.0,-92.6219482422,2.74390244484,-16.158536911,1.0,0.0,0.0,0.0,1.0,0.0,0.0,0.0,1.0,-0.359130249023,-2.95444484863,-9.50976957866,1.0,0.0,0.0,0.0,1.0,0.0,0.0,0.0,1.0
1463563959196699083,572,1463563958960377359,,11.6253404617,-7.32751274109,-120.623085022,0.0101150004193,1.0,0.0,0.0,0.0,1.0,0.0,0.0,0.0,1.0,-97.8048782349,0.548780500889,-14.6951217651,1.0,0.0,0.0,0.0,1.0,0.0,0.0,0.0,1.0,-0.0478840332031,-2.85867678223,-9.80665,1.0,0.0,0.0,0.0,1.0,0.0,0.0,0.0,1.0
1463563959197046931,573,1463563958970469642,,10.5751094818,-7.27199077606,-120.627105713,0.010106000118,1.0,0.0,0.0,0.0,1.0,0.0,0.0,0.0,1.0,-104.146339417,-1.76829278469,-12.6219520569,1.0,0.0,0.0,0.0,1.0,0.0,0.0,0.0,1.0,-0.191536132812,-2.30322199707,-9.59117243511,1.0,0.0,0.0,0.0,1.0,0.0,0.0,0.0,1.0
1463563959200714467,574,1463563958980641922,,9.4680929184,-7.24609231949,-120.630241394,0.0101009998471,1.0,0.0,0.0,0.0,1.0,0.0,0.0,0.0,1.0,-109.939025879,-3.71951246262,-12.1951217651,1.0,0.0,0.0,0.0,1.0,0.0,0.0,0.0,1.0,-0.354341845703,-2.19787712402,-9.8545340332,1.0,0.0,0.0,0.0,1.0,0.0,0.0,0.0,1.0
1463563959202407043,575,1463563958990986173,,8.31104755402,-7.24371623993,-120.616256714,0.0101039996371,1.0,0.0,0.0,0.0,1.0,0.0,0.0,0.0,1.0,-114.451217651,-5.12195110321,-10.3658542633,1.0,0.0,0.0,0.0,1.0,0.0,0.0,0.0,1.0,-0.440533105469,-1.85790048828,-9.33259748677,1.0,0.0,0.0,0.0,1.0,0.0,0.0,0.0,1.0
1463563959204765942,576,1463563959000826073,,7.10235691071,-7.2678027153,-120.595046997,0.0101049998775,1.0,0.0,0.0,0.0,1.0,0.0,0.0,0.0,1.0,-119.573173523,-5.97560977936,-9.63414573669,1.0,0.0,0.0,0.0,1.0,0.0,0.0,0.0,1.0,-0.751779321289,-1.73819040527,-9.65342167827,1.0,0.0,0.0,0.0,1.0,0.0,0.0,0.0,1.0
1463563959205116082,577,1463563959010824142,,5.83738279343,-7.31673383713,-120.552726746,0.0100880004466,1.0,0.0,0.0,0.0,1.0,0.0,0.0,0.0,1.0,-125.853660583,-6.21951246262,-7.56097555161,1.0,0.0,0.0,0.0,1.0,0.0,0.0,0.0,1.0,-1.06781401349,-1.59932670898,-9.27992563477,1.0,0.0,0.0,0.0,1.0,0.0,0.0,0.0,1.0
1463563959205389038,578,1463563959020972935,,4.52088356018,-7.33364391327,-120.513076782,0.0101239997894,1.0,0.0,0.0,0.0,1.0,0.0,0.0,0.0,1.0,-126.89024353,-3.10975623131,-8.71951198578,1.0,0.0,0.0,0.0,1.0,0.0,0.0,0.0,1.0,-1.13006318359,-0.804451757813,-9.65342167827,1.0,0.0,0.0,0.0,1.0,0.0,0.0,0.0,1.0
1463563959206720225,579,1463563959030985744,,3.19264340401,-7.35381364822,-120.472801208,0.0101460004225,1.0,0.0,0.0,0.0,1.0,0.0,0.0,0.0,1.0,-126.768295288,-4.02439022064,-8.78048801422,1.0,0.0,0.0,0.0,1.0,0.0,0.0,0.0,1.0,-1.03908344744,-0.407014282227,-9.61990285503,1.0,0.0,0.0,0.0,1.0,0.0,0.0,0.0,1.0
1463563959210725401,580,1463563959041314060,,1.86778199673,-7.33829498291,-120.456169128,0.0101129999384,1.0,0.0,0.0,0.0,1.0,0.0,0.0,0.0,1.0,-125.792686462,-0.975609779358,-11.4634151459,1.0,0.0,0.0,0.0,1.0,0.0,0.0,0.0,1.0,-0.986411083984,0.0526724365234,-9.55286520855,1.0,0.0,0.0,0.0,1.0,0.0,0.0,0.0,1.0
1463563959211991071,581,1463563959051035216,,0.572300851345,-7.3375377655,-120.452758789,0.0100140003487,1.0,0.0,0.0,0.0,1.0,0.0,0.0,0.0,1.0,-123.292678833,-2.01219511032,-12.8658542633,1.0,0.0,0.0,0.0,1.0,0.0,0.0,0.0,1.0,-1.07260241682,0.45489831543,-9.61511445171,1.0,0.0,0.0,0.0,1.0,0.0,0.0,0.0,1.0
1463563959212331159,582,1463563959061140365,,-0.695521056652,-7.30327224731,-120.465263367,0.0100889997557,1.0,0.0,0.0,0.0,1.0,0.0,0.0,0.0,1.0,-121.036590576,0.304878056049,-14.2682924271,1.0,0.0,0.0,0.0,1.0,0.0,0.0,0.0,1.0,-0.905008227539,0.45968671875,-9.66778688823,1.0,0.0,0.0,0.0,1.0,0.0,0.0,0.0,1.0
1463563959212639113,583,1463563959071237546,,-1.94185197353,-7.28748703003,-120.475296021,0.0101209999993,1.0,0.0,0.0,0.0,1.0,0.0,0.0,0.0,1.0,-122.682922363,0.0,-13.4756097794,1.0,0.0,0.0,0.0,1.0,0.0,0.0,0.0,1.0,-1.17794714373,-0.0526724365234,-9.81143840332,1.0,0.0,0.0,0.0,1.0,0.0,0.0,0.0,1.0
1463563959212944776,584,1463563959081397692,,-3.18054223061,-7.24459409714,-120.486351013,0.0101020000875,1.0,0.0,0.0,0.0,1.0,0.0,0.0,0.0,1.0,-121.89025116,2.5,-13.4756097794,1.0,0.0,0.0,0.0,1.0,0.0,0.0,0.0,1.0,-1.13485158691,0.210689746094,-9.77791958008,1.0,0.0,0.0,0.0,1.0,0.0,0.0,0.0,1.0
1463563959213240647,585,1463563959091589243,,-4.43539810181,-7.20846033096,-120.504127502,0.010111999698,1.0,0.0,0.0,0.0,1.0,0.0,0.0,0.0,1.0,-124.085365295,1.70731711388,-14.0243902206,1.0,0.0,0.0,0.0,1.0,0.0,0.0,0.0,1.0,-1.05823706072,0.301669427446,-9.43794235981,1.0,0.0,0.0,0.0,1.0,0.0,0.0,0.0,1.0
1463563959213560372,586,1463563959101585439,,-5.69576692581,-7.15875291824,-120.549308777,0.0100919995457,1.0,0.0,0.0,0.0,1.0,0.0,0.0,0.0,1.0,-126.341461182,2.98780488968,-16.4024391174,1.0,0.0,0.0,0.0,1.0,0.0,0.0,0.0,1.0,-1.02950671387,0.330399829102,-9.74918916016,1.0,0.0,0.0,0.0,1.0,0.0,0.0,0.0,1.0
1463563959213855722,587,1463563959111725482,,-6.98474407196,-7.12555503845,-120.603736877,0.0100889997557,1.0,0.0,0.0,0.0,1.0,0.0,0.0,0.0,1.0,-128.658538818,1.95121955872,-17.4390239716,1.0,0.0,0.0,0.0,1.0,0.0,0.0,0.0,1.0,-1.07260241682,0.651222851562,-9.56723041851,1.0,0.0,0.0,0.0,1.0,0.0,0.0,0.0,1.0
1463563959216513149,588,1463563959121763811,,-8.32032871246,-7.0946393013,-120.677459717,0.010106000118,1.0,0.0,0.0,0.0,1.0,0.0,0.0,0.0,1.0,-131.036590576,3.35365867615,-19.3902435303,1.0,0.0,0.0,0.0,1.0,0.0,0.0,0.0,1.0,-1.25935007324,1.23061965332,-9.34217429341,1.0,0.0,0.0,0.0,1.0,0.0,0.0,0.0,1.0
1463563959216804594,589,1463563959131857034,,-9.65340518951,-7.07756900787,-120.773429871,0.0101009998471,1.0,0.0,0.0,0.0,1.0,0.0,0.0,0.0,1.0,-131.707321167,2.86585378647,-21.5243911743,1.0,0.0,0.0,0.0,1.0,0.0,0.0,0.0,1.0,-1.35990654297,1.39342536621,-9.61511445171,1.0,0.0,0.0,0.0,1.0,0.0,0.0,0.0,1.0
1463563959217135516,590,1463563959142144882,,-11.0001392365,-7.04804515839,-120.903701782,0.0101150004193,1.0,0.0,0.0,0.0,1.0,0.0,0.0,0.0,1.0,-132.317077637,5.12195110321,-24.5731716156,1.0,0.0,0.0,0.0,1.0,0.0,0.0,0.0,1.0,-1.37427175293,1.75734401855,-9.40442353657,1.0,0.0,0.0,0.0,1.0,0.0,0.0,0.0,1.0
1463563959219545142,591,1463563959152005043,,-12.3477249146,-7.02349948883,-121.045181274,0.0100889997557,1.0,0.0,0.0,0.0,1.0,0.0,0.0,0.0,1.0,-130.182922363,4.51219558716,-26.0975627899,1.0,0.0,0.0,0.0,1.0,0.0,0.0,0.0,1.0,-1.25935007324,2.46123930664,-9.37569311665,1.0,0.0,0.0,0.0,1.0,0.0,0.0,0.0,1.0
1463563959219989027,592,1463563959162536578,,-13.6606721878,-7.00981521606,-121.229522705,0.0101030003279,1.0,0.0,0.0,0.0,1.0,0.0,0.0,0.0,1.0,-126.158538818,5.36585378647,-30.2439022064,1.0,0.0,0.0,0.0,1.0,0.0,0.0,0.0,1.0,-1.43173259277,2.97359846191,-9.72045874023,1.0,0.0,0.0,0.0,1.0,0.0,0.0,0.0,1.0
1463563959221646710,593,1463563959172235183,,-14.8715457916,-6.99760007858,-121.437591553,0.0101009998471,1.0,0.0,0.0,0.0,1.0,0.0,0.0,0.0,1.0,-118.658546448,4.75609779358,-32.4390220642,1.0,0.0,0.0,0.0,1.0,0.0,0.0,0.0,1.0,-1.19231249982,2.8299463623,-9.90241806641,1.0,0.0,0.0,0.0,1.0,0.0,0.0,0.0,1.0
1463563959222025077,594,1463563959182346061,,-16.0187492371,-6.99295854568,-121.67893219,0.0100959995762,1.0,0.0,0.0,0.0,1.0,0.0,0.0,0.0,1.0,-110.67073822,4.93902444839,-36.0365867615,1.0,0.0,0.0,0.0,1.0,0.0,0.0,0.0,1.0,-1.12527478027,3.48116921387,-9.91199487305,1.0,0.0,0.0,0.0,1.0,0.0,0.0,0.0,1.0
1463563959222311939,595,1463563959192556986,,-17.0500793457,-6.99748754501,-121.929985046,0.0100919995457,1.0,0.0,0.0,0.0,1.0,0.0,0.0,0.0,1.0,-99.0853652954,3.71951246262,-37.4390220642,1.0,0.0,0.0,0.0,1.0,0.0,0.0,0.0,1.0,-0.928950244141,3.78283862305,-9.97903251953,1.0,0.0,0.0,0.0,1.0,0.0,0.0,0.0,1.0
1463563959223819941,596,1463563959202557349,,-17.9731807709,-7.0093870163,-122.189338684,0.0101049998775,1.0,0.0,0.0,0.0,1.0,0.0,0.0,0.0,1.0,-89.3902435303,3.71951246262,-38.1707305908,1.0,0.0,0.0,0.0,1.0,0.0,0.0,0.0,1.0,-0.943315454102,3.76368500977,-9.95030209961,1.0,0.0,0.0,0.0,1.0,0.0,0.0,0.0,1.0
1463563960034566227,597,1463563959212588074,,-18.7568740845,-7.03533840179,-122.432952881,0.010098000057,1.0,0.0,0.0,0.0,1.0,0.0,0.0,0.0,1.0,-76.0365829468,2.31707310677,-37.0121955872,1.0,0.0,0.0,0.0,1.0,0.0,0.0,0.0,1.0,-0.976834277344,3.9121255127,-10.1609918457,1.0,0.0,0.0,0.0,1.0,0.0,0.0,0.0,1.0
1463563960034884702,598,1463563959222750928,,-19.4202651978,-7.0576171875,-122.667579651,0.0101100001484,1.0,0.0,0.0,0.0,1.0,0.0,0.0,0.0,1.0,-64.3902435303,2.37804889679,-36.0365867615,1.0,0.0,0.0,0.0,1.0,0.0,0.0,0.0,1.0,-0.92416184082,3.96479794922,-10.1274730225,1.0,0.0,0.0,0.0,1.0,0.0,0.0,0.0,1.0
1463563960035212447,599,1463563959232834828,,-19.9732131958,-7.0875916481,-122.863868713,0.0100919995457,1.0,0.0,0.0,0.0,1.0,0.0,0.0,0.0,1.0,-52.4390258789,0.609756112099,-32.865852356,1.0,0.0,0.0,0.0,1.0,0.0,0.0,0.0,1.0,-0.9193734375,4.22815983957,-10.0939541992,1.0,0.0,0.0,0.0,1.0,0.0,0.0,0.0,1.0
1463563960035517485,600,1463563959242916020,,-20.4278068542,-7.08372545242,-123.015846252,0.0100919995457,1.0,0.0,0.0,0.0,1.0,0.0,0.0,0.0,1.0,-42.317073822,1.70731711388,-27.8658542633,1.0,0.0,0.0,0.0,1.0,0.0,0.0,0.0,1.0,-0.756567724609,4.18506420969,-9.80665,1.0,0.0,0.0,0.0,1.0,0.0,0.0,0.0,1.0
1463563960035822106,601,1463563959253043303,,-20.7706737518,-7.06221294403,-123.103546143,0.0101180002093,1.0,0.0,0.0,0.0,1.0,0.0,0.0,0.0,1.0,-31.8292694092,0.487804889679,-21.4024391174,1.0,0.0,0.0,0.0,1.0,0.0,0.0,0.0,1.0,-0.60812722168,3.9121255127,-9.64863327495,1.0,0.0,0.0,0.0,1.0,0.0,0.0,0.0,1.0
1463563960036058449,602,1463563959263118506,,-21.0367088318,-7.01254844666,-123.133728027,0.010106000118,1.0,0.0,0.0,0.0,1.0,0.0,0.0,0.0,1.0,-23.2317085266,0.0609756112099,-15.6097564697,1.0,0.0,0.0,0.0,1.0,0.0,0.0,0.0,1.0,-0.387860668945,4.0078935791,-9.55765361187,1.0,0.0,0.0,0.0,1.0,0.0,0.0,0.0,1.0
1463563960036317968,603,1463563959273303182,,-21.213224411,-6.95858764648,-123.090248108,0.0100919995457,1.0,0.0,0.0,0.0,1.0,0.0,0.0,0.0,1.0,-14.7560987473,-1.58536589146,-8.35365867615,1.0,0.0,0.0,0.0,1.0,0.0,0.0,0.0,1.0,-0.507570751953,3.91691391602,-9.82101520996,1.0,0.0,0.0,0.0,1.0,0.0,0.0,0.0,1.0
1463563960036733001,604,1463563959283346719,,-21.312953949,-6.89275169373,-122.998550415,0.0101049998775,1.0,0.0,0.0,0.0,1.0,0.0,0.0,0.0,1.0,-6.70731735229,-1.15853655338,-3.10975623131,1.0,0.0,0.0,0.0,1.0,0.0,0.0,0.0,1.0,-0.718260498047,3.95522114258,-9.90241806641,1.0,0.0,0.0,0.0,1.0,0.0,0.0,0.0,1.0
1463563960037016737,605,1463563959293472492,,-21.3322715759,-6.81392240524,-122.846694946,0.0101209999993,1.0,0.0,0.0,0.0,1.0,0.0,0.0,0.0,1.0,1.52439022064,-1.03658533096,3.29268312454,1.0,0.0,0.0,0.0,1.0,0.0,0.0,0.0,1.0,-0.900219824219,3.77326181641,-9.61032604839,1.0,0.0,0.0,0.0,1.0,0.0,0.0,0.0,1.0
1463563960037296776,606,1463563959303569360,,-21.2975330353,-6.70430374146,-122.656341553,0.0100809996948,1.0,0.0,0.0,0.0,1.0,0.0,0.0,0.0,1.0,8.90243911743,0.487804889679,7.80487823486,1.0,0.0,0.0,0.0,1.0,0.0,0.0,0.0,1.0,-0.885854614258,4.07014282227,-9.55286520855,1.0,0.0,0.0,0.0,1.0,0.0,0.0,0.0,1.0
1463563960037564680,607,1463563959313718986,,-21.1800041199,-6.58488941193,-122.420478821,0.0101049998775,1.0,0.0,0.0,0.0,1.0,0.0,0.0,0.0,1.0,16.2804889679,0.609756112099,12.7439022064,1.0,0.0,0.0,0.0,1.0,0.0,0.0,0.0,1.0,-1.02950671387,3.80678063965,-9.55286520855,1.0,0.0,0.0,0.0,1.0,0.0,0.0,0.0,1.0
1463563960037843521,608,1463563959323788252,,-20.9913253784,-6.42855167389,-122.156951904,0.010106000118,1.0,0.0,0.0,0.0,1.0,0.0,0.0,0.0,1.0,22.1341457367,2.01219511032,16.341463089,1.0,0.0,0.0,0.0,1.0,0.0,0.0,0.0,1.0,-0.790086547852,3.47638081055,-9.48103915874,1.0,0.0,0.0,0.0,1.0,0.0,0.0,0.0,1.0
1463563960038130591,609,1463563959333879599,,-20.7574996948,-6.27508401871,-121.86782074,0.010095000267,1.0,0.0,0.0,0.0,1.0,0.0,0.0,0.0,1.0,26.158536911,2.13414645195,19.1463432312,1.0,0.0,0.0,0.0,1.0,0.0,0.0,0.0,1.0,-1.01992990723,3.4189199707,-9.79228479004,1.0,0.0,0.0,0.0,1.0,0.0,0.0,0.0,1.0
1463563960038411359,610,1463563959343966728,,-20.4940567017,-6.10184907913,-121.561668396,0.010108999908,1.0,0.0,0.0,0.0,1.0,0.0,0.0,0.0,1.0,30.4878044128,2.80487799644,20.9146347046,1.0,0.0,0.0,0.0,1.0,0.0,0.0,0.0,1.0,-0.833182177734,3.56736047363,-9.60553764507,1.0,0.0,0.0,0.0,1.0,0.0,0.0,0.0,1.0
1463563960038695252,611,1463563959354087814,,-20.1691036224,-5.92803382874,-121.250030518,0.0100760003552,1.0,0.0,0.0,0.0,1.0,0.0,0.0,0.0,1.0,34.4512214661,4.57317066193,22.4390239716,1.0,0.0,0.0,0.0,1.0,0.0,0.0,0.0,1.0,-1.13485158691,3.09809694824,-9.61990285503,1.0,0.0,0.0,0.0,1.0,0.0,0.0,0.0,1.0
1463563960038957115,612,1463563959364120362,,-19.817861557,-5.73604345322,-120.925247192,0.0101190004498,1.0,0.0,0.0,0.0,1.0,0.0,0.0,0.0,1.0,37.8048782349,5.60975599289,23.8414649963,1.0,0.0,0.0,0.0,1.0,0.0,0.0,0.0,1.0,-1.01992990723,3.18428820801,-9.56244201519,1.0,0.0,0.0,0.0,1.0,0.0,0.0,0.0,1.0
1463563960039238977,613,1463563959374334464,,-19.4336414337,-5.54115152359,-120.606399536,0.0100889997557,1.0,0.0,0.0,0.0,1.0,0.0,0.0,0.0,1.0,39.390247345,7.07317113876,23.9024391174,1.0,0.0,0.0,0.0,1.0,0.0,0.0,0.0,1.0,-1.11569797363,2.79163913574,-9.49061596538,1.0,0.0,0.0,0.0,1.0,0.0,0.0,0.0,1.0
1463563960039599949,614,1463563959384964640,,-19.0400161743,-5.33437108994,-120.286148071,0.0101229995489,1.0,0.0,0.0,0.0,1.0,0.0,0.0,0.0,1.0,40.7317085266,7.92682981491,24.0243911743,1.0,0.0,0.0,0.0,1.0,0.0,0.0,0.0,1.0,-0.991199487305,2.82036955566,-9.41878874653,1.0,0.0,0.0,0.0,1.0,0.0,0.0,0.0,1.0
1463563960039895612,615,1463563959397777318,,-18.6351509094,-5.1366443634,-119.981719971,0.0101110003889,1.0,0.0,0.0,0.0,1.0,0.0,0.0,0.0,1.0,42.2560958862,8.41463470459,22.3780498505,1.0,0.0,0.0,0.0,1.0,0.0,0.0,0.0,1.0,-1.0534486574,2.84909997559,-9.37569311665,1.0,0.0,0.0,0.0,1.0,0.0,0.0,0.0,1.0
1463563960040182266,616,1463563959404772249,,-18.218952179,-4.93997716904,-119.689567566,0.0100750001147,1.0,0.0,0.0,0.0,1.0,0.0,0.0,0.0,1.0,44.2682914734,8.59756088257,21.0365848541,1.0,0.0,0.0,0.0,1.0,0.0,0.0,0.0,1.0,-0.952892260742,2.96881005859,-9.43794235981,1.0,0.0,0.0,0.0,1.0,0.0,0.0,0.0,1.0
1463563960040470221,617,1463563959414862659,,-17.7611751556,-4.74739456177,-119.420288086,0.0101100001484,1.0,0.0,0.0,0.0,1.0,0.0,0.0,0.0,1.0,46.5853691101,8.96341514587,18.658536911,1.0,0.0,0.0,0.0,1.0,0.0,0.0,0.0,1.0,-0.895431420898,2.67671745605,-9.54807680523,1.0,0.0,0.0,0.0,1.0,0.0,0.0,0.0,1.0
1463563960040769842,618,1463563959424967808,,-17.2827110291,-4.5619802475,-119.162307739,0.0101159997284,1.0,0.0,0.0,0.0,1.0,0.0,0.0,0.0,1.0,48.9024391174,8.5365858078,17.134147644,1.0,0.0,0.0,0.0,1.0,0.0,0.0,0.0,1.0,-0.818816967773,2.75333190918,-9.80186159668,1.0,0.0,0.0,0.0,1.0,0.0,0.0,0.0,1.0
1463563960041090765,619,1463563959435266854,,-16.7805843353,-4.38031291962,-118.91835022,0.0101169999689,1.0,0.0,0.0,0.0,1.0,0.0,0.0,0.0,1.0,50.9756088257,8.78048801422,15.6097564697,1.0,0.0,0.0,0.0,1.0,0.0,0.0,0.0,1.0,-0.751779321289,2.58094938965,-9.5432884019,1.0,0.0,0.0,0.0,1.0,0.0,0.0,0.0,1.0
1463563960041368720,620,1463563959445493247,,-16.2486743927,-4.21119117737,-118.674804688,0.0100830001757,1.0,0.0,0.0,0.0,1.0,0.0,0.0,0.0,1.0,54.3292694092,8.04878044128,15.2439022064,1.0,0.0,0.0,0.0,1.0,0.0,0.0,0.0,1.0,-0.756567724609,2.57616098633,-9.65821008159,1.0,0.0,0.0,0.0,1.0,0.0,0.0,0.0,1.0
1463563960041636468,621,1463563959455472829,,-15.6965169907,-4.03875923157,-118.433822632,0.0100819999352,1.0,0.0,0.0,0.0,1.0,0.0,0.0,0.0,1.0,55.9756126404,7.98780536652,14.8170728683,1.0,0.0,0.0,0.0,1.0,0.0,0.0,0.0,1.0,-0.584185168546,2.38941340297,-9.50019277202,1.0,0.0,0.0,0.0,1.0,0.0,0.0,0.0,1.0
1463563960041905883,622,1463563959465396997,,-15.1293087006,-3.87925982475,-118.174797058,0.0101269995794,1.0,0.0,0.0,0.0,1.0,0.0,0.0,0.0,1.0,58.0487823486,7.37804937363,16.158536911,1.0,0.0,0.0,0.0,1.0,0.0,0.0,0.0,1.0,-0.708683691406,2.4277204834,-9.48582756206,1.0,0.0,0.0,0.0,1.0,0.0,0.0,0.0,1.0
1463563960042174360,623,1463563959477347475,,-14.5069589615,-3.72095632553,-117.89074707,0.0105039998889,1.0,0.0,0.0,0.0,1.0,0.0,0.0,0.0,1.0,61.1585350037,6.89024400711,17.3780498505,1.0,0.0,0.0,0.0,1.0,0.0,0.0,0.0,1.0,-0.718260498047,2.28406838379,-9.42357714985,1.0,0.0,0.0,0.0,1.0,0.0,0.0,0.0,1.0
1463563960042479085,624,1463563959485867907,,-13.9108734131,-3.57432937622,-117.607017517,0.00968299992383,1.0,0.0,0.0,0.0,1.0,0.0,0.0,0.0,1.0,65.0,6.0365858078,19.2073173523,1.0,0.0,0.0,0.0,1.0,0.0,0.0,0.0,1.0,-0.569819995117,2.44687409668,-9.47624958638,1.0,0.0,0.0,0.0,1.0,0.0,0.0,0.0,1.0
1463563960042762769,625,1463563959496025241,,-13.2493371964,-3.42437171936,-117.299812317,0.0101020000875,1.0,0.0,0.0,0.0,1.0,0.0,0.0,0.0,1.0,70.5487823486,5.24390268326,19.8780498505,1.0,0.0,0.0,0.0,1.0,0.0,0.0,0.0,1.0,-0.445321508789,2.6862942627,-9.66778688823,1.0,0.0,0.0,0.0,1.0,0.0,0.0,0.0,1.0
1463563960043018018,626,1463563959505714681,,-12.5187273026,-3.29876637459,-116.970863342,0.0101199997589,1.0,0.0,0.0,0.0,1.0,0.0,0.0,0.0,1.0,79.0243911743,3.96341490746,21.4634151459,1.0,0.0,0.0,0.0,1.0,0.0,0.0,0.0,1.0,-0.636857641602,2.91613762207,-9.7827079834,1.0,0.0,0.0,0.0,1.0,0.0,0.0,0.0,1.0
1463563960043290765,627,1463563959515940918,,-11.7010240555,-3.18319749832,-116.631813049,0.010048000142,1.0,0.0,0.0,0.0,1.0,0.0,0.0,0.0,1.0,88.0487823486,2.80487799644,22.3170719147,1.0,0.0,0.0,0.0,1.0,0.0,0.0,0.0,1.0,-0.521935925381,2.72938989258,-9.71567033691,1.0,0.0,0.0,0.0,1.0,0.0,0.0,0.0,1.0
1463563960043590022,628,1463563959525750976,,-10.786854744,-3.07077717781,-116.259361267,0.0101340003312,1.0,0.0,0.0,0.0,1.0,0.0,0.0,0.0,1.0,96.5853729248,1.95121955872,25.0609760284,1.0,0.0,0.0,0.0,1.0,0.0,0.0,0.0,1.0,-0.430956298828,2.5234885498,-9.7827079834,1.0,0.0,0.0,0.0,1.0,0.0,0.0,0.0,1.0
1463563960043868238,629,1463563959536205275,,-9.79082012177,-2.95494508743,-115.848861694,0.0101009998471,1.0,0.0,0.0,0.0,1.0,0.0,0.0,0.0,1.0,103.597564697,1.2804877758,28.7804889679,1.0,0.0,0.0,0.0,1.0,0.0,0.0,0.0,1.0,-0.234631762695,2.07816689489,-9.77791958008,1.0,0.0,0.0,0.0,1.0,0.0,0.0,0.0,1.0
1463563960044136976,630,1463563959545960337,,-8.73098754883,-2.85389924049,-115.393066406,0.0100880004466,1.0,0.0,0.0,0.0,1.0,0.0,0.0,0.0,1.0,109.085372925,0.365853667259,33.1097564697,1.0,0.0,0.0,0.0,1.0,0.0,0.0,0.0,1.0,-0.292092584273,1.63284553223,-9.39484672993,1.0,0.0,0.0,0.0,1.0,0.0,0.0,0.0,1.0
1463563960044402484,631,1463563959556163762,,-7.64334344864,-2.78603506088,-114.882064819,0.0101269995794,1.0,0.0,0.0,0.0,1.0,0.0,0.0,0.0,1.0,114.146339417,-0.365853667259,38.0487823486,1.0,0.0,0.0,0.0,1.0,0.0,0.0,0.0,1.0,-0.684741674805,1.86747729492,-9.29907866352,1.0,0.0,0.0,0.0,1.0,0.0,0.0,0.0,1.0
1463563960044711792,632,1463563959566182874,,-6.49980688095,-2.72562742233,-114.334899902,0.0100619997829,1.0,0.0,0.0,0.0,1.0,0.0,0.0,0.0,1.0,121.219512939,0.243902444839,41.8902435303,1.0,0.0,0.0,0.0,1.0,0.0,0.0,0.0,1.0,-0.799663354492,1.78607443848,-9.22246479492,1.0,0.0,0.0,0.0,1.0,0.0,0.0,0.0,1.0
1463563960044977978,633,1463563959576375883,,-5.28156518936,-2.67289400101,-113.737457275,0.0101250000298,1.0,0.0,0.0,0.0,1.0,0.0,0.0,0.0,1.0,127.5,0.792682945728,46.4634170532,1.0,0.0,0.0,0.0,1.0,0.0,0.0,0.0,1.0,-0.900219824219,1.49877023926,-9.21288798828,1.0,0.0,0.0,0.0,1.0,0.0,0.0,0.0,1.0
1463563960045260308,634,1463563959586442492,,-4.02474975586,-2.61610770226,-113.100723267,0.0100840004161,1.0,0.0,0.0,0.0,1.0,0.0,0.0,0.0,1.0,133.658538818,2.31707310677,50.4878082275,1.0,0.0,0.0,0.0,1.0,0.0,0.0,0.0,1.0,-0.909796630859,1.57059628906,-9.14106193848,1.0,0.0,0.0,0.0,1.0,0.0,0.0,0.0,1.0
1463563960045543941,635,1463563959596528527,,-2.68805623055,-2.5597512722,-112.415313721,0.0101129999384,1.0,0.0,0.0,0.0,1.0,0.0,0.0,0.0,1.0,140.304885864,3.53658556938,55.0609779358,1.0,0.0,0.0,0.0,1.0,0.0,0.0,0.0,1.0,-0.909796630859,1.18273554705,-9.08838950195,1.0,0.0,0.0,0.0,1.0,0.0,0.0,0.0,1.0
1463563960045825907,636,1463563959606663258,,-1.27858042717,-2.50637364388,-111.675331116,0.0100880004466,1.0,0.0,0.0,0.0,1.0,0.0,0.0,0.0,1.0,145.670730591,5.18292713165,60.6097564697,1.0,0.0,0.0,0.0,1.0,0.0,0.0,0.0,1.0,-0.972045874023,0.579396801758,-9.04529387207,1.0,0.0,0.0,0.0,1.0,0.0,0.0,0.0,1.0
1463563960046094644,637,1463563959616856580,,0.181555792689,-2.43553972244,-110.873222351,0.010108999908,1.0,0.0,0.0,0.0,1.0,0.0,0.0,0.0,1.0,148.658538818,6.95121955872,66.4634170532,1.0,0.0,0.0,0.0,1.0,0.0,0.0,0.0,1.0,-0.689530078125,0.0478840332031,-9.12669672852,1.0,0.0,0.0,0.0,1.0,0.0,0.0,0.0,1.0
1463563960046362496,638,1463563959626925168,,1.66603088379,-2.38336896896,-110.020088196,0.010098000057,1.0,0.0,0.0,0.0,1.0,0.0,0.0,0.0,1.0,150.853668213,7.68292665482,71.4024429321,1.0,0.0,0.0,0.0,1.0,0.0,0.0,0.0,1.0,-0.751779321289,-0.268150604204,-9.12669672852,1.0,0.0,0.0,0.0,1.0,0.0,0.0,0.0,1.0
1463563960046653003,639,1463563959638806327,,3.27746558189,-2.35826659203,-109.041816711,0.0108930002898,1.0,0.0,0.0,0.0,1.0,0.0,0.0,0.0,1.0,154.512207031,9.02439117432,76.4024353027,1.0,0.0,0.0,0.0,1.0,0.0,0.0,0.0,1.0,-1.01992990723,-0.0909796630859,-9.12669672852,1.0,0.0,0.0,0.0,1.0,0.0,0.0,0.0,1.0
1463563960046927730,640,1463563959647779706,,4.65741682053,-2.33121228218,-108.188812256,0.00931799970567,1.0,0.0,0.0,0.0,1.0,0.0,0.0,0.0,1.0,158.292694092,11.2804880142,77.6829299927,1.0,0.0,0.0,0.0,1.0,0.0,0.0,0.0,1.0,-0.948103857422,0.248996972656,-9.74440075684,1.0,0.0,0.0,0.0,1.0,0.0,0.0,0.0,1.0
1463563960047196415,641,1463563959657296289,,6.25252342224,-2.34406065941,-107.240577698,0.0101269995794,1.0,0.0,0.0,0.0,1.0,0.0,0.0,0.0,1.0,162.743896484,12.9268293381,79.7560958862,1.0,0.0,0.0,0.0,1.0,0.0,0.0,0.0,1.0,-1.43173259277,-0.814028564453,-9.18415756836,1.0,0.0,0.0,0.0,1.0,0.0,0.0,0.0,1.0
1463563960047467965,642,1463563959667390918,,7.87370586395,-2.35169243813,-106.290672302,0.0100889997557,1.0,0.0,0.0,0.0,1.0,0.0,0.0,0.0,1.0,165.182937622,15.4878053665,79.8780517578,1.0,0.0,0.0,0.0,1.0,0.0,0.0,0.0,1.0,-1.34075292969,-1.20667770978,-9.20809958496,1.0,0.0,0.0,0.0,1.0,0.0,0.0,0.0,1.0
1463563960047753473,643,1463563959677599291,,9.50425243378,-2.36176133156,-105.33316803,0.0100790001452,1.0,0.0,0.0,0.0,1.0,0.0,0.0,0.0,1.0,165.975601196,15.9146347046,80.5487823486,1.0,0.0,0.0,0.0,1.0,0.0,0.0,0.0,1.0,-1.02950671387,-1.58496149902,-9.52892319194,1.0,0.0,0.0,0.0,1.0,0.0,0.0,0.0,1.0
1463563960048046584,644,1463563959688618824,,11.2278280258,-2.37203288078,-104.308364868,0.0106800002977,1.0,0.0,0.0,0.0,1.0,0.0,0.0,0.0,1.0,164.878051758,17.4390239716,81.2195129395,1.0,0.0,0.0,0.0,1.0,0.0,0.0,0.0,1.0,-0.77093293457,-1.95366855469,-9.30865547017,1.0,0.0,0.0,0.0,1.0,0.0,0.0,0.0,1.0
1463563960048381256,645,1463563959698099732,,12.7656555176,-2.42581963539,-103.387077332,0.00953099969774,1.0,0.0,0.0,0.0,1.0,0.0,0.0,0.0,1.0,164.024398804,16.4634151459,82.1951293945,1.0,0.0,0.0,0.0,1.0,0.0,0.0,0.0,1.0,-0.885854614258,-2.32716386754,-8.99740983887,1.0,0.0,0.0,0.0,1.0,0.0,0.0,0.0,1.0
1463563960048665409,646,1463563959707961142,,14.3753509521,-2.51088953018,-102.405990601,0.0101159997284,1.0,0.0,0.0,0.0,1.0,0.0,0.0,0.0,1.0,160.304885864,16.5853652954,82.6829299927,1.0,0.0,0.0,0.0,1.0,0.0,0.0,0.0,1.0,-0.92416184082,-2.85867678223,-8.95431420898,1.0,0.0,0.0,0.0,1.0,0.0,0.0,0.0,1.0
1463563960048944927,647,1463563959718223263,,15.9314146042,-2.62440299988,-101.417625427,0.0100840004161,1.0,0.0,0.0,0.0,1.0,0.0,0.0,0.0,1.0,154.817077637,16.6463413239,83.9634170532,1.0,0.0,0.0,0.0,1.0,0.0,0.0,0.0,1.0,-0.92416184082,-3.26569106445,-8.8633345459,1.0,0.0,0.0,0.0,1.0,0.0,0.0,0.0,1.0
1463563960049233247,648,1463563959728332682,,17.4337844849,-2.75460958481,-100.433372498,0.0101150004193,1.0,0.0,0.0,0.0,1.0,0.0,0.0,0.0,1.0,148.780502319,16.341463089,83.5975646973,1.0,0.0,0.0,0.0,1.0,0.0,0.0,0.0,1.0,-0.76614453125,-3.68228215332,-9.01656345215,1.0,0.0,0.0,0.0,1.0,0.0,0.0,0.0,1.0
1463563960049627187,649,1463563959738333097,,18.8756790161,-2.90321540833,-99.4749298096,0.0100969998166,1.0,0.0,0.0,0.0,1.0,0.0,0.0,0.0,1.0,143.292678833,14.6951217651,81.9512176514,1.0,0.0,0.0,0.0,1.0,0.0,0.0,0.0,1.0,-0.497993945312,-3.92649072266,-8.99262143555,1.0,0.0,0.0,0.0,1.0,0.0,0.0,0.0,1.0
1463563960049939516,650,1463563959748556365,,20.2964878082,-3.12487483025,-98.5719833374,0.0101579995826,1.0,0.0,0.0,0.0,1.0,0.0,0.0,0.0,1.0,140.426834106,14.2682924271,76.2195129395,1.0,0.0,0.0,0.0,1.0,0.0,0.0,0.0,1.0,-1.56101948242,-3.98873996582,-8.54251210796,1.0,0.0,0.0,0.0,1.0,0.0,0.0,0.0,1.0
1463563960050234710,651,1463563959758661722,,21.5758934021,-3.32487487793,-97.7440567017,0.0100389998406,1.0,0.0,0.0,0.0,1.0,0.0,0.0,0.0,1.0,134.207321167,12.6829271317,70.0000076294,1.0,0.0,0.0,0.0,1.0,0.0,0.0,0.0,1.0,-1.09175595703,-3.36624753418,-9.23204160156,1.0,0.0,0.0,0.0,1.0,0.0,0.0,0.0,1.0
1463563960050550633,652,1463563959768646304,,22.8415966034,-3.4894361496,-96.9509887695,0.0101209999993,1.0,0.0,0.0,0.0,1.0,0.0,0.0,0.0,1.0,129.817077637,13.841463089,65.6097564697,1.0,0.0,0.0,0.0,1.0,0.0,0.0,0.0,1.0,-0.675164868164,-4.07971962891,-9.44273076313,1.0,0.0,0.0,0.0,1.0,0.0,0.0,0.0,1.0
1463563960050848848,653,1463563959778642291,,24.0690765381,-3.65470981598,-96.2210693359,0.0100760003552,1.0,0.0,0.0,0.0,1.0,0.0,0.0,0.0,1.0,124.634147644,10.4268293381,61.1585350037,1.0,0.0,0.0,0.0,1.0,0.0,0.0,0.0,1.0,-0.177170922852,-4.6208092041,-9.28471345356,1.0,0.0,0.0,0.0,1.0,0.0,0.0,0.0,1.0
1463563960051125137,654,1463563959788647393,,25.2610168457,-3.84025168419,-95.5469894409,0.0102319996804,1.0,0.0,0.0,0.0,1.0,0.0,0.0,0.0,1.0,119.512199402,6.0365858078,56.4024429321,1.0,0.0,0.0,0.0,1.0,0.0,0.0,0.0,1.0,0.119710083008,-4.72615378489,-9.1697923584,1.0,0.0,0.0,0.0,1.0,0.0,0.0,0.0,1.0
1463563960051404134,655,1463563959798928783,,26.3665275574,-4.06289196014,-94.9332885742,0.00997199956328,1.0,0.0,0.0,0.0,1.0,0.0,0.0,0.0,1.0,112.560974121,3.47560977936,53.4756126404,1.0,0.0,0.0,0.0,1.0,0.0,0.0,0.0,1.0,-0.244208569336,-4.98951625977,-8.73404765625,1.0,0.0,0.0,0.0,1.0,0.0,0.0,0.0,1.0
1463563960051680215,656,1463563959808940499,,27.4281539917,-4.34658718109,-94.3530349731,0.0101579995826,1.0,0.0,0.0,0.0,1.0,0.0,0.0,0.0,1.0,107.195121765,0.731707334518,50.4268302917,1.0,0.0,0.0,0.0,1.0,0.0,0.0,0.0,1.0,-0.881066210937,-4.97036264648,-8.67658681641,1.0,0.0,0.0,0.0,1.0,0.0,0.0,0.0,1.0
1463563960051980149,657,1463563959818918519,,28.4289913177,-4.61139202118,-93.8034439087,0.010108999908,1.0,0.0,0.0,0.0,1.0,0.0,0.0,0.0,1.0,102.012199402,1.03658533096,47.6829299927,1.0,0.0,0.0,0.0,1.0,0.0,0.0,0.0,1.0,-0.708683691406,-5.02303508301,-8.49462807476,1.0,0.0,0.0,0.0,1.0,0.0,0.0,0.0,1.0
1463563960052262375,658,1463563959828790970,,29.3494472504,-4.88145637512,-93.2982940674,0.0100269997492,1.0,0.0,0.0,0.0,1.0,0.0,0.0,0.0,1.0,96.0975646973,-1.2804877758,44.817073822,1.0,0.0,0.0,0.0,1.0,0.0,0.0,0.0,1.0,-0.651222851562,-5.26245524902,-9.04050546875,1.0,0.0,0.0,0.0,1.0,0.0,0.0,0.0,1.0
1463563960052544445,659,1463563959838955491,,30.2294311523,-5.13225412369,-92.8094711304,0.010156000033,1.0,0.0,0.0,0.0,1.0,0.0,0.0,0.0,1.0,89.9390258789,-2.19512200356,43.3536567688,1.0,0.0,0.0,0.0,1.0,0.0,0.0,0.0,1.0,-0.124498486328,-5.38695373535,-8.56166572124,1.0,0.0,0.0,0.0,1.0,0.0,0.0,0.0,1.0
1463563960054225564,660,1463563959849155323,,31.0484142303,-5.41879177094,-92.3608322144,0.0101859997958,1.0,0.0,0.0,0.0,1.0,0.0,0.0,0.0,1.0,83.1707305908,-4.39024400711,40.4878044128,1.0,0.0,0.0,0.0,1.0,0.0,0.0,0.0,1.0,-0.622492431641,-5.97113894043,-9.04050546875,1.0,0.0,0.0,0.0,1.0,0.0,0.0,0.0,1.0
1463563960054605338,661,1463563959859754564,,31.6253490448,-5.77065038681,-92.0849838257,0.0100199999288,1.0,0.0,0.0,0.0,1.0,0.0,0.0,0.0,1.0,64.8780441284,-10.3048782349,24.6951236725,1.0,0.0,0.0,0.0,1.0,0.0,0.0,0.0,1.0,-2.18830031738,-4.35744702148,-8.13070883789,1.0,0.0,0.0,0.0,1.0,0.0,0.0,0.0,1.0
1463563960054953968,662,1463563959869569570,,32.2206268311,-5.92486763,-91.7308578491,0.0100649995729,1.0,0.0,0.0,0.0,1.0,0.0,0.0,0.0,1.0,60.1829299927,-2.31707310677,29.7560997009,1.0,0.0,0.0,0.0,1.0,0.0,0.0,0.0,1.0,0.507570751953,-6.79474431152,-9.30865547017,1.0,0.0,0.0,0.0,1.0,0.0,0.0,0.0,1.0
1463563960055251662,663,1463563959879952570,,32.6790542603,-6.10624027252,-91.5473098755,0.010098000057,1.0,0.0,0.0,0.0,1.0,0.0,0.0,0.0,1.0,45.0609779358,-9.20731735229,14.3902444839,1.0,0.0,0.0,0.0,1.0,0.0,0.0,0.0,1.0,-0.483628735352,-6.60799658203,-8.9591026123,1.0,0.0,0.0,0.0,1.0,0.0,0.0,0.0,1.0
1463563960055517066,664,1463563959889869655,,33.0871200562,-6.3024225235,-91.3479385376,0.0100809996948,1.0,0.0,0.0,0.0,1.0,0.0,0.0,0.0,1.0,42.317073822,-13.048781395,18.7195110321,1.0,0.0,0.0,0.0,1.0,0.0,0.0,0.0,1.0,0.330399829102,-6.74686027832,-9.67257470703,1.0,0.0,0.0,0.0,1.0,0.0,0.0,0.0,1.0
1463563960055806063,665,1463563959900197398,,33.3482246399,-6.48345088959,-91.2119369507,0.0102120004594,1.0,0.0,0.0,0.0,1.0,0.0,0.0,0.0,1.0,29.6951236725,-12.7439022064,10.6707315445,1.0,0.0,0.0,0.0,1.0,0.0,0.0,0.0,1.0,-0.282515795898,-5.87537087402,-9.28950185688,1.0,0.0,0.0,0.0,1.0,0.0,0.0,0.0,1.0
1463563960056078446,666,1463563959910196354,,33.5622444153,-6.69918441772,-91.0824584961,0.0099950004369,1.0,0.0,0.0,0.0,1.0,0.0,0.0,0.0,1.0,25.3048782349,-14.5731706619,11.5853662491,1.0,0.0,0.0,0.0,1.0,0.0,0.0,0.0,1.0,-0.708683691406,-6.37336481934,-9.88326445312,1.0,0.0,0.0,0.0,1.0,0.0,0.0,0.0,1.0
1463563960056373588,667,1463563959920529565,,33.708946228,-6.86093950272,-90.9539413452,0.0101129999384,1.0,0.0,0.0,0.0,1.0,0.0,0.0,0.0,1.0,18.4146347046,-11.9512195587,9.63414573669,1.0,0.0,0.0,0.0,1.0,0.0,0.0,0.0,1.0,-0.239420166016,-5.88015927734,-9.04529387207,1.0,0.0,0.0,0.0,1.0,0.0,0.0,0.0,1.0
1463563960056636962,668,1463563959930407068,,33.838634491,-7.03271055222,-90.8483123779,0.0100940000266,1.0,0.0,0.0,0.0,1.0,0.0,0.0,0.0,1.0,14.8170728683,-11.7682924271,7.13414621353,1.0,0.0,0.0,0.0,1.0,0.0,0.0,0.0,1.0,-0.818816967773,-6.70376464844,-9.60553764507,1.0,0.0,0.0,0.0,1.0,0.0,0.0,0.0,1.0
1463563960056907626,669,1463563959940068436,,33.9097290039,-7.16744184494,-90.720413208,0.0100809996948,1.0,0.0,0.0,0.0,1.0,0.0,0.0,0.0,1.0,10.1829271317,-9.5731716156,8.23170757294,1.0,0.0,0.0,0.0,1.0,0.0,0.0,0.0,1.0,-0.31124621582,-5.95677373047,-8.77714328613,1.0,0.0,0.0,0.0,1.0,0.0,0.0,0.0,1.0
1463563960057159177,670,1463563959950401960,,33.9355392456,-7.2853884697,-90.5964584351,0.0101129999384,1.0,0.0,0.0,0.0,1.0,0.0,0.0,0.0,1.0,3.96341490746,-7.13414621353,6.34146356583,1.0,0.0,0.0,0.0,1.0,0.0,0.0,0.0,1.0,-0.632069238281,-6.65588061523,-9.17458076172,1.0,0.0,0.0,0.0,1.0,0.0,0.0,0.0,1.0
1463563960057452704,671,1463563959960836572,,33.9079017639,-7.42446613312,-90.4666061401,0.0101030003279,1.0,0.0,0.0,0.0,1.0,0.0,0.0,0.0,1.0,-1.58536589146,-9.32926845551,8.59756088257,1.0,0.0,0.0,0.0,1.0,0.0,0.0,0.0,1.0,-0.450109912109,-6.58405456543,-8.94473740234,1.0,0.0,0.0,0.0,1.0,0.0,0.0,0.0,1.0
1463563960057713369,672,1463563959970661161,,33.8080940247,-7.53964662552,-90.3347854614,0.0100889997557,1.0,0.0,0.0,0.0,1.0,0.0,0.0,0.0,1.0,-7.74390268326,-6.40243911743,6.70731735229,1.0,0.0,0.0,0.0,1.0,0.0,0.0,0.0,1.0,-0.703895288086,-6.43082565918,-9.05965908203,1.0,0.0,0.0,0.0,1.0,0.0,0.0,0.0,1.0
1463563960057975805,673,1463563959980415389,,33.6663475037,-7.68270683289,-90.202041626,0.0100999996066,1.0,0.0,0.0,0.0,1.0,0.0,0.0,0.0,1.0,-11.5243911743,-7.68292665482,7.56097555161,1.0,0.0,0.0,0.0,1.0,0.0,0.0,0.0,1.0,-0.967257470703,-6.33984599609,-9.07402429199,1.0,0.0,0.0,0.0,1.0,0.0,0.0,0.0,1.0
1463563960058272145,674,1463563959990533090,,33.4776306152,-7.78675508499,-90.0647964478,0.0101070003584,1.0,0.0,0.0,0.0,1.0,0.0,0.0,0.0,1.0,-16.0975608826,-4.87804889679,6.15853643417,1.0,0.0,0.0,0.0,1.0,0.0,0.0,0.0,1.0,-0.866701000977,-6.42124885254,-9.23204160156,1.0,0.0,0.0,0.0,1.0,0.0,0.0,0.0,1.0
1463563960058560048,675,1463563960001349403,,33.2526130676,-7.8889040947,-89.9413452148,0.010108999908,1.0,0.0,0.0,0.0,1.0,0.0,0.0,0.0,1.0,-20.5487823486,-4.75609779358,4.51219558716,1.0,0.0,0.0,0.0,1.0,0.0,0.0,0.0,1.0,-1.03429511719,-6.34463439941,-8.94473740234,1.0,0.0,0.0,0.0,1.0,0.0,0.0,0.0,1.0
1463563960058852587,676,1463563960011228365,,32.9875679016,-7.95621776581,-89.8262329102,0.0100969998166,1.0,0.0,0.0,0.0,1.0,0.0,0.0,0.0,1.0,-24.1463432312,-3.17073178291,2.37804889679,1.0,0.0,0.0,0.0,1.0,0.0,0.0,0.0,1.0,-0.885854614258,-6.26801994629,-9.07881269531,1.0,0.0,0.0,0.0,1.0,0.0,0.0,0.0,1.0
1463563960060066071,677,1463563960020873902,,32.6972579956,-8.00980472565,-89.7330551147,0.0101039996371,1.0,0.0,0.0,0.0,1.0,0.0,0.0,0.0,1.0,-27.3780498505,-2.86585378647,-0.365853667259,1.0,0.0,0.0,0.0,1.0,0.0,0.0,0.0,1.0,-0.976834277344,-6.24886633301,-8.98304462891,1.0,0.0,0.0,0.0,1.0,0.0,0.0,0.0,1.0
1463563960060410170,678,1463563960031138888,,32.3637123108,-8.03243350983,-89.6572418213,0.0102289998904,1.0,0.0,0.0,0.0,1.0,0.0,0.0,0.0,1.0,-31.2804889679,-1.64634156227,-3.35365867615,1.0,0.0,0.0,0.0,1.0,0.0,0.0,0.0,1.0,-0.92416184082,-6.27280834961,-9.193734375,1.0,0.0,0.0,0.0,1.0,0.0,0.0,0.0,1.0
1463563960060699635,679,1463563960041661259,,31.9894981384,-8.05135059357,-89.6001281738,0.0100940000266,1.0,0.0,0.0,0.0,1.0,0.0,0.0,0.0,1.0,-34.5121955872,-2.25609779358,-5.30487823486,1.0,0.0,0.0,0.0,1.0,0.0,0.0,0.0,1.0,-0.952892260742,-5.83227524414,-9.1697923584,1.0,0.0,0.0,0.0,1.0,0.0,0.0,0.0,1.0
1463563960251333702,680,1463563960051184145,,31.6044120789,-8.04192829132,-89.5588531494,0.00996499974281,1.0,0.0,0.0,0.0,1.0,0.0,0.0,0.0,1.0,-36.7073173523,-1.40243899822,-7.56097555161,1.0,0.0,0.0,0.0,1.0,0.0,0.0,0.0,1.0,-0.799663354492,-5.91846650391,-9.28950185688,1.0,0.0,0.0,0.0,1.0,0.0,0.0,0.0,1.0
1463563960251625668,681,1463563960061992804,,31.1896514893,-8.03279876709,-89.5455551147,0.0101749999449,1.0,0.0,0.0,0.0,1.0,0.0,0.0,0.0,1.0,-39.3292694092,-2.98780488968,-9.87804889679,1.0,0.0,0.0,0.0,1.0,0.0,0.0,0.0,1.0,-0.790086547852,-5.90888969727,-9.37569311665,1.0,0.0,0.0,0.0,1.0,0.0,0.0,0.0,1.0
1463563960251910394,682,1463563960071931556,,30.7686309814,-7.99607563019,-89.5486831665,0.0100870002061,1.0,0.0,0.0,0.0,1.0,0.0,0.0,0.0,1.0,-42.2560958862,-1.09756100178,-12.6219520569,1.0,0.0,0.0,0.0,1.0,0.0,0.0,0.0,1.0,-0.847547387695,-6.13873305664,-9.25119521484,1.0,0.0,0.0,0.0,1.0,0.0,0.0,0.0,1.0
1463563960252186527,683,1463563960081873120,,30.3224258423,-7.96324682236,-89.5812072754,0.010053999722,1.0,0.0,0.0,0.0,1.0,0.0,0.0,0.0,1.0,-46.0975646973,-3.04878044128,-14.6951217651,1.0,0.0,0.0,0.0,1.0,0.0,0.0,0.0,1.0,-0.785298144531,-6.15788666992,-9.1458503418,1.0,0.0,0.0,0.0,1.0,0.0,0.0,0.0,1.0
1463563960252454066,684,1463563960091900930,,29.8247585297,-7.91690635681,-89.6216964722,0.0101039996371,1.0,0.0,0.0,0.0,1.0,0.0,0.0,0.0,1.0,-50.9146347046,-2.62195134163,-15.8536596298,1.0,0.0,0.0,0.0,1.0,0.0,0.0,0.0,1.0,-0.694318481445,-5.99029255371,-9.10754311523,1.0,0.0,0.0,0.0,1.0,0.0,0.0,0.0,1.0
1463563960252725147,685,1463563960101579174,,29.2874984741,-7.88252544403,-89.6760253906,0.0100880004466,1.0,0.0,0.0,0.0,1.0,0.0,0.0,0.0,1.0,-54.9390258789,-3.71951246262,-16.8292694092,1.0,0.0,0.0,0.0,1.0,0.0,0.0,0.0,1.0,-0.828393774414,-5.97113894043,-9.31344387349,1.0,0.0,0.0,0.0,1.0,0.0,0.0,0.0,1.0
1463563960253015394,686,1463563960111838275,,28.7174320221,-7.83305692673,-89.7444915771,0.010108999908,1.0,0.0,0.0,0.0,1.0,0.0,0.0,0.0,1.0,-58.2317085266,-3.47560977936,-18.5365848541,1.0,0.0,0.0,0.0,1.0,0.0,0.0,0.0,1.0,-0.708683691406,-5.74129558105,-9.15542714844,1.0,0.0,0.0,0.0,1.0,0.0,0.0,0.0,1.0
1463563960253301839,687,1463563960122264869,,28.1067848206,-7.78150415421,-89.8327026367,0.0101380003616,1.0,0.0,0.0,0.0,1.0,0.0,0.0,0.0,1.0,-60.9146347046,-3.71951246262,-20.7926826477,1.0,0.0,0.0,0.0,1.0,0.0,0.0,0.0,1.0,-0.828393774414,-5.4922986084,-9.48582756206,1.0,0.0,0.0,0.0,1.0,0.0,0.0,0.0,1.0
1463563960253582711,688,1463563960132359759,,27.4938735962,-7.72453260422,-89.9324645996,0.0100779999048,1.0,0.0,0.0,0.0,1.0,0.0,0.0,0.0,1.0,-62.5609779358,-4.32926845551,-21.6463432312,1.0,0.0,0.0,0.0,1.0,0.0,0.0,0.0,1.0,-0.651222851562,-5.44920297852,-9.2942902602,1.0,0.0,0.0,0.0,1.0,0.0,0.0,0.0,1.0
1463563960253867958,689,1463563960142447462,,26.8609790802,-7.66158056259,-90.0481719971,0.0101140001789,1.0,0.0,0.0,0.0,1.0,0.0,0.0,0.0,1.0,-65.1219558716,-4.02439022064,-23.4146347046,1.0,0.0,0.0,0.0,1.0,0.0,0.0,0.0,1.0,-0.727837304687,-5.53060583496,-9.43315395649,1.0,0.0,0.0,0.0,1.0,0.0,0.0,0.0,1.0
1463563960254160080,690,1463563960152951084,,26.2050991058,-7.60665035248,-90.1751251221,0.0100859999657,1.0,0.0,0.0,0.0,1.0,0.0,0.0,0.0,1.0,-67.5,-4.63414621353,-24.3902435303,1.0,0.0,0.0,0.0,1.0,0.0,0.0,0.0,1.0,-0.804451757813,-5.27203205566,-9.30865547017,1.0,0.0,0.0,0.0,1.0,0.0,0.0,0.0,1.0
1463563960254523396,691,1463563960162457877,,25.5340824127,-7.5426068306,-90.3079605103,0.0100760003552,1.0,0.0,0.0,0.0,1.0,0.0,0.0,0.0,1.0,-68.4146347046,-3.7804877758,-25.5487804413,1.0,0.0,0.0,0.0,1.0,0.0,0.0,0.0,1.0,-0.828393774414,-4.98951625977,-9.33259748677,1.0,0.0,0.0,0.0,1.0,0.0,0.0,0.0,1.0
1463563960260581289,692,1463563960172708697,,24.8585262299,-7.47109222412,-90.4432296753,0.0101260002702,1.0,0.0,0.0,0.0,1.0,0.0,0.0,0.0,1.0,-69.2682952881,-3.23170733452,-25.8536586761,1.0,0.0,0.0,0.0,1.0,0.0,0.0,0.0,1.0,-0.785298144531,-5.08528432617,-9.48582756206,1.0,0.0,0.0,0.0,1.0,0.0,0.0,0.0,1.0
1463563960260923721,693,1463563960182994100,,24.1690139771,-7.38951444626,-90.5860671997,0.0101140001789,1.0,0.0,0.0,0.0,1.0,0.0,0.0,0.0,1.0,-71.2804870605,-2.80487799644,-26.7682933807,1.0,0.0,0.0,0.0,1.0,0.0,0.0,0.0,1.0,-0.689530078125,-4.99909306641,-9.40442353657,1.0,0.0,0.0,0.0,1.0,0.0,0.0,0.0,1.0
1463563960261220321,694,1463563960192901499,,23.4534397125,-7.30524349213,-90.731338501,0.0101269995794,1.0,0.0,0.0,0.0,1.0,0.0,0.0,0.0,1.0,-73.1707305908,-2.19512200356,-27.317073822,1.0,0.0,0.0,0.0,1.0,0.0,0.0,0.0,1.0,-0.737414111328,-4.75009638601,-9.45230756977,1.0,0.0,0.0,0.0,1.0,0.0,0.0,0.0,1.0
1463563960261496246,695,1463563960202825356,,22.7203979492,-7.21867465973,-90.8763046265,0.0101490002126,1.0,0.0,0.0,0.0,1.0,0.0,0.0,0.0,1.0,-76.3414611816,-1.64634156227,-27.1951236725,1.0,0.0,0.0,0.0,1.0,0.0,0.0,0.0,1.0,-0.737414111328,-4.93684382324,-9.43315395649,1.0,0.0,0.0,0.0,1.0,0.0,0.0,0.0,1.0
1463563960261800398,696,1463563960213011127,,21.9628810883,-7.13388204575,-91.0250473022,0.0100079998374,1.0,0.0,0.0,0.0,1.0,0.0,0.0,0.0,1.0,-80.0,-1.76829278469,-27.682926178,1.0,0.0,0.0,0.0,1.0,0.0,0.0,0.0,1.0,-0.703895288086,-4.78361520925,-9.37569311665,1.0,0.0,0.0,0.0,1.0,0.0,0.0,0.0,1.0
1463563960262080593,697,1463563960223029198,,21.1535263062,-7.05147218704,-91.1790313721,0.0100959995762,1.0,0.0,0.0,0.0,1.0,0.0,0.0,0.0,1.0,-83.4146347046,-1.64634156227,-28.2317066193,1.0,0.0,0.0,0.0,1.0,0.0,0.0,0.0,1.0,-0.77093293457,-4.47715710449,-9.53371159526,1.0,0.0,0.0,0.0,1.0,0.0,0.0,0.0,1.0
1463563960262333655,698,1463563960233360901,,20.3114147186,-6.96299171448,-91.3370895386,0.0101290000603,1.0,0.0,0.0,0.0,1.0,0.0,0.0,0.0,1.0,-84.8780517578,-0.426829278469,-29.2073173523,1.0,0.0,0.0,0.0,1.0,0.0,0.0,0.0,1.0,-0.866701000977,-3.97916315918,-9.47624958638,1.0,0.0,0.0,0.0,1.0,0.0,0.0,0.0,1.0
1463563960262607600,699,1463563960243573494,,19.4688796997,-6.86443185806,-91.5105514526,0.0101169999689,1.0,0.0,0.0,0.0,1.0,0.0,0.0,0.0,1.0,-85.4268341064,0.0,-30.8536605835,1.0,0.0,0.0,0.0,1.0,0.0,0.0,0.0,1.0,-0.794874951172,-3.84987626953,-9.44273076313,1.0,0.0,0.0,0.0,1.0,0.0,0.0,0.0,1.0
1463563960317923127,700,1463563960253206739,,18.630191803,-6.75987100601,-91.6967010498,0.0100429998711,1.0,0.0,0.0,0.0,1.0,0.0,0.0,0.0,1.0,-85.1829299927,0.609756112099,-32.5,1.0,0.0,0.0,0.0,1.0,0.0,0.0,0.0,1.0,-0.818816967773,-3.6296097168,-9.60074924175,1.0,0.0,0.0,0.0,1.0,0.0,0.0,0.0,1.0
1463563960318205926,701,1463563960263103775,,17.7890377045,-6.64983415604,-91.8934783936,0.0100959995762,1.0,0.0,0.0,0.0,1.0,0.0,0.0,0.0,1.0,-85.2439041138,0.975609779358,-33.4756126404,1.0,0.0,0.0,0.0,1.0,0.0,0.0,0.0,1.0,-0.76614453125,-3.45243879395,-9.46188437642,1.0,0.0,0.0,0.0,1.0,0.0,0.0,0.0,1.0
1463563960318469612,702,1463563960273389854,,16.9438381195,-6.53561496735,-92.0983428955,0.0101450001821,1.0,0.0,0.0,0.0,1.0,0.0,0.0,0.0,1.0,-84.8170776367,2.13414645195,-34.5121955872,1.0,0.0,0.0,0.0,1.0,0.0,0.0,0.0,1.0,-0.871489404297,-3.18428820801,-9.39484672993,1.0,0.0,0.0,0.0,1.0,0.0,0.0,0.0,1.0
1463563960318743297,703,1463563960283455423,,16.1128444672,-6.41296339035,-92.3038024902,0.0100769996643,1.0,0.0,0.0,0.0,1.0,0.0,0.0,0.0,1.0,-85.3048782349,2.5,-34.5121955872,1.0,0.0,0.0,0.0,1.0,0.0,0.0,0.0,1.0,-0.703895288086,-3.28963308105,-9.41878874653,1.0,0.0,0.0,0.0,1.0,0.0,0.0,0.0,1.0
1463563960334516254,704,1463563960293899724,,15.2591533661,-6.3050365448,-92.5138092041,0.0101319998503,1.0,0.0,0.0,0.0,1.0,0.0,0.0,0.0,1.0,-85.8536605835,1.64634156227,-34.634147644,1.0,0.0,0.0,0.0,1.0,0.0,0.0,0.0,1.0,-0.76135612793,-2.94486804199,-9.5432884019,1.0,0.0,0.0,0.0,1.0,0.0,0.0,0.0,1.0
1463563960334676819,705,1463563960303912639,,14.4061059952,-6.19480752945,-92.7247314453,0.0100819999352,1.0,0.0,0.0,0.0,1.0,0.0,0.0,0.0,1.0,-85.0609817505,1.58536589146,-34.817073822,1.0,0.0,0.0,0.0,1.0,0.0,0.0,0.0,1.0,-0.627280834961,-2.57137258301,-9.50498117534,1.0,0.0,0.0,0.0,1.0,0.0,0.0,0.0,1.0
1463563960334872695,706,1463563960314187729,,13.5654668808,-6.10045003891,-92.9468078613,0.0101490002126,1.0,0.0,0.0,0.0,1.0,0.0,0.0,0.0,1.0,-82.5609817505,0.914634168148,-35.6097564697,1.0,0.0,0.0,0.0,1.0,0.0,0.0,0.0,1.0,-0.775721337891,-2.3415290775,-9.76834277344,1.0,0.0,0.0,0.0,1.0,0.0,0.0,0.0,1.0
1463563960337385182,707,1463563960325508239,,12.7564640045,-6.00037431717,-93.166595459,0.0101180002093,1.0,0.0,0.0,0.0,1.0,0.0,0.0,0.0,1.0,-80.2439041138,1.34146344662,-35.3658561707,1.0,0.0,0.0,0.0,1.0,0.0,0.0,0.0,1.0,-0.651222851562,-2.26970317383,-9.63426806499,1.0,0.0,0.0,0.0,1.0,0.0,0.0,0.0,1.0
1463563960378836308,708,1463563960334015288,,11.9820814133,-5.90973997116,-93.3798599243,0.0100100003183,1.0,0.0,0.0,0.0,1.0,0.0,0.0,0.0,1.0,-78.4756164551,0.853658556938,-34.634147644,1.0,0.0,0.0,0.0,1.0,0.0,0.0,0.0,1.0,-0.612915625,-2.27449157715,-9.57201882183,1.0,0.0,0.0,0.0,1.0,0.0,0.0,0.0,1.0
1463563960379132544,709,1463563960344076326,,11.20616436,-5.82667636871,-93.590171814,0.0101290000603,1.0,0.0,0.0,0.0,1.0,0.0,0.0,0.0,1.0,-77.0121994019,0.914634168148,-34.0853691101,1.0,0.0,0.0,0.0,1.0,0.0,0.0,0.0,1.0,-0.679953271484,-2.01591779785,-9.5193463853,1.0,0.0,0.0,0.0,1.0,0.0,0.0,0.0,1.0
1463563960379391854,710,1463563960354051690,,10.4142742157,-5.74690389633,-93.7763366699,0.0100729996338,1.0,0.0,0.0,0.0,1.0,0.0,0.0,0.0,1.0,-76.7682952881,0.853658556938,-31.8902454376,1.0,0.0,0.0,0.0,1.0,0.0,0.0,0.0,1.0,-0.612915625,-1.62326872559,-10.0843773926,1.0,0.0,0.0,0.0,1.0,0.0,0.0,0.0,1.0
1463563960379774441,711,1463563960364397090,,9.67597484589,-5.6782784462,-93.9507293701,0.010208000429,1.0,0.0,0.0,0.0,1.0,0.0,0.0,0.0,1.0,-71.7682952881,0.731707334518,-30.2439022064,1.0,0.0,0.0,0.0,1.0,0.0,0.0,0.0,1.0,-0.665588061523,-1.66636435547,-9.61990285503,1.0,0.0,0.0,0.0,1.0,0.0,0.0,0.0,1.0
1463563960423771124,712,1463563960374254648,,8.97440433502,-5.60812282562,-94.104888916,0.0100029995665,1.0,0.0,0.0,0.0,1.0,0.0,0.0,0.0,1.0,-68.0487823486,0.18292683363,-28.5365848541,1.0,0.0,0.0,0.0,1.0,0.0,0.0,0.0,1.0,-0.421379492187,-1.30244570312,-9.61032604839,1.0,0.0,0.0,0.0,1.0,0.0,0.0,0.0,1.0
1463563960424076787,713,1463563960384980602,,8.30865764618,-5.54976844788,-94.2319564819,0.0101220002398,1.0,0.0,0.0,0.0,1.0,0.0,0.0,0.0,1.0,-62.865852356,0.12195122242,-25.6707324982,1.0,0.0,0.0,0.0,1.0,0.0,0.0,0.0,1.0,-0.517147558594,-1.11569797363,-9.82101520996,1.0,0.0,0.0,0.0,1.0,0.0,0.0,0.0,1.0
1463563960424365159,714,1463563960396474542,,7.71864795685,-5.51182937622,-94.3354263306,0.0101429997012,1.0,0.0,0.0,0.0,1.0,0.0,0.0,0.0,1.0,-57.134147644,-0.914634168148,-22.9268302917,1.0,0.0,0.0,0.0,1.0,0.0,0.0,0.0,1.0,-0.60812722168,-1.40779057617,-10.0652237793,1.0,0.0,0.0,0.0,1.0,0.0,0.0,0.0,1.0
1463563960424642229,715,1463563960405138614,,7.16249084473,-5.46054601669,-94.4139556885,0.0100649995729,1.0,0.0,0.0,0.0,1.0,0.0,0.0,0.0,1.0,-53.8414649963,0.670731723309,-20.7317085266,1.0,0.0,0.0,0.0,1.0,0.0,0.0,0.0,1.0,-0.555454785156,-1.24498486328,-9.82101520996,1.0,0.0,0.0,0.0,1.0,0.0,0.0,0.0,1.0
1463563960476454691,716,1463563960415112520,,6.64269399643,-5.43192529678,-94.4671325684,0.0100819999352,1.0,0.0,0.0,0.0,1.0,0.0,0.0,0.0,1.0,-49.817073822,-0.975609779358,-17.9878044128,1.0,0.0,0.0,0.0,1.0,0.0,0.0,0.0,1.0,-0.574608398438,-1.11569797363,-9.66299848491,1.0,0.0,0.0,0.0,1.0,0.0,0.0,0.0,1.0
1463563960476734522,717,1463563960425402818,,6.16296768188,-5.40321397781,-94.4970245361,0.0101190004498,1.0,0.0,0.0,0.0,1.0,0.0,0.0,0.0,1.0,-45.7317085266,-0.670731723309,-15.6707315445,1.0,0.0,0.0,0.0,1.0,0.0,0.0,0.0,1.0,-0.569819995117,-1.07739082014,-9.67257470703,1.0,0.0,0.0,0.0,1.0,0.0,0.0,0.0,1.0
1463563960477023831,718,1463563960435364851,,5.72650527954,-5.39485836029,-94.5068893433,0.0100899999961,1.0,0.0,0.0,0.0,1.0,0.0,0.0,0.0,1.0,-42.0121955872,-1.64634156227,-13.5365858078,1.0,0.0,0.0,0.0,1.0,0.0,0.0,0.0,1.0,-0.713472094727,-1.12048637695,-9.82580361328,1.0,0.0,0.0,0.0,1.0,0.0,0.0,0.0,1.0
1463563960477291892,719,1463563960445410681,,5.31302642822,-5.36687040329,-94.4860534668,0.0101049998775,1.0,0.0,0.0,0.0,1.0,0.0,0.0,0.0,1.0,-38.0487823486,0.0,-10.7926826477,1.0,0.0,0.0,0.0,1.0,0.0,0.0,0.0,1.0,-0.598550451572,-0.794874951172,-9.65821008159,1.0,0.0,0.0,0.0,1.0,0.0,0.0,0.0,1.0
1463563960490433358,720,1463563960455492759,,4.95539140701,-5.36344718933,-94.4567947388,0.0101190004498,1.0,0.0,0.0,0.0,1.0,0.0,0.0,0.0,1.0,-33.1097564697,-0.914634168148,-9.81707286835,1.0,0.0,0.0,0.0,1.0,0.0,0.0,0.0,1.0,-0.857124194336,-0.861912597656,-9.81622680664,1.0,0.0,0.0,0.0,1.0,0.0,0.0,0.0,1.0
1463563960491116711,721,1463563960465618638,,4.6336812973,-5.34463024139,-94.4076156616,0.0101920003071,1.0,0.0,0.0,0.0,1.0,0.0,0.0,0.0,1.0,-29.0243911743,0.12195122242,-7.98780536652,1.0,0.0,0.0,0.0,1.0,0.0,0.0,0.0,1.0,-0.737414111328,-0.76614453125,-9.66778688823,1.0,0.0,0.0,0.0,1.0,0.0,0.0,0.0,1.0
1463563960491352273,722,1463563960475711497,,4.35952186584,-5.32835769653,-94.3454360962,0.00999400019646,1.0,0.0,0.0,0.0,1.0,0.0,0.0,0.0,1.0,-25.4268302917,-0.670731723309,-6.46341466904,1.0,0.0,0.0,0.0,1.0,0.0,0.0,0.0,1.0,-0.632069238281,-0.842758984375,-9.85932243652,1.0,0.0,0.0,0.0,1.0,0.0,0.0,0.0,1.0
1463563960491508203,723,1463563960485744724,,4.10146856308,-5.31706523895,-94.2596282959,0.010111999698,1.0,0.0,0.0,0.0,1.0,0.0,0.0,0.0,1.0,-22.0731716156,-0.670731723309,-4.32926845551,1.0,0.0,0.0,0.0,1.0,0.0,0.0,0.0,1.0,-0.684741674805,-0.569819995117,-9.71567033691,1.0,0.0,0.0,0.0,1.0,0.0,0.0,0.0,1.0
1463563960530791619,724,1463563960496145173,,3.88964986801,-5.30731105804,-94.1593780518,0.0101370001212,1.0,0.0,0.0,0.0,1.0,0.0,0.0,0.0,1.0,-19.0853652954,-0.975609779358,-2.74390244484,1.0,0.0,0.0,0.0,1.0,0.0,0.0,0.0,1.0,-0.660799658203,-0.852335791016,-9.95030209961,1.0,0.0,0.0,0.0,1.0,0.0,0.0,0.0,1.0
1463563960531091240,725,1463563960505708317,,3.70772171021,-5.29441213608,-94.0496673584,0.0100819999352,1.0,0.0,0.0,0.0,1.0,0.0,0.0,0.0,1.0,-16.2195110321,-0.731707334518,-1.76829278469,1.0,0.0,0.0,0.0,1.0,0.0,0.0,0.0,1.0,-0.61770402832,-0.799663354492,-9.60074924175,1.0,0.0,0.0,0.0,1.0,0.0,0.0,0.0,1.0
1463563960531461222,726,1463563960515988512,,3.56078147888,-5.28773403168,-93.9384765625,0.0101100001484,1.0,0.0,0.0,0.0,1.0,0.0,0.0,0.0,1.0,-12.9268293381,-0.548780500889,-1.64634156227,1.0,0.0,0.0,0.0,1.0,0.0,0.0,0.0,1.0,-0.77093293457,-0.823605371094,-9.7827079834,1.0,0.0,0.0,0.0,1.0,0.0,0.0,0.0,1.0
1463563960531809331,727,1463563960525796280,,3.42961215973,-5.28818702698,-93.8220367432,0.0100600002334,1.0,0.0,0.0,0.0,1.0,0.0,0.0,0.0,1.0,-10.4268293381,-0.609756112099,-1.15853655338,1.0,0.0,0.0,0.0,1.0,0.0,0.0,0.0,1.0,-0.847547387695,-0.60812722168,-9.41400034321,1.0,0.0,0.0,0.0,1.0,0.0,0.0,0.0,1.0
1463563960603609292,728,1463563960536076839,,3.33500790596,-5.28646564484,-93.6983108521,0.0101220002398,1.0,0.0,0.0,0.0,1.0,0.0,0.0,0.0,1.0,-8.78048801422,0.18292683363,-0.365853667259,1.0,0.0,0.0,0.0,1.0,0.0,0.0,0.0,1.0,-0.952892260742,-0.952892260742,-9.5193463853,1.0,0.0,0.0,0.0,1.0,0.0,0.0,0.0,1.0
1463563960608878055,729,1463563960546001060,,3.24389243126,-5.26914310455,-93.5699768066,0.0100490003824,1.0,0.0,0.0,0.0,1.0,0.0,0.0,0.0,1.0,-8.29268264771,0.975609779358,0.12195122242,1.0,0.0,0.0,0.0,1.0,0.0,0.0,0.0,1.0,-0.804451757813,-0.890643017578,-9.32780908345,1.0,0.0,0.0,0.0,1.0,0.0,0.0,0.0,1.0
1463563960609180281,730,1463563960556227507,,3.1564643383,-5.25637769699,-93.439201355,0.0101309996098,1.0,0.0,0.0,0.0,1.0,0.0,0.0,0.0,1.0,-7.86585378647,1.2804877758,0.243902444839,1.0,0.0,0.0,0.0,1.0,0.0,0.0,0.0,1.0,-0.938527050781,-0.885854614258,-9.39484672993,1.0,0.0,0.0,0.0,1.0,0.0,0.0,0.0,1.0
1463563960609839260,731,1463563960566212507,,3.0738658905,-5.23853874207,-93.3012466431,0.0100819999352,1.0,0.0,0.0,0.0,1.0,0.0,0.0,0.0,1.0,-7.31707334518,0.853658556938,1.03658533096,1.0,0.0,0.0,0.0,1.0,0.0,0.0,0.0,1.0,-0.76135612793,-0.847547387695,-9.22725319824,1.0,0.0,0.0,0.0,1.0,0.0,0.0,0.0,1.0
1463563960623903808,732,1463563960576404580,,2.9910094738,-5.21601772308,-93.1642684937,0.0101349996403,1.0,0.0,0.0,0.0,1.0,0.0,0.0,0.0,1.0,-7.74390268326,0.792682945728,0.914634168148,1.0,0.0,0.0,0.0,1.0,0.0,0.0,0.0,1.0,-0.689530078125,-0.9193734375,-9.38048151997,1.0,0.0,0.0,0.0,1.0,0.0,0.0,0.0,1.0
1463563960623966774,733,1463563960586750501,,2.88807177544,-5.21041727066,-93.0199661255,0.0100880004466,1.0,0.0,0.0,0.0,1.0,0.0,0.0,0.0,1.0,-8.23170757294,-0.792682945728,1.64634156227,1.0,0.0,0.0,0.0,1.0,0.0,0.0,0.0,1.0,-0.689530078125,-0.651222851562,-9.28471345356,1.0,0.0,0.0,0.0,1.0,0.0,0.0,0.0,1.0
1463563960624025573,734,1463563960596552436,,2.79069876671,-5.21302318573,-92.8820266724,0.0100899999961,1.0,0.0,0.0,0.0,1.0,0.0,0.0,0.0,1.0,-8.41463470459,-1.2195122242,1.09756100178,1.0,0.0,0.0,0.0,1.0,0.0,0.0,0.0,1.0,-0.77093293457,-0.756567724609,-9.39963513325,1.0,0.0,0.0,0.0,1.0,0.0,0.0,0.0,1.0
1463563960624068383,735,1463563960606719875,,2.69710755348,-5.23170232773,-92.7524108887,0.0101100001484,1.0,0.0,0.0,0.0,1.0,0.0,0.0,0.0,1.0,-8.04878044128,-2.43902444839,0.304878056049,1.0,0.0,0.0,0.0,1.0,0.0,0.0,0.0,1.0,-0.833182177734,-0.723048901367,-9.27992563477,1.0,0.0,0.0,0.0,1.0,0.0,0.0,0.0,1.0
1463563960655738510,736,1463563960617281671,,2.6121764183,-5.25515508652,-92.6299057007,0.0101309996098,1.0,0.0,0.0,0.0,1.0,0.0,0.0,0.0,1.0,-7.62195110321,-2.86585378647,-0.365853667259,1.0,0.0,0.0,0.0,1.0,0.0,0.0,0.0,1.0,-0.871489404297,-0.790086547852,-9.4954043687,1.0,0.0,0.0,0.0,1.0,0.0,0.0,0.0,1.0
1463563960656037298,737,1463563960627305315,,2.52593636513,-5.28781223297,-92.5202026367,0.0101650003344,1.0,0.0,0.0,0.0,1.0,0.0,0.0,0.0,1.0,-7.80487823486,-3.29268312454,-1.64634156227,1.0,0.0,0.0,0.0,1.0,0.0,0.0,0.0,1.0,-0.962469067383,-0.76614453125,-9.43794235981,1.0,0.0,0.0,0.0,1.0,0.0,0.0,0.0,1.0
1463563960656298224,738,1463563960637372446,,2.44564127922,-5.30590391159,-92.4178619385,0.00999999977648,1.0,0.0,0.0,0.0,1.0,0.0,0.0,0.0,1.0,-7.62195110321,-2.98780488968,-2.19512200356,1.0,0.0,0.0,0.0,1.0,0.0,0.0,0.0,1.0,-0.794874951172,-0.794874951172,-9.50498117534,1.0,0.0,0.0,0.0,1.0,0.0,0.0,0.0,1.0
1463563960656374001,739,1463563960647432546,,2.35678243637,-5.32849597931,-92.3209838867,0.0101110003889,1.0,0.0,0.0,0.0,1.0,0.0,0.0,0.0,1.0,-7.80487823486,-3.96341490746,-2.86585378647,1.0,0.0,0.0,0.0,1.0,0.0,0.0,0.0,1.0,-0.708683691406,-0.670376464844,-9.46188437642,1.0,0.0,0.0,0.0,1.0,0.0,0.0,0.0,1.0
1463563960691407304,740,1463563960657895597,,2.28005766869,-5.36679553986,-92.2295379639,0.0102000003681,1.0,0.0,0.0,0.0,1.0,0.0,0.0,0.0,1.0,-7.50000047684,-5.0,-3.35365867615,1.0,0.0,0.0,0.0,1.0,0.0,0.0,0.0,1.0,-0.804451757813,-0.814028564453,-9.50976957866,1.0,0.0,0.0,0.0,1.0,0.0,0.0,0.0,1.0
1463563960691461572,741,1463563960667661023,,2.18852686882,-5.41648817062,-92.1396865845,0.0100940000266,1.0,0.0,0.0,0.0,1.0,0.0,0.0,0.0,1.0,-8.29268264771,-5.48780488968,-3.47560977936,1.0,0.0,0.0,0.0,1.0,0.0,0.0,0.0,1.0,-0.938527050781,-0.679953271484,-9.60553764507,1.0,0.0,0.0,0.0,1.0,0.0,0.0,0.0,1.0
1463563960695211604,742,1463563960677708364,,2.09541320801,-5.47341346741,-92.0568161011,0.010006999597,1.0,0.0,0.0,0.0,1.0,0.0,0.0,0.0,1.0,-8.47560977936,-6.15853643417,-4.08536577225,1.0,0.0,0.0,0.0,1.0,0.0,0.0,0.0,1.0,-0.962469067383,-0.641646044922,-9.53371159526,1.0,0.0,0.0,0.0,1.0,0.0,0.0,0.0,1.0
1463563960695494716,743,1463563960687809452,,2.01700496674,-5.51860618591,-91.9777679443,0.0101049998775,1.0,0.0,0.0,0.0,1.0,0.0,0.0,0.0,1.0,-7.98780536652,-6.0365858078,-4.45121955872,1.0,0.0,0.0,0.0,1.0,0.0,0.0,0.0,1.0,-0.814028564453,-0.823605371094,-9.81622680664,1.0,0.0,0.0,0.0,1.0,0.0,0.0,0.0,1.0
1463563960758777056,744,1463563960697845804,,1.90624988079,-5.58994150162,-91.8935775757,0.0100929997861,1.0,0.0,0.0,0.0,1.0,0.0,0.0,0.0,1.0,-9.81707286835,-7.50000047684,-4.02439022064,1.0,0.0,0.0,0.0,1.0,0.0,0.0,0.0,1.0,-1.01514150391,-0.574608398438,-9.77313117676,1.0,0.0,0.0,0.0,1.0,0.0,0.0,0.0,1.0
1463563960758814555,745,1463563960707994181,,1.79423570633,-5.65263223648,-91.8070755005,0.0101129999384,1.0,0.0,0.0,0.0,1.0,0.0,0.0,0.0,1.0,-10.1219511032,-8.17073154449,-3.7804877758,1.0,0.0,0.0,0.0,1.0,0.0,0.0,0.0,1.0,-0.77093293457,-0.603338854892,-9.90241806641,1.0,0.0,0.0,0.0,1.0,0.0,0.0,0.0,1.0
1463563960762104452,746,1463563960718180213,,1.67279446125,-5.72786426544,-91.7286605835,0.0100940000266,1.0,0.0,0.0,0.0,1.0,0.0,0.0,0.0,1.0,-10.0609760284,-9.69512176514,-4.63414621353,1.0,0.0,0.0,0.0,1.0,0.0,0.0,0.0,1.0,-0.742202514648,-0.392649072266,-9.90720646973,1.0,0.0,0.0,0.0,1.0,0.0,0.0,0.0,1.0
1463563960762163408,747,1463563960728313070,,1.54902398586,-5.81385755539,-91.65234375,0.0101300003007,1.0,0.0,0.0,0.0,1.0,0.0,0.0,0.0,1.0,-8.96341514587,-10.4268293381,-5.0,1.0,0.0,0.0,0.0,1.0,0.0,0.0,0.0,1.0,-0.818816967773,-0.143652099609,-9.97424411621,1.0,0.0,0.0,0.0,1.0,0.0,0.0,0.0,1.0
1463563960804731565,748,1463563960738256510,,1.46289694309,-5.90553426743,-91.592124939,0.0100760003552,1.0,0.0,0.0,0.0,1.0,0.0,0.0,0.0,1.0,-8.04878044128,-11.0975618362,-6.28048801422,1.0,0.0,0.0,0.0,1.0,0.0,0.0,0.0,1.0,-0.809240161133,-0.569819995117,-9.69651672363,1.0,0.0,0.0,0.0,1.0,0.0,0.0,0.0,1.0
1463563960804813227,749,1463563960748271560,,1.36842215061,-6.00903654099,-91.5270080566,0.010098000057,1.0,0.0,0.0,0.0,1.0,0.0,0.0,0.0,1.0,-8.29268264771,-12.1341466904,-5.85365867615,1.0,0.0,0.0,0.0,1.0,0.0,0.0,0.0,1.0,-0.847547387695,-0.469263525391,-9.73003554687,1.0,0.0,0.0,0.0,1.0,0.0,0.0,0.0,1.0
1463563960804867131,750,1463563960758500819,,1.27599322796,-6.11726713181,-91.464050293,0.0100999996066,1.0,0.0,0.0,0.0,1.0,0.0,0.0,0.0,1.0,-8.5365858078,-12.1951217651,-6.0365858078,1.0,0.0,0.0,0.0,1.0,0.0,0.0,0.0,1.0,-0.976834277344,-0.550666381836,-10.1274730225,1.0,0.0,0.0,0.0,1.0,0.0,0.0,0.0,1.0
1463563960804934055,751,1463563960768547014,,1.17140221596,-6.22843694687,-91.3987197876,0.0100870002061,1.0,0.0,0.0,0.0,1.0,0.0,0.0,0.0,1.0,-8.17073154449,-12.3780488968,-5.97560977936,1.0,0.0,0.0,0.0,1.0,0.0,0.0,0.0,1.0,-1.01514150391,-0.253785375977,-10.0843773926,1.0,0.0,0.0,0.0,1.0,0.0,0.0,0.0,1.0
1463563960812835038,752,1463563960778734869,,1.06610226631,-6.34074020386,-91.3352661133,0.0101399999112,1.0,0.0,0.0,0.0,1.0,0.0,0.0,0.0,1.0,-7.07317113876,-12.2560977936,-6.34146356583,1.0,0.0,0.0,0.0,1.0,0.0,0.0,0.0,1.0,-1.08696755371,-0.0335188255255,-10.2471831055,1.0,0.0,0.0,0.0,1.0,0.0,0.0,0.0,1.0
1463563960812921388,753,1463563960788565397,,0.986913025379,-6.44531869888,-91.271522522,0.0100819999352,1.0,0.0,0.0,0.0,1.0,0.0,0.0,0.0,1.0,-5.18292713165,-12.4390249252,-6.21951246262,1.0,0.0,0.0,0.0,1.0,0.0,0.0,0.0,1.0,-0.938527050781,-0.134075302102,-10.1514150391,1.0,0.0,0.0,0.0,1.0,0.0,0.0,0.0,1.0
1463563960813252258,754,1463563960798947565,,0.917732656002,-6.5427479744,-91.2028884888,0.0101509997621,1.0,0.0,0.0,0.0,1.0,0.0,0.0,0.0,1.0,-4.20731735229,-12.2560977936,-5.79268312454,1.0,0.0,0.0,0.0,1.0,0.0,0.0,0.0,1.0,-0.857124194336,-0.143652099609,-10.2280294922,1.0,0.0,0.0,0.0,1.0,0.0,0.0,0.0,1.0
1463563960813303245,755,1463563960808655755,,0.851867437363,-6.65294551849,-91.1244277954,0.0100180003792,1.0,0.0,0.0,0.0,1.0,0.0,0.0,0.0,1.0,-3.59756112099,-13.2926826477,-4.75609779358,1.0,0.0,0.0,0.0,1.0,0.0,0.0,0.0,1.0,-0.91458503418,-0.0861912597656,-9.95509050293,1.0,0.0,0.0,0.0,1.0,0.0,0.0,0.0,1.0
1463563961007111851,756,1463563960818726897,,0.796905875206,-6.76111650467,-91.0405044556,0.0101380003616,1.0,0.0,0.0,0.0,1.0,0.0,0.0,0.0,1.0,-3.47560977936,-12.8658542633,-4.20731735229,1.0,0.0,0.0,0.0,1.0,0.0,0.0,0.0,1.0,-0.962469067383,-0.272938989258,-10.0700121826,1.0,0.0,0.0,0.0,1.0,0.0,0.0,0.0,1.0
1463563961007401629,757,1463563960828672107,,0.739078640938,-6.87385940552,-90.9459915161,0.0100689996034,1.0,0.0,0.0,0.0,1.0,0.0,0.0,0.0,1.0,-2.74390244484,-12.8658542633,-3.23170733452,1.0,0.0,0.0,0.0,1.0,0.0,0.0,0.0,1.0,-1.07739082014,-0.100556469727,-10.0891657959,1.0,0.0,0.0,0.0,1.0,0.0,0.0,0.0,1.0
1463563961007451418,758,1463563960838824130,,0.686521232128,-6.97023820877,-90.8459854126,0.0100880004466,1.0,0.0,0.0,0.0,1.0,0.0,0.0,0.0,1.0,-2.56097555161,-11.8292684555,-2.68292689323,1.0,0.0,0.0,0.0,1.0,0.0,0.0,0.0,1.0,-0.986411083984,-0.167594116211,-10.0652237793,1.0,0.0,0.0,0.0,1.0,0.0,0.0,0.0,1.0
1463563961007844160,759,1463563960849226871,,0.638204038143,-7.06694173813,-90.7359008789,0.0101049998775,1.0,0.0,0.0,0.0,1.0,0.0,0.0,0.0,1.0,-1.64634156227,-11.7682924271,-1.76829278469,1.0,0.0,0.0,0.0,1.0,0.0,0.0,0.0,1.0,-1.01992990723,-0.0957680664062,-10.0939541992,1.0,0.0,0.0,0.0,1.0,0.0,0.0,0.0,1.0
1463563961008160031,760,1463563960859192444,,0.587926030159,-7.15477371216,-90.6286773682,0.0101220002398,1.0,0.0,0.0,0.0,1.0,0.0,0.0,0.0,1.0,-0.975609779358,-10.9146347046,-2.19512200356,1.0,0.0,0.0,0.0,1.0,0.0,0.0,0.0,1.0,-1.04866025408,0.0718260498047,-10.2519715088,1.0,0.0,0.0,0.0,1.0,0.0,0.0,0.0,1.0
1463563961008494442,761,1463563960869312698,,0.556449532509,-7.24474096298,-90.5155181885,0.0101039996371,1.0,0.0,0.0,0.0,1.0,0.0,0.0,0.0,1.0,1.76829278469,-10.8536586761,-1.70731711388,1.0,0.0,0.0,0.0,1.0,0.0,0.0,0.0,1.0,-1.13006318359,0.229843359375,-10.3668931885,1.0,0.0,0.0,0.0,1.0,0.0,0.0,0.0,1.0
1463563961008778127,762,1463563960879290979,,0.546112418175,-7.31480741501,-90.4061203003,0.0100889997557,1.0,0.0,0.0,0.0,1.0,0.0,0.0,0.0,1.0,4.2682929039,-9.81707286835,-2.13414645195,1.0,0.0,0.0,0.0,1.0,0.0,0.0,0.0,1.0,-0.976834277344,0.316034619141,-10.3621047852,1.0,0.0,0.0,0.0,1.0,0.0,0.0,0.0,1.0
1463563961008824895,763,1463563960889669763,,0.559357881546,-7.38724422455,-90.2842102051,0.0101100001484,1.0,0.0,0.0,0.0,1.0,0.0,0.0,0.0,1.0,7.07317113876,-9.87804889679,-0.975609779358,1.0,0.0,0.0,0.0,1.0,0.0,0.0,0.0,1.0,-1.02950671387,0.378283862305,-10.4913916748,1.0,0.0,0.0,0.0,1.0,0.0,0.0,0.0,1.0
1463563961009065405,764,1463563960899893085,,0.604198813438,-7.44943094254,-90.1516189575,0.0101490002126,1.0,0.0,0.0,0.0,1.0,0.0,0.0,0.0,1.0,9.51219558716,-9.51219558716,0.12195122242,1.0,0.0,0.0,0.0,1.0,0.0,0.0,0.0,1.0,-0.905008227539,0.220266552734,-10.3812583984,1.0,0.0,0.0,0.0,1.0,0.0,0.0,0.0,1.0
1463563961009107538,765,1463563960909803348,,0.656969487667,-7.51171112061,-90.0028457642,0.0100619997829,1.0,0.0,0.0,0.0,1.0,0.0,0.0,0.0,1.0,10.548781395,-9.45121955872,1.8292683363,1.0,0.0,0.0,0.0,1.0,0.0,0.0,0.0,1.0,-0.928950244141,0.205901342773,-10.3285859619,1.0,0.0,0.0,0.0,1.0,0.0,0.0,0.0,1.0
1463563961009479188,766,1463563960919872823,,0.741945803165,-7.57082223892,-89.8499603271,0.0101079996675,1.0,0.0,0.0,0.0,1.0,0.0,0.0,0.0,1.0,12.6829271317,-9.45121955872,2.31707310677,1.0,0.0,0.0,0.0,1.0,0.0,0.0,0.0,1.0,-0.866701000977,-0.00478840332031,-10.2471831055,1.0,0.0,0.0,0.0,1.0,0.0,0.0,0.0,1.0
1463563961009569131,767,1463563960930154424,,0.83527058363,-7.63357782364,-89.6803436279,0.0100929997861,1.0,0.0,0.0,0.0,1.0,0.0,0.0,0.0,1.0,13.5365858078,-9.93902492523,4.02439022064,1.0,0.0,0.0,0.0,1.0,0.0,0.0,0.0,1.0,-0.861912597656,-0.0622492431641,-10.419565625,1.0,0.0,0.0,0.0,1.0,0.0,0.0,0.0,1.0
1463563961009617306,768,1463563960940036199,,0.923197388649,-7.69560480118,-89.501159668,0.0100870002061,1.0,0.0,0.0,0.0,1.0,0.0,0.0,0.0,1.0,13.9634151459,-10.1829271317,4.87804889679,1.0,0.0,0.0,0.0,1.0,0.0,0.0,0.0,1.0,-0.814028564453,0.0718260498047,-10.4961800781,1.0,0.0,0.0,0.0,1.0,0.0,0.0,0.0,1.0
1463563961009655950,769,1463563960950103643,,1.01330053806,-7.77793455124,-89.3073043823,0.0100999996066,1.0,0.0,0.0,0.0,1.0,0.0,0.0,0.0,1.0,14.6951217651,-11.5243911743,6.28048801422,1.0,0.0,0.0,0.0,1.0,0.0,0.0,0.0,1.0,-0.943315454102,0.114921679688,-10.539275708,1.0,0.0,0.0,0.0,1.0,0.0,0.0,0.0,1.0
1463563961009928281,770,1463563960961110991,,1.10833489895,-7.85603570938,-89.096206665,0.0101220002398,1.0,0.0,0.0,0.0,1.0,0.0,0.0,0.0,1.0,15.4268302917,-11.0975618362,7.92682981491,1.0,0.0,0.0,0.0,1.0,0.0,0.0,0.0,1.0,-0.948103857422,0.100556469727,-10.5680061279,1.0,0.0,0.0,0.0,1.0,0.0,0.0,0.0,1.0
1463563961010207226,771,1463563960971103594,,1.22318899632,-7.93510150909,-88.8792572021,0.0101079996675,1.0,0.0,0.0,0.0,1.0,0.0,0.0,0.0,1.0,16.2195110321,-11.0975618362,8.71951198578,1.0,0.0,0.0,0.0,1.0,0.0,0.0,0.0,1.0,-0.981622680664,-0.162805712891,-10.658985791,1.0,0.0,0.0,0.0,1.0,0.0,0.0,0.0,1.0
1463563961010478151,772,1463563960980967298,,1.34358906746,-8.01388072968,-88.6547241211,0.0101020000875,1.0,0.0,0.0,0.0,1.0,0.0,0.0,0.0,1.0,17.1951217651,-11.1585359573,9.45121955872,1.0,0.0,0.0,0.0,1.0,0.0,0.0,0.0,1.0,-0.962469067383,-0.129286889648,-10.5871597412,1.0,0.0,0.0,0.0,1.0,0.0,0.0,0.0,1.0
1463563961011310196,773,1463563960991007191,,1.46252131462,-8.08508110046,-88.4221420288,0.0100859999657,1.0,0.0,0.0,0.0,1.0,0.0,0.0,0.0,1.0,17.4390239716,-10.4268293381,10.2439022064,1.0,0.0,0.0,0.0,1.0,0.0,0.0,0.0,1.0,-0.972045874023,-0.110133276367,-10.6829278076,1.0,0.0,0.0,0.0,1.0,0.0,0.0,0.0,1.0
1463563961011366860,774,1463563961000800116,,1.58794033527,-8.15624332428,-88.1870193481,0.010095000267,1.0,0.0,0.0,0.0,1.0,0.0,0.0,0.0,1.0,17.2560977936,-10.3048782349,10.6097564697,1.0,0.0,0.0,0.0,1.0,0.0,0.0,0.0,1.0,-0.986411083984,-0.296881024126,-10.5775829346,1.0,0.0,0.0,0.0,1.0,0.0,0.0,0.0,1.0
1463563961465279617,775,1463563961011153484,,1.70617771149,-8.22086906433,-87.9491653442,0.0100929997861,1.0,0.0,0.0,0.0,1.0,0.0,0.0,0.0,1.0,16.8292694092,-9.75609779358,10.8536586761,1.0,0.0,0.0,0.0,1.0,0.0,0.0,0.0,1.0,-0.981622680664,-0.282515795898,-10.6972930176,1.0,0.0,0.0,0.0,1.0,0.0,0.0,0.0,1.0
1463563961465335343,776,1463563961020812251,,1.81988573074,-8.2861032486,-87.7113265991,0.0101140001789,1.0,0.0,0.0,0.0,1.0,0.0,0.0,0.0,1.0,16.341463089,-8.71951198578,10.7926826477,1.0,0.0,0.0,0.0,1.0,0.0,0.0,0.0,1.0,-1.17315874041,-0.3064578125,-10.5296989014,1.0,0.0,0.0,0.0,1.0,0.0,0.0,0.0,1.0
1463563961465376956,777,1463563961030959849,,1.93384408951,-8.3411026001,-87.4768829346,0.010153000243,1.0,0.0,0.0,0.0,1.0,0.0,0.0,0.0,1.0,16.7073173523,-8.10975551605,10.3048782349,1.0,0.0,0.0,0.0,1.0,0.0,0.0,0.0,1.0,-1.12527478027,-0.253785375977,-10.7739074707,1.0,0.0,0.0,0.0,1.0,0.0,0.0,0.0,1.0
1463563961465413048,778,1463563961041217597,,2.04704427719,-8.39029502869,-87.2519989014,0.0100760003552,1.0,0.0,0.0,0.0,1.0,0.0,0.0,0.0,1.0,16.7073173523,-7.19512224197,9.51219558716,1.0,0.0,0.0,0.0,1.0,0.0,0.0,0.0,1.0,-1.17794714373,-0.253785375977,-10.5296989014,1.0,0.0,0.0,0.0,1.0,0.0,0.0,0.0,1.0
1463563961465474503,779,1463563961051484356,,2.16444706917,-8.42353534698,-87.0280227661,0.0102279996499,1.0,0.0,0.0,0.0,1.0,0.0,0.0,0.0,1.0,16.2804889679,-5.73170757294,9.14634132385,1.0,0.0,0.0,0.0,1.0,0.0,0.0,0.0,1.0,-1.14921679688,-0.392649072266,-10.524910498,1.0,0.0,0.0,0.0,1.0,0.0,0.0,0.0,1.0
1463563961465536167,780,1463563961061376133,,2.28240084648,-8.43426704407,-86.8088607788,0.0100269997492,1.0,0.0,0.0,0.0,1.0,0.0,0.0,0.0,1.0,15.975610733,-4.20731735229,9.14634132385,1.0,0.0,0.0,0.0,1.0,0.0,0.0,0.0,1.0,-1.03429511719,-0.531512805087,-10.6302553711,1.0,0.0,0.0,0.0,1.0,0.0,0.0,0.0,1.0
1463563961465578613,781,1463563961071461806,,2.38860201836,-8.44289684296,-86.5913696289,0.010169999674,1.0,0.0,0.0,0.0,1.0,0.0,0.0,0.0,1.0,14.2073173523,-3.53658556938,8.71951198578,1.0,0.0,0.0,0.0,1.0,0.0,0.0,0.0,1.0,-1.10133276367,-0.61770402832,-10.4818148682,1.0,0.0,0.0,0.0,1.0,0.0,0.0,0.0,1.0
1463563961465640277,782,1463563961081376863,,2.4765484333,-8.44566249847,-86.3803405762,0.0099670002237,1.0,0.0,0.0,0.0,1.0,0.0,0.0,0.0,1.0,12.1341466904,-2.56097555161,8.5365858078,1.0,0.0,0.0,0.0,1.0,0.0,0.0,0.0,1.0,-1.18273554705,-0.723048901367,-10.5632177246,1.0,0.0,0.0,0.0,1.0,0.0,0.0,0.0,1.0
1463563961465704128,783,1463563961091663673,,2.55070924759,-8.43141651154,-86.1734161377,0.0100729996338,1.0,0.0,0.0,0.0,1.0,0.0,0.0,0.0,1.0,10.7926826477,-2.07317066193,7.86585378647,1.0,0.0,0.0,0.0,1.0,0.0,0.0,0.0,1.0,-0.976834277344,-0.713472094727,-10.7978494873,1.0,0.0,0.0,0.0,1.0,0.0,0.0,0.0,1.0
1463563961465759021,784,1463563961101793824,,2.60395550728,-8.41714286804,-85.9678268433,0.0100999996066,1.0,0.0,0.0,0.0,1.0,0.0,0.0,0.0,1.0,9.02439117432,-1.8902438879,7.62195110321,1.0,0.0,0.0,0.0,1.0,0.0,0.0,0.0,1.0,-0.995987890625,-0.651222851562,-10.6781394043,1.0,0.0,0.0,0.0,1.0,0.0,0.0,0.0,1.0
1463563961465842247,785,1463563961111800334,,2.63546895981,-8.39885807037,-85.7588882446,0.0100940000266,1.0,0.0,0.0,0.0,1.0,0.0,0.0,0.0,1.0,7.86585378647,-1.46341466904,7.80487823486,1.0,0.0,0.0,0.0,1.0,0.0,0.0,0.0,1.0,-0.972045874023,-0.469263525391,-10.4482960449,1.0,0.0,0.0,0.0,1.0,0.0,0.0,0.0,1.0
1463563961465933909,786,1463563961121816688,,2.66397738457,-8.38190555573,-85.5552368164,0.0101129999384,1.0,0.0,0.0,0.0,1.0,0.0,0.0,0.0,1.0,7.43902492523,-1.46341466904,7.25609779358,1.0,0.0,0.0,0.0,1.0,0.0,0.0,0.0,1.0,-1.00077629395,-0.483628735352,-10.4913916748,1.0,0.0,0.0,0.0,1.0,0.0,0.0,0.0,1.0
1463563961465981146,787,1463563961131994701,,2.70307898521,-8.36276054382,-85.3584289551,0.0100899999961,1.0,0.0,0.0,0.0,1.0,0.0,0.0,0.0,1.0,7.74390268326,-0.975609779358,6.70731735229,1.0,0.0,0.0,0.0,1.0,0.0,0.0,0.0,1.0,-1.04387185076,-0.60812722168,-10.4243540283,1.0,0.0,0.0,0.0,1.0,0.0,0.0,0.0,1.0
1463563961468938143,788,1463563961142715501,,2.73280906677,-8.33769512177,-85.1544494629,0.0104189999402,1.0,0.0,0.0,0.0,1.0,0.0,0.0,0.0,1.0,7.19512224197,-0.914634168148,6.70731735229,1.0,0.0,0.0,0.0,1.0,0.0,0.0,0.0,1.0,-0.962469067383,-0.531512805087,-10.5105452881,1.0,0.0,0.0,0.0,1.0,0.0,0.0,0.0,1.0
1463563961468997516,789,1463563961152253180,,2.7592227459,-8.31520366669,-84.9635925293,0.00978200044483,1.0,0.0,0.0,0.0,1.0,0.0,0.0,0.0,1.0,6.70731735229,-1.2195122242,6.70731735229,1.0,0.0,0.0,0.0,1.0,0.0,0.0,0.0,1.0,-0.91458503418,-0.593762048251,-10.4578728516,1.0,0.0,0.0,0.0,1.0,0.0,0.0,0.0,1.0
1463563961469041263,790,1463563961162235525,,2.77963829041,-8.28729152679,-84.7632217407,0.0101079996675,1.0,0.0,0.0,0.0,1.0,0.0,0.0,0.0,1.0,6.40243911743,-0.914634168148,6.95121955872,1.0,0.0,0.0,0.0,1.0,0.0,0.0,0.0,1.0,-0.871489404297,-0.531512805087,-10.3908352051,1.0,0.0,0.0,0.0,1.0,0.0,0.0,0.0,1.0
1463563961469076418,791,1463563961172343541,,2.80162787437,-8.25538635254,-84.5588989258,0.0100940000266,1.0,0.0,0.0,0.0,1.0,0.0,0.0,0.0,1.0,6.58536624908,-1.03658533096,7.37804937363,1.0,0.0,0.0,0.0,1.0,0.0,0.0,0.0,1.0,-0.76614453125,-0.541089611728,-10.4099888184,1.0,0.0,0.0,0.0,1.0,0.0,0.0,0.0,1.0
1463563961469108760,792,1463563961182374998,,2.81794714928,-8.23614311218,-84.3511657715,0.0100969998166,1.0,0.0,0.0,0.0,1.0,0.0,0.0,0.0,1.0,6.34146356583,-1.34146344662,7.68292665482,1.0,0.0,0.0,0.0,1.0,0.0,0.0,0.0,1.0,-0.91458503418,-0.483628735352,-10.2136642822,1.0,0.0,0.0,0.0,1.0,0.0,0.0,0.0,1.0
1463563961469137978,793,1463563961192931327,,2.83505630493,-8.21471500397,-84.1343383789,0.0101169999689,1.0,0.0,0.0,0.0,1.0,0.0,0.0,0.0,1.0,6.89024400711,-1.2804877758,8.47560977936,1.0,0.0,0.0,0.0,1.0,0.0,0.0,0.0,1.0,-0.885854614258,-0.426167895508,-10.3381627686,1.0,0.0,0.0,0.0,1.0,0.0,0.0,0.0,1.0
1463563961469169070,794,1463563961202647018,,2.85512781143,-8.20311260223,-83.910194397,0.0101009998471,1.0,0.0,0.0,0.0,1.0,0.0,0.0,0.0,1.0,7.13414621353,-1.64634156227,9.26829242706,1.0,0.0,0.0,0.0,1.0,0.0,0.0,0.0,1.0,-0.957680664062,-0.445321508789,-10.0556469727,1.0,0.0,0.0,0.0,1.0,0.0,0.0,0.0,1.0
1463563961469213182,795,1463563961212988721,,2.88173127174,-8.18322849274,-83.6753234863,0.0103730000556,1.0,0.0,0.0,0.0,1.0,0.0,0.0,0.0,1.0,7.25609779358,-0.975609779358,9.75609779358,1.0,0.0,0.0,0.0,1.0,0.0,0.0,0.0,1.0,-0.948103857422,-0.550666381836,-10.2232410889,1.0,0.0,0.0,0.0,1.0,0.0,0.0,0.0,1.0
1463563961469244796,796,1463563961222754566,,2.90851163864,-8.1576089859,-83.441368103,0.00982400029898,1.0,0.0,0.0,0.0,1.0,0.0,0.0,0.0,1.0,7.50000047684,-0.670731723309,10.9146347046,1.0,0.0,0.0,0.0,1.0,0.0,0.0,0.0,1.0,-0.847547387695,-0.560243188477,-10.060435376,1.0,0.0,0.0,0.0,1.0,0.0,0.0,0.0,1.0
1463563961469281044,797,1463563961233007524,,2.93024802208,-8.13287067413,-83.1913452148,0.0101039996371,1.0,0.0,0.0,0.0,1.0,0.0,0.0,0.0,1.0,8.04878044128,-0.975609779358,11.7073173523,1.0,0.0,0.0,0.0,1.0,0.0,0.0,0.0,1.0,-0.804451757813,-0.383072265625,-10.0269165527,1.0,0.0,0.0,0.0,1.0,0.0,0.0,0.0,1.0
1463563961469320052,798,1463563961243473388,,2.96315288544,-8.12207698822,-82.9284973145,0.0101070003584,1.0,0.0,0.0,0.0,1.0,0.0,0.0,0.0,1.0,7.19512224197,-1.52439022064,13.2926826477,1.0,0.0,0.0,0.0,1.0,0.0,0.0,0.0,1.0,-0.928950244141,-0.76614453125,-9.97424411621,1.0,0.0,0.0,0.0,1.0,0.0,0.0,0.0,1.0
1463563961469362707,799,1463563961253168559,,2.99117541313,-8.11107730865,-82.6535491943,0.0100899999961,1.0,0.0,0.0,0.0,1.0,0.0,0.0,0.0,1.0,7.31707334518,-1.34146344662,14.4512205124,1.0,0.0,0.0,0.0,1.0,0.0,0.0,0.0,1.0,-0.948103857422,-0.699106884766,-10.0364933594,1.0,0.0,0.0,0.0,1.0,0.0,0.0,0.0,1.0
1463563961469627486,800,1463563961263189183,,3.01451802254,-8.09634017944,-82.3722915649,0.0101030003279,1.0,0.0,0.0,0.0,1.0,0.0,0.0,0.0,1.0,7.37804937363,-0.731707334518,14.9390249252,1.0,0.0,0.0,0.0,1.0,0.0,0.0,0.0,1.0,-0.981622680664,-0.622492431641,-10.0317049561,1.0,0.0,0.0,0.0,1.0,0.0,0.0,0.0,1.0
1463563961469704618,801,1463563961273651714,,3.03807783127,-8.07928371429,-82.0823898315,0.0101150004193,1.0,0.0,0.0,0.0,1.0,0.0,0.0,0.0,1.0,7.98780536652,-1.58536589146,15.7317075729,1.0,0.0,0.0,0.0,1.0,0.0,0.0,0.0,1.0,-0.77093293457,-0.536301208408,-9.96945571289,1.0,0.0,0.0,0.0,1.0,0.0,0.0,0.0,1.0
1463563961469744251,802,1463563961283306835,,3.07169914246,-8.06366920471,-81.7903518677,0.0100800003856,1.0,0.0,0.0,0.0,1.0,0.0,0.0,0.0,1.0,9.26829242706,-2.13414645195,16.0365848541,1.0,0.0,0.0,0.0,1.0,0.0,0.0,0.0,1.0,-0.689530078125,-0.497993945312,-9.96945571289,1.0,0.0,0.0,0.0,1.0,0.0,0.0,0.0,1.0
1463563961469793207,803,1463563961293431882,,3.12647438049,-8.06345653534,-81.4971694946,0.0101169999689,1.0,0.0,0.0,0.0,1.0,0.0,0.0,0.0,1.0,11.2804880142,-2.92682933807,16.0975608826,1.0,0.0,0.0,0.0,1.0,0.0,0.0,0.0,1.0,-0.823605371094,-0.521935925381,-10.0939541992,1.0,0.0,0.0,0.0,1.0,0.0,0.0,0.0,1.0
1463563961469872422,804,1463563961303631560,,3.19921636581,-8.06257820129,-81.1972885132,0.0101110003889,1.0,0.0,0.0,0.0,1.0,0.0,0.0,0.0,1.0,12.6219520569,-3.65853667259,16.8902435303,1.0,0.0,0.0,0.0,1.0,0.0,0.0,0.0,1.0,-0.660799658203,-0.622492431641,-9.99818613281,1.0,0.0,0.0,0.0,1.0,0.0,0.0,0.0,1.0
1463563961469920441,805,1463563961313648071,,3.2878742218,-8.08130741119,-80.8992004395,0.0100889997557,1.0,0.0,0.0,0.0,1.0,0.0,0.0,0.0,1.0,14.5121955872,-5.24390268326,16.8292694092,1.0,0.0,0.0,0.0,1.0,0.0,0.0,0.0,1.0,-0.723048901367,-0.584185168546,-10.0652237793,1.0,0.0,0.0,0.0,1.0,0.0,0.0,0.0,1.0
1463563961470185741,806,1463563961323944568,,3.39650917053,-8.11613273621,-80.6030960083,0.010095000267,1.0,0.0,0.0,0.0,1.0,0.0,0.0,0.0,1.0,15.548781395,-6.46341466904,16.8292694092,1.0,0.0,0.0,0.0,1.0,0.0,0.0,0.0,1.0,-0.785298144531,-0.76614453125,-10.060435376,1.0,0.0,0.0,0.0,1.0,0.0,0.0,0.0,1.0
1463563961470248967,807,1463563961333857124,,3.50788784027,-8.15833950043,-80.3054122925,0.010098000057,1.0,0.0,0.0,0.0,1.0,0.0,0.0,0.0,1.0,16.0365848541,-7.31707334518,17.0121955872,1.0,0.0,0.0,0.0,1.0,0.0,0.0,0.0,1.0,-0.76614453125,-0.76135612793,-10.1705686523,1.0,0.0,0.0,0.0,1.0,0.0,0.0,0.0,1.0
1463563961470295319,808,1463563961344662556,,3.62885832787,-8.20839595795,-80.0139846802,0.010108999908,1.0,0.0,0.0,0.0,1.0,0.0,0.0,0.0,1.0,16.7073173523,-8.17073154449,16.4634151459,1.0,0.0,0.0,0.0,1.0,0.0,0.0,0.0,1.0,-0.751779321289,-0.814028564453,-10.1274730225,1.0,0.0,0.0,0.0,1.0,0.0,0.0,0.0,1.0
1463563961470331307,809,1463563961354151070,,3.76792216301,-8.27597236633,-79.7317657471,0.0101009998471,1.0,0.0,0.0,0.0,1.0,0.0,0.0,0.0,1.0,17.1951217651,-9.32926845551,15.8536596298,1.0,0.0,0.0,0.0,1.0,0.0,0.0,0.0,1.0,-0.866701000977,-1.06302561017,-10.1753570557,1.0,0.0,0.0,0.0,1.0,0.0,0.0,0.0,1.0
1463563961470367139,810,1463563961364470639,,3.89875936508,-8.35071086884,-79.4616394043,0.0101110003889,1.0,0.0,0.0,0.0,1.0,0.0,0.0,0.0,1.0,16.4024391174,-10.1829271317,14.6951217651,1.0,0.0,0.0,0.0,1.0,0.0,0.0,0.0,1.0,-0.852335791016,-1.0534486574,-10.1562034424,1.0,0.0,0.0,0.0,1.0,0.0,0.0,0.0,1.0
1463563961470415210,811,1463563961374334552,,4.0228972435,-8.42630767822,-79.204536438,0.0101070003584,1.0,0.0,0.0,0.0,1.0,0.0,0.0,0.0,1.0,16.2804889679,-11.0975618362,13.4146347046,1.0,0.0,0.0,0.0,1.0,0.0,0.0,0.0,1.0,-0.723048901367,-0.952892260742,-10.180145459,1.0,0.0,0.0,0.0,1.0,0.0,0.0,0.0,1.0
1463563961470473019,812,1463563961384826821,,4.15575885773,-8.51595878601,-78.967338562,0.0100670000538,1.0,0.0,0.0,0.0,1.0,0.0,0.0,0.0,1.0,15.7317075729,-12.0121955872,11.8292684555,1.0,0.0,0.0,0.0,1.0,0.0,0.0,0.0,1.0,-0.852335791016,-1.21625444336,-10.3094323486,1.0,0.0,0.0,0.0,1.0,0.0,0.0,0.0,1.0
1463563961470516194,813,1463563961394503139,,4.27863550186,-8.61362457275,-78.744972229,0.0101349996403,1.0,0.0,0.0,0.0,1.0,0.0,0.0,0.0,1.0,14.0853662491,-12.8048782349,10.3658542633,1.0,0.0,0.0,0.0,1.0,0.0,0.0,0.0,1.0,-0.857124194336,-1.29286889648,-10.1753570557,1.0,0.0,0.0,0.0,1.0,0.0,0.0,0.0,1.0
1463563961470587389,814,1463563961404612509,,4.39433145523,-8.7231054306,-78.5414199829,0.0100880004466,1.0,0.0,0.0,0.0,1.0,0.0,0.0,0.0,1.0,12.2560977936,-13.4146347046,8.84146404266,1.0,0.0,0.0,0.0,1.0,0.0,0.0,0.0,1.0,-0.991199487305,-1.47961662598,-10.0891657959,1.0,0.0,0.0,0.0,1.0,0.0,0.0,0.0,1.0
1463563961470792640,815,1463563961414791772,,4.48502731323,-8.83824253082,-78.352973938,0.0101150004193,1.0,0.0,0.0,0.0,1.0,0.0,0.0,0.0,1.0,9.87804889679,-13.7804880142,7.31707334518,1.0,0.0,0.0,0.0,1.0,0.0,0.0,0.0,1.0,-1.06302561017,-1.45088620605,-10.1562034424,1.0,0.0,0.0,0.0,1.0,0.0,0.0,0.0,1.0
1463563961478795286,816,1463563961425132486,,4.5575799942,-8.9465713501,-78.1886672974,0.0100800003856,1.0,0.0,0.0,0.0,1.0,0.0,0.0,0.0,1.0,7.07317113876,-13.4756097794,5.12195110321,1.0,0.0,0.0,0.0,1.0,0.0,0.0,0.0,1.0,-1.03429511719,-1.57538469238,-9.99818613281,1.0,0.0,0.0,0.0,1.0,0.0,0.0,0.0,1.0
1463563961478863408,817,1463563961434952807,,4.61477613449,-9.06142425537,-78.0429611206,0.0100959995762,1.0,0.0,0.0,0.0,1.0,0.0,0.0,0.0,1.0,5.0,-13.658536911,3.35365867615,1.0,0.0,0.0,0.0,1.0,0.0,0.0,0.0,1.0,-1.14442839355,-1.62326872559,-9.88805285645,1.0,0.0,0.0,0.0,1.0,0.0,0.0,0.0,1.0
