%time,field.header.seq,field.header.stamp,field.header.frame_id,field.orientation.x,field.orientation.y,field.orientation.z,field.orientation.w,field.orientation_covariance0,field.orientation_covariance1,field.orientation_covariance2,field.orientation_covariance3,field.orientation_covariance4,field.orientation_covariance5,field.orientation_covariance6,field.orientation_covariance7,field.orientation_covariance8,field.angular_velocity.x,field.angular_velocity.y,field.angular_velocity.z,field.angular_velocity_covariance0,field.angular_velocity_covariance1,field.angular_velocity_covariance2,field.angular_velocity_covariance3,field.angular_velocity_covariance4,field.angular_velocity_covariance5,field.angular_velocity_covariance6,field.angular_velocity_covariance7,field.angular_velocity_covariance8,field.linear_acceleration.x,field.linear_acceleration.y,field.linear_acceleration.z,field.linear_acceleration_covariance0,field.linear_acceleration_covariance1,field.linear_acceleration_covariance2,field.linear_acceleration_covariance3,field.linear_acceleration_covariance4,field.linear_acceleration_covariance5,field.linear_acceleration_covariance6,field.linear_acceleration_covariance7,field.linear_acceleration_covariance8
1464109362016422388,195,1464109361772571456,,6.5443649292,-6.6222987175,-18.0785694122,0.00115200004075,1.0,0.0,0.0,0.0,1.0,0.0,0.0,0.0,1.0,-3.84146332741,21.0975627899,-1.64634156227,1.0,0.0,0.0,0.0,1.0,0.0,0.0,0.0,1.0,0.177170922852,-1.02950671387,12.1769096436,1.0,0.0,0.0,0.0,1.0,0.0,0.0,0.0,1.0
1464109362016672752,196,1464109361793194367,,6.9380068779,-6.74063587189,-18.2881298065,0.00114099995699,1.0,0.0,0.0,0.0,1.0,0.0,0.0,0.0,1.0,-6.89024400711,18.9634151459,3.23170733452,1.0,0.0,0.0,0.0,1.0,0.0,0.0,0.0,1.0,-0.277727392578,-1.11569797363,12.2008516602,1.0,0.0,0.0,0.0,1.0,0.0,0.0,0.0,1.0
1464109362016715616,197,1464109361814031756,,7.29604291916,-6.9187746048,-18.3937835693,0.00101600005291,1.0,0.0,0.0,0.0,1.0,0.0,0.0,0.0,1.0,-10.548781395,10.1219511032,6.89024400711,1.0,0.0,0.0,0.0,1.0,0.0,0.0,0.0,1.0,-0.77093293457,-1.20667770978,12.1194488037,1.0,0.0,0.0,0.0,1.0,0.0,0.0,0.0,1.0
1464109362016771970,198,1464109361836667422,,7.44627904892,-7.18863916397,-18.4202251434,0.00486500002444,1.0,0.0,0.0,0.0,1.0,0.0,0.0,0.0,1.0,-13.7804880142,-1.70731711388,9.45121955872,1.0,0.0,0.0,0.0,1.0,0.0,0.0,0.0,1.0,-0.847547387695,-1.42694418945,12.3349269531,1.0,0.0,0.0,0.0,1.0,0.0,0.0,0.0,1.0
1464109362016837595,199,1464109361857610176,,7.38226556778,-7.50782251358,-18.3959274292,0.00157700001728,1.0,0.0,0.0,0.0,1.0,0.0,0.0,0.0,1.0,-15.4878053665,-9.93902492523,9.14634132385,1.0,0.0,0.0,0.0,1.0,0.0,0.0,0.0,1.0,-0.852335791016,-1.94409174805,12.5599819092,1.0,0.0,0.0,0.0,1.0,0.0,0.0,0.0,1.0
1464109362016926189,200,1464109361883143646,,7.12064647675,-7.94836235046,-18.3738193512,0.00746200000867,1.0,0.0,0.0,0.0,1.0,0.0,0.0,0.0,1.0,-13.1097564697,-15.3658533096,7.01219511032,1.0,0.0,0.0,0.0,1.0,0.0,0.0,0.0,1.0,-0.842758984375,-2.64319863281,12.5743471191,1.0,0.0,0.0,0.0,1.0,0.0,0.0,0.0,1.0
1464109362017026449,201,1464109361904948221,,6.81817054749,-8.26233673096,-18.4031734467,0.00757999997586,1.0,0.0,0.0,0.0,1.0,0.0,0.0,0.0,1.0,-7.25609779358,-17.4390239716,5.79268312454,1.0,0.0,0.0,0.0,1.0,0.0,0.0,0.0,1.0,-0.756567724609,-2.78685073242,12.7802484619,1.0,0.0,0.0,0.0,1.0,0.0,0.0,0.0,1.0
1464109362017099261,202,1464109361927363106,,6.5110077858,-8.45611763,-18.4569377899,0.00277399993502,1.0,0.0,0.0,0.0,1.0,0.0,0.0,0.0,1.0,-5.0,-13.048781395,3.96341490746,1.0,0.0,0.0,0.0,1.0,0.0,0.0,0.0,1.0,0.0239420166016,-2.26012636719,13.005303418,1.0,0.0,0.0,0.0,1.0,0.0,0.0,0.0,1.0
1464109362017242229,203,1464109361948533932,,6.36827659607,-8.57397937775,-18.5493545532,0.00356100010686,1.0,0.0,0.0,0.0,1.0,0.0,0.0,0.0,1.0,-5.85365867615,-0.365853667259,3.90243911743,1.0,0.0,0.0,0.0,1.0,0.0,0.0,0.0,1.0,0.292092584273,-2.16435844691,13.5511813965,1.0,0.0,0.0,0.0,1.0,0.0,0.0,0.0,1.0
1464109362017315354,204,1464109361974187142,,6.50342845917,-8.74520301819,-18.7229328156,0.00319500011392,1.0,0.0,0.0,0.0,1.0,0.0,0.0,0.0,1.0,-4.57317066193,6.09756088257,0.243902444839,1.0,0.0,0.0,0.0,1.0,0.0,0.0,0.0,1.0,-0.536301208408,-2.15957004359,12.7275760254,1.0,0.0,0.0,0.0,1.0,0.0,0.0,0.0,1.0
1464109362017563426,205,1464109361991227563,,6.639980793,-8.8710193634,-18.9816551208,0.00116500002332,1.0,0.0,0.0,0.0,1.0,0.0,0.0,0.0,1.0,-4.14634132385,5.24390268326,-4.87804889679,1.0,0.0,0.0,0.0,1.0,0.0,0.0,0.0,1.0,-0.497993945312,-1.84353527832,11.9518546875,1.0,0.0,0.0,0.0,1.0,0.0,0.0,0.0,1.0
1464109362018191029,206,1464109362012235316,,6.73638963699,-9.00315284729,-19.3531532288,0.0011930000037,1.0,0.0,0.0,0.0,1.0,0.0,0.0,0.0,1.0,-4.81707286835,3.90243911743,-9.75609779358,1.0,0.0,0.0,0.0,1.0,0.0,0.0,0.0,1.0,-0.60812722168,-1.57059628906,11.4203419189,1.0,0.0,0.0,0.0,1.0,0.0,0.0,0.0,1.0
1464109362035094002,207,1464109362033091143,,6.7549738884,-9.16363811493,-19.8269138336,0.0010529999854,1.0,0.0,0.0,0.0,1.0,0.0,0.0,0.0,1.0,-3.59756112099,4.08536577225,-13.4756097794,1.0,0.0,0.0,0.0,1.0,0.0,0.0,0.0,1.0,-0.0191536132812,-2.02549460449,11.3245738525,1.0,0.0,0.0,0.0,1.0,0.0,0.0,0.0,1.0
1464109362060219349,208,1464109362054032074,,6.82105588913,-9.29327297211,-20.3312072754,0.00102700002026,1.0,0.0,0.0,0.0,1.0,0.0,0.0,0.0,1.0,-0.487804889679,6.15853643417,-13.7804880142,1.0,0.0,0.0,0.0,1.0,0.0,0.0,0.0,1.0,-0.263362164351,-2.18351191406,11.0755768799,1.0,0.0,0.0,0.0,1.0,0.0,0.0,0.0,1.0
1464109362079009713,209,1464109362075085609,,6.91122531891,-9.35225582123,-20.8163070679,0.000969999993686,1.0,0.0,0.0,0.0,1.0,0.0,0.0,0.0,1.0,0.548780500889,5.36585378647,-11.7682924271,1.0,0.0,0.0,0.0,1.0,0.0,0.0,0.0,1.0,-0.641646044922,-1.96803376465,11.152191333,1.0,0.0,0.0,0.0,1.0,0.0,0.0,0.0,1.0
1464109362104057039,210,1464109362101523452,,6.94085693359,-9.40561008453,-21.2298774719,0.000965000013821,1.0,0.0,0.0,0.0,1.0,0.0,0.0,0.0,1.0,0.914634168148,6.58536624908,-6.52439069748,1.0,0.0,0.0,0.0,1.0,0.0,0.0,0.0,1.0,-0.0430956298828,-1.5322890625,10.8792523438,1.0,0.0,0.0,0.0,1.0,0.0,0.0,0.0,1.0
1464109362128780355,211,1464109362121427407,,7.09322595596,-9.43970680237,-21.5847244263,0.00374000007287,1.0,0.0,0.0,0.0,1.0,0.0,0.0,0.0,1.0,-0.0609756112099,5.73170757294,-3.71951246262,1.0,0.0,0.0,0.0,1.0,0.0,0.0,0.0,1.0,-1.60890351563,-1.22583125,11.1426145264,1.0,0.0,0.0,0.0,1.0,0.0,0.0,0.0,1.0
1464109362145014528,212,1464109362141827089,,7.20692253113,-9.47943115234,-21.8413066864,0.00423600012437,1.0,0.0,0.0,0.0,1.0,0.0,0.0,0.0,1.0,-3.17073178291,4.75609779358,-0.243902444839,1.0,0.0,0.0,0.0,1.0,0.0,0.0,0.0,1.0,-0.0335188255255,-1.57059628906,10.4961800781,1.0,0.0,0.0,0.0,1.0,0.0,0.0,0.0,1.0
1464109362164065152,213,1464109362162399375,,7.27442407608,-9.49374866486,-21.9463710785,0.00123399996664,1.0,0.0,0.0,0.0,1.0,0.0,0.0,0.0,1.0,52.5609779358,-1.15853655338,8.17073154449,1.0,0.0,0.0,0.0,1.0,0.0,0.0,0.0,1.0,2.38941340297,-7.91044228516,20.0490447021,1.0,0.0,0.0,0.0,1.0,0.0,0.0,0.0,1.0
1464109362188403678,214,1464109362185519623,,7.44361829758,-8.25183391571,-22.0358505249,0.00593499979004,1.0,0.0,0.0,0.0,1.0,0.0,0.0,0.0,1.0,43.1097564697,10.1829271317,6.40243911743,1.0,0.0,0.0,0.0,1.0,0.0,0.0,0.0,1.0,-0.378283862305,-1.36469494629,9.04050546875,1.0,0.0,0.0,0.0,1.0,0.0,0.0,0.0,1.0
1464109362211778300,215,1464109362206286128,,7.52184391022,-7.52510547638,-22.1126213074,0.00106899999082,1.0,0.0,0.0,0.0,1.0,0.0,0.0,0.0,1.0,39.2682914734,1.2195122242,3.17073178291,1.0,0.0,0.0,0.0,1.0,0.0,0.0,0.0,1.0,0.378283862305,-0.354341845703,8.74362446289,1.0,0.0,0.0,0.0,1.0,0.0,0.0,0.0,1.0
1464109362237976351,216,1464109362227721588,,7.48890113831,-6.77721118927,-22.2586803436,0.00115999998525,1.0,0.0,0.0,0.0,1.0,0.0,0.0,0.0,1.0,32.0731697083,2.68292689323,1.64634156227,1.0,0.0,0.0,0.0,1.0,0.0,0.0,0.0,1.0,-0.378283862305,-0.981622680664,9.94551369629,1.0,0.0,0.0,0.0,1.0,0.0,0.0,0.0,1.0
1464109362253817609,217,1464109362248386426,,7.52576303482,-6.07124471664,-22.4216747284,0.00108600000385,1.0,0.0,0.0,0.0,1.0,0.0,0.0,0.0,1.0,-26.0365848541,10.3658542633,-8.5365858078,1.0,0.0,0.0,0.0,1.0,0.0,0.0,0.0,1.0,0.569819995117,0.292092584273,10.4387192383,1.0,0.0,0.0,0.0,1.0,0.0,0.0,0.0,1.0
1464109362272805577,218,1464109362269466524,,7.65972232819,-6.1122584343,-22.7894115448,0.00130600004923,1.0,0.0,0.0,0.0,1.0,0.0,0.0,0.0,1.0,7.01219511032,7.50000047684,-5.54878091812,1.0,0.0,0.0,0.0,1.0,0.0,0.0,0.0,1.0,-0.292092584273,1.95366855469,6.28238515625,1.0,0.0,0.0,0.0,1.0,0.0,0.0,0.0,1.0
1464109362303105388,219,1464109362290500423,,7.66247034073,-6.11706781387,-23.0319843292,0.00127500004601,1.0,0.0,0.0,0.0,1.0,0.0,0.0,0.0,1.0,5.67073154449,3.65853667259,-0.670731723309,1.0,0.0,0.0,0.0,1.0,0.0,0.0,0.0,1.0,-0.0143652099609,-1.95845695801,9.72045874023,1.0,0.0,0.0,0.0,1.0,0.0,0.0,0.0,1.0
1464109362317206390,220,1464109362311776093,,7.80064535141,-5.87001228333,-23.2533855438,0.00125700002536,1.0,0.0,0.0,0.0,1.0,0.0,0.0,0.0,1.0,13.658536911,7.56097555161,-2.01219511032,1.0,0.0,0.0,0.0,1.0,0.0,0.0,0.0,1.0,-0.708683691406,-0.732625708008,10.7356002441,1.0,0.0,0.0,0.0,1.0,0.0,0.0,0.0,1.0
1464109362335138475,221,1464109362332495097,,7.91557741165,-5.62040996552,-23.4583129883,0.00101000000723,1.0,0.0,0.0,0.0,1.0,0.0,0.0,0.0,1.0,17.1951217651,8.5365858078,2.13414645195,1.0,0.0,0.0,0.0,1.0,0.0,0.0,0.0,1.0,0.220266552734,-1.02950671387,10.5775829346,1.0,0.0,0.0,0.0,1.0,0.0,0.0,0.0,1.0
1464109362356882633,222,1464109362353565611,,8.1048116684,-5.30886030197,-23.6241664886,0.00108700001147,1.0,0.0,0.0,0.0,1.0,0.0,0.0,0.0,1.0,15.975610733,10.4878053665,1.09756100178,1.0,0.0,0.0,0.0,1.0,0.0,0.0,0.0,1.0,-0.593762048251,-0.636857641602,9.78749638672,1.0,0.0,0.0,0.0,1.0,0.0,0.0,0.0,1.0
1464109362378447885,223,1464109362374928260,,8.26062679291,-4.93036937714,-23.8177604675,0.00159899995197,1.0,0.0,0.0,0.0,1.0,0.0,0.0,0.0,1.0,16.7073173523,5.12195110321,-1.2195122242,1.0,0.0,0.0,0.0,1.0,0.0,0.0,0.0,1.0,-0.517147558594,-0.521935925381,10.4243540283,1.0,0.0,0.0,0.0,1.0,0.0,0.0,0.0,1.0
1464109362399769961,224,1464109362396297210,,8.35927295685,-4.65268182755,-24.0493087769,0.00115599995479,1.0,0.0,0.0,0.0,1.0,0.0,0.0,0.0,1.0,10.7317075729,2.31707310677,-0.731707334518,1.0,0.0,0.0,0.0,1.0,0.0,0.0,0.0,1.0,-0.689530078125,-0.794874951172,10.539275708,1.0,0.0,0.0,0.0,1.0,0.0,0.0,0.0,1.0
1464109362424488798,225,1464109362417387516,,8.39126491547,-4.46295166016,-24.2476158142,0.00146599998698,1.0,0.0,0.0,0.0,1.0,0.0,0.0,0.0,1.0,8.17073154449,2.62195134163,-0.548780500889,1.0,0.0,0.0,0.0,1.0,0.0,0.0,0.0,1.0,-0.272938989258,-0.76614453125,10.5488525146,1.0,0.0,0.0,0.0,1.0,0.0,0.0,0.0,1.0
1464109362444184003,226,1464109362439304486,,8.43653202057,-4.32486438751,-24.4452285767,0.00148800003808,1.0,0.0,0.0,0.0,1.0,0.0,0.0,0.0,1.0,3.53658556938,2.74390244484,0.426829278469,1.0,0.0,0.0,0.0,1.0,0.0,0.0,0.0,1.0,-0.0239420166016,-0.675164868164,10.5344873047,1.0,0.0,0.0,0.0,1.0,0.0,0.0,0.0,1.0
1464109362463818844,227,1464109362460367604,,8.48881340027,-4.29516029358,-24.6150932312,0.00163299997803,1.0,0.0,0.0,0.0,1.0,0.0,0.0,0.0,1.0,0.914634168148,4.45121955872,0.609756112099,1.0,0.0,0.0,0.0,1.0,0.0,0.0,0.0,1.0,-0.316034619141,-0.560243188477,10.1897222656,1.0,0.0,0.0,0.0,1.0,0.0,0.0,0.0,1.0
1464109362482793479,228,1464109362480595933,,8.5628118515,-4.23545885086,-24.7938785553,0.0024830000475,1.0,0.0,0.0,0.0,1.0,0.0,0.0,0.0,1.0,1.2195122242,2.01219511032,0.18292683363,1.0,0.0,0.0,0.0,1.0,0.0,0.0,0.0,1.0,-0.416591088867,-1.02950671387,10.6685625977,1.0,0.0,0.0,0.0,1.0,0.0,0.0,0.0,1.0
1464109362506054768,229,1464109362502001602,,8.58487510681,-4.17312669754,-24.9800815582,0.00139300001319,1.0,0.0,0.0,0.0,1.0,0.0,0.0,0.0,1.0,1.09756100178,1.40243899822,-0.670731723309,1.0,0.0,0.0,0.0,1.0,0.0,0.0,0.0,1.0,-0.507570751953,-0.679953271484,10.778695874,1.0,0.0,0.0,0.0,1.0,0.0,0.0,0.0,1.0
1464109362526153357,230,1464109362522140139,,8.58175849915,-4.15334796906,-25.1966934204,0.00133999995887,1.0,0.0,0.0,0.0,1.0,0.0,0.0,0.0,1.0,1.15853655338,2.68292689323,-1.09756100178,1.0,0.0,0.0,0.0,1.0,0.0,0.0,0.0,1.0,-0.181959326172,-0.45968671875,10.3190091553,1.0,0.0,0.0,0.0,1.0,0.0,0.0,0.0,1.0
1464109362548472930,231,1464109362543763048,,8.62455177307,-4.16295480728,-25.3791065216,0.00122400000691,1.0,0.0,0.0,0.0,1.0,0.0,0.0,0.0,1.0,1.09756100178,4.81707286835,1.34146344662,1.0,0.0,0.0,0.0,1.0,0.0,0.0,0.0,1.0,0.0,-0.627280834961,10.165780249,1.0,0.0,0.0,0.0,1.0,0.0,0.0,0.0,1.0
1464109362567707460,232,1464109362564817676,,8.7016954422,-4.19298171997,-25.5637264252,0.00138699996751,1.0,0.0,0.0,0.0,1.0,0.0,0.0,0.0,1.0,0.304878056049,3.23170733452,-1.2804877758,1.0,0.0,0.0,0.0,1.0,0.0,0.0,0.0,1.0,-0.411802685547,-1.03908344744,10.2423947021,1.0,0.0,0.0,0.0,1.0,0.0,0.0,0.0,1.0
1464109362589215368,233,1464109362585977513,,8.73894309998,-4.25425386429,-25.8011054993,0.00224700011313,1.0,0.0,0.0,0.0,1.0,0.0,0.0,0.0,1.0,0.426829278469,1.64634156227,-1.58536589146,1.0,0.0,0.0,0.0,1.0,0.0,0.0,0.0,1.0,-0.493205541992,-1.26413847656,10.3956236084,1.0,0.0,0.0,0.0,1.0,0.0,0.0,0.0,1.0
1464109362609829894,234,1464109362606440008,,8.76817512512,-4.30086612701,-25.9977817535,0.00145900005009,1.0,0.0,0.0,0.0,1.0,0.0,0.0,0.0,1.0,0.487804889679,2.37804889679,0.0609756112099,1.0,0.0,0.0,0.0,1.0,0.0,0.0,0.0,1.0,-0.397437475586,-0.703895288086,10.1609918457,1.0,0.0,0.0,0.0,1.0,0.0,0.0,0.0,1.0
1464109362630588169,235,1464109362627097867,,8.81376266479,-4.33442163467,-26.1754646301,0.0011269999668,1.0,0.0,0.0,0.0,1.0,0.0,0.0,0.0,1.0,0.304878056049,-0.914634168148,0.243902444839,1.0,0.0,0.0,0.0,1.0,0.0,0.0,0.0,1.0,-0.718260498047,-0.708683691406,10.2423947021,1.0,0.0,0.0,0.0,1.0,0.0,0.0,0.0,1.0
1464109362650679051,236,1464109362647579216,,8.78336811066,-4.35530424118,-26.3574180603,0.00105399999302,1.0,0.0,0.0,0.0,1.0,0.0,0.0,0.0,1.0,-0.12195122242,-2.62195134163,0.12195122242,1.0,0.0,0.0,0.0,1.0,0.0,0.0,0.0,1.0,-0.478840332031,-0.574608398438,10.1418382324,1.0,0.0,0.0,0.0,1.0,0.0,0.0,0.0,1.0
1464109362672269667,237,1464109362669260561,,8.71651077271,-4.34634494781,-26.5235729218,0.00114399997983,1.0,0.0,0.0,0.0,1.0,0.0,0.0,0.0,1.0,-0.670731723309,-3.84146332741,1.40243899822,1.0,0.0,0.0,0.0,1.0,0.0,0.0,0.0,1.0,-0.129286889648,-0.440533105469,10.3237975586,1.0,0.0,0.0,0.0,1.0,0.0,0.0,0.0,1.0
1464109362693147890,238,1464109362690188732,,8.62293052673,-4.32104063034,-26.6692867279,0.00116099999286,1.0,0.0,0.0,0.0,1.0,0.0,0.0,0.0,1.0,-0.426829278469,-2.5,0.548780500889,1.0,0.0,0.0,0.0,1.0,0.0,0.0,0.0,1.0,0.114921679688,-0.0957680664062,10.3046439453,1.0,0.0,0.0,0.0,1.0,0.0,0.0,0.0,1.0
1464109362714957308,239,1464109362711409922,,8.50838088989,-4.33854436874,-26.9159297943,0.0012229999993,1.0,0.0,0.0,0.0,1.0,0.0,0.0,0.0,1.0,-2.01219511032,-11.8902444839,-5.91463422775,1.0,0.0,0.0,0.0,1.0,0.0,0.0,0.0,1.0,-0.502782348633,-1.2737152832,10.658985791,1.0,0.0,0.0,0.0,1.0,0.0,0.0,0.0,1.0
1464109362734384181,240,1464109362731947261,,8.32001590729,-4.36582612991,-27.1270599365,0.00100499996915,1.0,0.0,0.0,0.0,1.0,0.0,0.0,0.0,1.0,-2.07317066193,-7.62195110321,-0.914634168148,1.0,0.0,0.0,0.0,1.0,0.0,0.0,0.0,1.0,0.110133276367,-0.866701000977,10.2232410889,1.0,0.0,0.0,0.0,1.0,0.0,0.0,0.0,1.0
1464109362760572597,241,1464109362753574231,,8.14196681976,-4.39098596573,-27.2759914398,0.00162899994757,1.0,0.0,0.0,0.0,1.0,0.0,0.0,0.0,1.0,-0.792682945728,-5.97560977936,2.74390244484,1.0,0.0,0.0,0.0,1.0,0.0,0.0,0.0,1.0,-0.076614453125,-0.612915625,10.1178962158,1.0,0.0,0.0,0.0,1.0,0.0,0.0,0.0,1.0
1464109362782126912,242,1464109362773790529,,7.96055030823,-4.39841651917,-27.4125728607,0.00120199995581,1.0,0.0,0.0,0.0,1.0,0.0,0.0,0.0,1.0,-0.304878056049,-5.18292713165,0.670731723309,1.0,0.0,0.0,0.0,1.0,0.0,0.0,0.0,1.0,0.258573779297,-0.363918652344,10.2759135254,1.0,0.0,0.0,0.0,1.0,0.0,0.0,0.0,1.0
1464109362807165384,243,1464109362794657971,,7.7981095314,-4.39986371994,-27.5919857025,0.00103499996476,1.0,0.0,0.0,0.0,1.0,0.0,0.0,0.0,1.0,-1.09756100178,-5.97560977936,-2.01219511032,1.0,0.0,0.0,0.0,1.0,0.0,0.0,0.0,1.0,0.0814028564453,-0.541089611728,10.1562034424,1.0,0.0,0.0,0.0,1.0,0.0,0.0,0.0,1.0
1464109362828817302,244,1464109362816151869,,7.63110589981,-4.41826581955,-27.8027496338,0.00111599999946,1.0,0.0,0.0,0.0,1.0,0.0,0.0,0.0,1.0,-0.12195122242,-5.42682933807,-1.09756100178,1.0,0.0,0.0,0.0,1.0,0.0,0.0,0.0,1.0,0.201112939453,-0.574608398438,10.299855542,1.0,0.0,0.0,0.0,1.0,0.0,0.0,0.0,1.0
1464109362845123611,245,1464109362836844103,,7.51807165146,-4.41687440872,-27.9623355865,0.00106200005393,1.0,0.0,0.0,0.0,1.0,0.0,0.0,0.0,1.0,0.487804889679,-4.87804889679,1.09756100178,1.0,0.0,0.0,0.0,1.0,0.0,0.0,0.0,1.0,-0.167594116211,-0.660799658203,10.4722380615,1.0,0.0,0.0,0.0,1.0,0.0,0.0,0.0,1.0
1464109362860644296,246,1464109362858531334,,7.38937664032,-4.42658948898,-28.1323719025,0.00116200000048,1.0,0.0,0.0,0.0,1.0,0.0,0.0,0.0,1.0,-0.304878056049,-5.18292713165,-0.243902444839,1.0,0.0,0.0,0.0,1.0,0.0,0.0,0.0,1.0,0.258573779297,-0.215478149414,9.99339772949,1.0,0.0,0.0,0.0,1.0,0.0,0.0,0.0,1.0
1464109362882250746,247,1464109362879942732,,7.21307277679,-4.45143890381,-28.318523407,0.00138499995228,1.0,0.0,0.0,0.0,1.0,0.0,0.0,0.0,1.0,-0.731707334518,-2.01219511032,1.09756100178,1.0,0.0,0.0,0.0,1.0,0.0,0.0,0.0,1.0,0.656011254883,-0.584185168546,9.92157167969,1.0,0.0,0.0,0.0,1.0,0.0,0.0,0.0,1.0
1464109362904391153,248,1464109362902018295,,7.12583398819,-4.48156785965,-28.4596118927,0.00156799994875,1.0,0.0,0.0,0.0,1.0,0.0,0.0,0.0,1.0,-0.365853667259,4.45121955872,3.41463422775,1.0,0.0,0.0,0.0,1.0,0.0,0.0,0.0,1.0,0.92416184082,-0.809240161133,10.1418382324,1.0,0.0,0.0,0.0,1.0,0.0,0.0,0.0,1.0
1464109362925017398,249,1464109362922872664,,7.19073343277,-4.50753974915,-28.5720539093,0.0014309999533,1.0,0.0,0.0,0.0,1.0,0.0,0.0,0.0,1.0,-1.46341466904,7.62195110321,4.51219558716,1.0,0.0,0.0,0.0,1.0,0.0,0.0,0.0,1.0,0.92416184082,-0.909796630859,10.5105452881,1.0,0.0,0.0,0.0,1.0,0.0,0.0,0.0,1.0
1464109362946806139,250,1464109362944454791,,7.3046336174,-4.53090715408,-28.7401809692,0.00142700003926,1.0,0.0,0.0,0.0,1.0,0.0,0.0,0.0,1.0,-1.09756100178,5.85365867615,-1.2804877758,1.0,0.0,0.0,0.0,1.0,0.0,0.0,0.0,1.0,0.253785375977,-0.579396801758,10.0556469727,1.0,0.0,0.0,0.0,1.0,0.0,0.0,0.0,1.0
1464109362967925871,251,1464109362965389368,,7.37063217163,-4.57054376602,-28.9931793213,0.00126499996986,1.0,0.0,0.0,0.0,1.0,0.0,0.0,0.0,1.0,-0.670731723309,2.92682933807,-3.65853667259,1.0,0.0,0.0,0.0,1.0,0.0,0.0,0.0,1.0,-0.225054956055,-0.809240161133,10.0508585693,1.0,0.0,0.0,0.0,1.0,0.0,0.0,0.0,1.0
1464109362989096697,252,1464109362986239882,,7.39316940308,-4.61109638214,-29.2572574615,0.00116600003093,1.0,0.0,0.0,0.0,1.0,0.0,0.0,0.0,1.0,-0.12195122242,4.69512224197,-2.62195134163,1.0,0.0,0.0,0.0,1.0,0.0,0.0,0.0,1.0,0.129286889648,-0.876277807617,10.1609918457,1.0,0.0,0.0,0.0,1.0,0.0,0.0,0.0,1.0
1464109363010199711,253,1464109363007003314,,7.47874450684,-4.65456151962,-29.4541244507,0.0012009999482,1.0,0.0,0.0,0.0,1.0,0.0,0.0,0.0,1.0,-0.243902444839,8.35365867615,2.13414645195,1.0,0.0,0.0,0.0,1.0,0.0,0.0,0.0,1.0,0.349553442383,-0.775721337891,10.3381627686,1.0,0.0,0.0,0.0,1.0,0.0,0.0,0.0,1.0
1464109363034457872,254,1464109363030759445,,7.67517328262,-4.67586803436,-29.6114215851,0.0131529998034,1.0,0.0,0.0,0.0,1.0,0.0,0.0,0.0,1.0,-0.792682945728,13.4756097794,3.04878044128,1.0,0.0,0.0,0.0,1.0,0.0,0.0,0.0,1.0,0.541089611728,-0.632069238281,10.2423947021,1.0,0.0,0.0,0.0,1.0,0.0,0.0,0.0,1.0
1464109363054694743,255,1464109363051852615,,7.90084981918,-4.68518018723,-29.7485275269,0.0013340000296,1.0,0.0,0.0,0.0,1.0,0.0,0.0,0.0,1.0,-0.18292683363,15.4878053665,3.10975623131,1.0,0.0,0.0,0.0,1.0,0.0,0.0,0.0,1.0,0.45968671875,-0.675164868164,10.419565625,1.0,0.0,0.0,0.0,1.0,0.0,0.0,0.0,1.0
1464109363075746455,256,1464109363072322714,,8.17612266541,-4.6924290657,-29.9178295135,0.0010000000475,1.0,0.0,0.0,0.0,1.0,0.0,0.0,0.0,1.0,-0.670731723309,14.0853662491,-0.304878056049,1.0,0.0,0.0,0.0,1.0,0.0,0.0,0.0,1.0,-0.330399829102,-0.521935925381,10.1370498291,1.0,0.0,0.0,0.0,1.0,0.0,0.0,0.0,1.0
1464109363102171016,257,1464109363093315989,,8.40710830688,-4.71224403381,-30.1679019928,0.0010150000453,1.0,0.0,0.0,0.0,1.0,0.0,0.0,0.0,1.0,-0.792682945728,7.86585378647,-4.39024400711,1.0,0.0,0.0,0.0,1.0,0.0,0.0,0.0,1.0,-0.258573779297,-0.588973571866,10.419565625,1.0,0.0,0.0,0.0,1.0,0.0,0.0,0.0,1.0
1464109363122172210,258,1464109363114229472,,8.5537481308,-4.74899244308,-30.4548988342,0.0010890000267,1.0,0.0,0.0,0.0,1.0,0.0,0.0,0.0,1.0,-1.2804877758,8.78048801422,-3.10975623131,1.0,0.0,0.0,0.0,1.0,0.0,0.0,0.0,1.0,-0.263362164351,-0.541089611728,10.4147772217,1.0,0.0,0.0,0.0,1.0,0.0,0.0,0.0,1.0
1464109363140918200,259,1464109363134911810,,8.75251197815,-4.7771229744,-30.6458187103,0.00101200002246,1.0,0.0,0.0,0.0,1.0,0.0,0.0,0.0,1.0,-0.853658556938,12.0121955872,2.86585378647,1.0,0.0,0.0,0.0,1.0,0.0,0.0,0.0,1.0,-0.220266552734,-0.660799658203,10.2807019287,1.0,0.0,0.0,0.0,1.0,0.0,0.0,0.0,1.0
1464109363163089388,260,1464109363156204511,,8.9969625473,-4.78817844391,-30.7833881378,0.00114499998745,1.0,0.0,0.0,0.0,1.0,0.0,0.0,0.0,1.0,-0.853658556938,11.2804880142,2.19512200356,1.0,0.0,0.0,0.0,1.0,0.0,0.0,0.0,1.0,-0.397437475586,-0.703895288086,10.1178962158,1.0,0.0,0.0,0.0,1.0,0.0,0.0,0.0,1.0
1464109363183102196,261,1464109363177041380,,9.17527103424,-4.81428909302,-30.9778804779,0.00110899994615,1.0,0.0,0.0,0.0,1.0,0.0,0.0,0.0,1.0,-0.548780500889,7.37804937363,-1.15853655338,1.0,0.0,0.0,0.0,1.0,0.0,0.0,0.0,1.0,-0.335188232422,-0.790086547852,10.2902787354,1.0,0.0,0.0,0.0,1.0,0.0,0.0,0.0,1.0
1464109363203527608,262,1464109363198545799,,9.30918979645,-4.84832859039,-31.1981182098,0.00121699995361,1.0,0.0,0.0,0.0,1.0,0.0,0.0,0.0,1.0,-0.304878056049,7.43902492523,0.0609756112099,1.0,0.0,0.0,0.0,1.0,0.0,0.0,0.0,1.0,-0.512359155273,-0.799663354492,10.2902787354,1.0,0.0,0.0,0.0,1.0,0.0,0.0,0.0,1.0
1464109363224170467,263,1464109363219278293,,9.45623397827,-4.87994480133,-31.3753795624,0.00134800001979,1.0,0.0,0.0,0.0,1.0,0.0,0.0,0.0,1.0,-0.609756112099,6.70731735229,1.09756100178,1.0,0.0,0.0,0.0,1.0,0.0,0.0,0.0,1.0,-0.560243188477,-0.675164868164,10.2423947021,1.0,0.0,0.0,0.0,1.0,0.0,0.0,0.0,1.0
1464109363250336018,264,1464109363240499535,,9.57347774506,-4.90356302261,-31.5577316284,0.0017569999909,1.0,0.0,0.0,0.0,1.0,0.0,0.0,0.0,1.0,-0.670731723309,3.35365867615,-0.0609756112099,1.0,0.0,0.0,0.0,1.0,0.0,0.0,0.0,1.0,-0.756567724609,-0.660799658203,10.060435376,1.0,0.0,0.0,0.0,1.0,0.0,0.0,0.0,1.0
1464109363266252380,265,1464109363261181196,,9.6176404953,-4.92064666748,-31.7520103455,0.00117499998305,1.0,0.0,0.0,0.0,1.0,0.0,0.0,0.0,1.0,-0.243902444839,0.975609779358,-0.670731723309,1.0,0.0,0.0,0.0,1.0,0.0,0.0,0.0,1.0,-0.799663354492,-0.646434448242,10.2567599121,1.0,0.0,0.0,0.0,1.0,0.0,0.0,0.0,1.0
1464109363285921700,266,1464109363282280460,,9.62974071503,-4.9339132309,-31.9339179993,0.00138300005347,1.0,0.0,0.0,0.0,1.0,0.0,0.0,0.0,1.0,-0.487804889679,-1.95121955872,0.12195122242,1.0,0.0,0.0,0.0,1.0,0.0,0.0,0.0,1.0,-0.775721337891,-0.517147558594,10.1992990723,1.0,0.0,0.0,0.0,1.0,0.0,0.0,0.0,1.0
1464109363307408046,267,1464109363304591752,,9.55820465088,-4.95365905762,-32.1080780029,0.00291300006211,1.0,0.0,0.0,0.0,1.0,0.0,0.0,0.0,1.0,-0.304878056049,-4.2682929039,0.18292683363,1.0,0.0,0.0,0.0,1.0,0.0,0.0,0.0,1.0,-0.392649072266,-0.732625708008,10.2328178955,1.0,0.0,0.0,0.0,1.0,0.0,0.0,0.0,1.0
1464109363331847822,268,1464109363323430241,,9.42908382416,-4.97797393799,-32.2664337158,0.00118200003635,1.0,0.0,0.0,0.0,1.0,0.0,0.0,0.0,1.0,-0.426829278469,-3.41463422775,1.09756100178,1.0,0.0,0.0,0.0,1.0,0.0,0.0,0.0,1.0,0.0287304199219,-0.76614453125,10.2519715088,1.0,0.0,0.0,0.0,1.0,0.0,0.0,0.0,1.0
1464109363351024695,269,1464109363344405911,,9.30079936981,-5.01280975342,-32.4306259155,0.00122600002214,1.0,0.0,0.0,0.0,1.0,0.0,0.0,0.0,1.0,-0.731707334518,-2.80487799644,0.0,1.0,0.0,0.0,0.0,1.0,0.0,0.0,0.0,1.0,-0.0143652099609,-0.799663354492,10.2519715088,1.0,0.0,0.0,0.0,1.0,0.0,0.0,0.0,1.0
1464109363369084749,270,1464109363366130799,,9.16466999054,-5.0457649231,-32.6412773132,0.00188600004185,1.0,0.0,0.0,0.0,1.0,0.0,0.0,0.0,1.0,-0.365853667259,-1.76829278469,-1.03658533096,1.0,0.0,0.0,0.0,1.0,0.0,0.0,0.0,1.0,0.129286889648,-0.799663354492,10.2376062988,1.0,0.0,0.0,0.0,1.0,0.0,0.0,0.0,1.0
1464109363390709844,271,1464109363386801522,,9.08501052856,-5.06908178329,-32.8254623413,0.00137199996971,1.0,0.0,0.0,0.0,1.0,0.0,0.0,0.0,1.0,-0.426829278469,0.365853667259,0.304878056049,1.0,0.0,0.0,0.0,1.0,0.0,0.0,0.0,1.0,0.0335188255255,-0.775721337891,10.2232410889,1.0,0.0,0.0,0.0,1.0,0.0,0.0,0.0,1.0
1464109363412597804,272,1464109363408381097,,9.04188919067,-5.07642412186,-33.0076217651,0.00134800001979,1.0,0.0,0.0,0.0,1.0,0.0,0.0,0.0,1.0,-0.365853667259,1.64634156227,-0.365853667259,1.0,0.0,0.0,0.0,1.0,0.0,0.0,0.0,1.0,0.110133276367,-0.531512805087,10.1753570557,1.0,0.0,0.0,0.0,1.0,0.0,0.0,0.0,1.0
1464109363434511232,273,1464109363429740204,,9.01866531372,-5.07827425003,-33.1983795166,0.0012229999993,1.0,0.0,0.0,0.0,1.0,0.0,0.0,0.0,1.0,-0.426829278469,2.68292689323,-0.0609756112099,1.0,0.0,0.0,0.0,1.0,0.0,0.0,0.0,1.0,0.0957680664062,-0.531512805087,10.2519715088,1.0,0.0,0.0,0.0,1.0,0.0,0.0,0.0,1.0
1464109363457716323,274,1464109363450615510,,9.03018379211,-5.07619476318,-33.3820724487,0.00114499998745,1.0,0.0,0.0,0.0,1.0,0.0,0.0,0.0,1.0,-0.609756112099,5.18292713165,0.304878056049,1.0,0.0,0.0,0.0,1.0,0.0,0.0,0.0,1.0,0.143652099609,-0.560243188477,10.1705686523,1.0,0.0,0.0,0.0,1.0,0.0,0.0,0.0,1.0
1464109363476420490,275,1464109363471329723,,9.0845117569,-5.07795715332,-33.5638847351,0.00101600005291,1.0,0.0,0.0,0.0,1.0,0.0,0.0,0.0,1.0,-0.731707334518,5.85365867615,0.0609756112099,1.0,0.0,0.0,0.0,1.0,0.0,0.0,0.0,1.0,0.0909796630859,-0.632069238281,10.3190091553,1.0,0.0,0.0,0.0,1.0,0.0,0.0,0.0,1.0
1464109363494980907,276,1464109363492312581,,9.16055107117,-5.08486890793,-33.7567977905,0.00119600002654,1.0,0.0,0.0,0.0,1.0,0.0,0.0,0.0,1.0,-0.548780500889,6.34146356583,-0.365853667259,1.0,0.0,0.0,0.0,1.0,0.0,0.0,0.0,1.0,-0.105344873047,-0.584185168546,10.3956236084,1.0,0.0,0.0,0.0,1.0,0.0,0.0,0.0,1.0
1464109363516372982,277,1464109363513265491,,9.25463581085,-5.10051679611,-33.9477844238,0.00101799995173,1.0,0.0,0.0,0.0,1.0,0.0,0.0,0.0,1.0,-0.365853667259,7.43902492523,0.548780500889,1.0,0.0,0.0,0.0,1.0,0.0,0.0,0.0,1.0,-0.0287304199219,-0.632069238281,10.1466266357,1.0,0.0,0.0,0.0,1.0,0.0,0.0,0.0,1.0
1464109363541614370,278,1464109363534648244,,9.37778091431,-5.11601781845,-34.1275558472,0.00130899995565,1.0,0.0,0.0,0.0,1.0,0.0,0.0,0.0,1.0,-0.487804889679,8.04878044128,0.853658556938,1.0,0.0,0.0,0.0,1.0,0.0,0.0,0.0,1.0,-0.15322890625,-0.632069238281,10.2567599121,1.0,0.0,0.0,0.0,1.0,0.0,0.0,0.0,1.0
1464109363565043940,279,1464109363555306675,,9.49682998657,-5.12664890289,-34.3113479614,0.00107100000605,1.0,0.0,0.0,0.0,1.0,0.0,0.0,0.0,1.0,-0.731707334518,7.80487823486,-0.12195122242,1.0,0.0,0.0,0.0,1.0,0.0,0.0,0.0,1.0,-0.215478149414,-0.627280834961,10.1035310059,1.0,0.0,0.0,0.0,1.0,0.0,0.0,0.0,1.0
1464109363590604077,280,1464109363575972503,,9.6222410202,-5.15021419525,-34.5056915283,0.0011930000037,1.0,0.0,0.0,0.0,1.0,0.0,0.0,0.0,1.0,-0.670731723309,7.68292665482,0.18292683363,1.0,0.0,0.0,0.0,1.0,0.0,0.0,0.0,1.0,-0.426167895508,-0.775721337891,10.2280294922,1.0,0.0,0.0,0.0,1.0,0.0,0.0,0.0,1.0
1464109363602933886,281,1464109363597194371,,9.75741004944,-5.17951250076,-34.703792572,0.00113500002772,1.0,0.0,0.0,0.0,1.0,0.0,0.0,0.0,1.0,-0.853658556938,6.58536624908,-0.18292683363,1.0,0.0,0.0,0.0,1.0,0.0,0.0,0.0,1.0,-0.641646044922,-0.785298144531,10.0700121826,1.0,0.0,0.0,0.0,1.0,0.0,0.0,0.0,1.0
1464109363622592841,282,1464109363618993268,,9.85572338104,-5.21319532394,-34.9054450989,0.0013119999785,1.0,0.0,0.0,0.0,1.0,0.0,0.0,0.0,1.0,-0.670731723309,4.39024400711,0.12195122242,1.0,0.0,0.0,0.0,1.0,0.0,0.0,0.0,1.0,-0.502782348633,-0.76614453125,10.2040874756,1.0,0.0,0.0,0.0,1.0,0.0,0.0,0.0,1.0
1464109363646150952,283,1464109363639620919,,9.92541885376,-5.2360959053,-35.0891494751,0.00156200001948,1.0,0.0,0.0,0.0,1.0,0.0,0.0,0.0,1.0,-0.243902444839,3.90243911743,0.548780500889,1.0,0.0,0.0,0.0,1.0,0.0,0.0,0.0,1.0,-0.536301208408,-0.718260498047,10.165780249,1.0,0.0,0.0,0.0,1.0,0.0,0.0,0.0,1.0
1464109363664728505,284,1464109363660607370,,9.97189712524,-5.25156116486,-35.2661361694,0.00132000003941,1.0,0.0,0.0,0.0,1.0,0.0,0.0,0.0,1.0,-0.609756112099,2.31707310677,0.12195122242,1.0,0.0,0.0,0.0,1.0,0.0,0.0,0.0,1.0,-0.416591088867,-0.694318481445,10.1897222656,1.0,0.0,0.0,0.0,1.0,0.0,0.0,0.0,1.0
1464109363682721215,285,1464109363680836793,,9.97605991364,-5.2661318779,-35.4500770569,0.00132000003941,1.0,0.0,0.0,0.0,1.0,0.0,0.0,0.0,1.0,-0.304878056049,1.2804877758,-0.365853667259,1.0,0.0,0.0,0.0,1.0,0.0,0.0,0.0,1.0,-0.373495458984,-0.723048901367,10.060435376,1.0,0.0,0.0,0.0,1.0,0.0,0.0,0.0,1.0
1464109363705715317,286,1464109363702551263,,9.9626531601,-5.27753734589,-35.6250915527,0.00132299994584,1.0,0.0,0.0,0.0,1.0,0.0,0.0,0.0,1.0,-0.426829278469,2.43902444839,1.2195122242,1.0,0.0,0.0,0.0,1.0,0.0,0.0,0.0,1.0,-0.134075302102,-0.632069238281,10.2423947021,1.0,0.0,0.0,0.0,1.0,0.0,0.0,0.0,1.0
1464109363726503696,287,1464109363723844954,,9.96165084839,-5.28071403503,-35.802406311,0.00158000004012,1.0,0.0,0.0,0.0,1.0,0.0,0.0,0.0,1.0,-0.243902444839,2.74390244484,0.365853667259,1.0,0.0,0.0,0.0,1.0,0.0,0.0,0.0,1.0,-0.162805712891,-0.574608398438,10.2902787354,1.0,0.0,0.0,0.0,1.0,0.0,0.0,0.0,1.0
1464109363747111191,288,1464109363744667135,,9.96305561066,-5.29061508179,-35.9935646057,0.00143599999137,1.0,0.0,0.0,0.0,1.0,0.0,0.0,0.0,1.0,-0.365853667259,3.53658556938,-0.731707334518,1.0,0.0,0.0,0.0,1.0,0.0,0.0,0.0,1.0,-0.00957680664062,-0.593762048251,10.2471831055,1.0,0.0,0.0,0.0,1.0,0.0,0.0,0.0,1.0
1464109363768069778,289,1464109363765441244,,9.98938751221,-5.30508899689,-36.1797409058,0.000986999948509,1.0,0.0,0.0,0.0,1.0,0.0,0.0,0.0,1.0,-0.731707334518,5.36585378647,0.609756112099,1.0,0.0,0.0,0.0,1.0,0.0,0.0,0.0,1.0,-0.0814028564453,-0.641646044922,10.1466266357,1.0,0.0,0.0,0.0,1.0,0.0,0.0,0.0,1.0
1464109363788807272,290,1464109363786391029,,10.0545415878,-5.31820487976,-36.3568840027,0.00106799998321,1.0,0.0,0.0,0.0,1.0,0.0,0.0,0.0,1.0,-0.304878056049,6.46341466904,0.304878056049,1.0,0.0,0.0,0.0,1.0,0.0,0.0,0.0,1.0,-0.191536132812,-0.689530078125,10.2807019287,1.0,0.0,0.0,0.0,1.0,0.0,0.0,0.0,1.0
1464109363810330441,291,1464109363807206543,,10.1344928741,-5.33264541626,-36.5488014221,0.000975999981165,1.0,0.0,0.0,0.0,1.0,0.0,0.0,0.0,1.0,-0.365853667259,6.58536624908,0.0,1.0,0.0,0.0,0.0,1.0,0.0,0.0,0.0,1.0,-0.3064578125,-0.636857641602,10.3477395752,1.0,0.0,0.0,0.0,1.0,0.0,0.0,0.0,1.0
1464109363833288085,292,1464109363828397005,,10.2301445007,-5.35263729095,-36.7413864136,0.000991999986582,1.0,0.0,0.0,0.0,1.0,0.0,0.0,0.0,1.0,-0.426829278469,7.37804937363,0.426829278469,1.0,0.0,0.0,0.0,1.0,0.0,0.0,0.0,1.0,-0.349553442383,-0.689530078125,10.1945106689,1.0,0.0,0.0,0.0,1.0,0.0,0.0,0.0,1.0
1464109363855138597,293,1464109363849278613,,10.3466262817,-5.37539291382,-36.9355583191,0.00108399998862,1.0,0.0,0.0,0.0,1.0,0.0,0.0,0.0,1.0,-0.548780500889,6.7682929039,0.0,1.0,0.0,0.0,0.0,1.0,0.0,0.0,0.0,1.0,-0.383072265625,-0.622492431641,10.2471831055,1.0,0.0,0.0,0.0,1.0,0.0,0.0,0.0,1.0
1464109363875413280,294,1464109363870892042,,10.453868866,-5.39721059799,-37.1304359436,0.00112799997441,1.0,0.0,0.0,0.0,1.0,0.0,0.0,0.0,1.0,-0.426829278469,6.64634132385,0.426829278469,1.0,0.0,0.0,0.0,1.0,0.0,0.0,0.0,1.0,-0.478840332031,-0.708683691406,10.3237975586,1.0,0.0,0.0,0.0,1.0,0.0,0.0,0.0,1.0
1464109363896841032,295,1464109363891859327,,10.5516386032,-5.4111032486,-37.3157806396,0.00114499998745,1.0,0.0,0.0,0.0,1.0,0.0,0.0,0.0,1.0,-0.548780500889,6.28048801422,0.243902444839,1.0,0.0,0.0,0.0,1.0,0.0,0.0,0.0,1.0,-0.488417138672,-0.718260498047,10.2328178955,1.0,0.0,0.0,0.0,1.0,0.0,0.0,0.0,1.0
1464109363916188634,296,1464109363912553436,,10.6435413361,-5.41985797882,-37.4983100891,0.00113999994937,1.0,0.0,0.0,0.0,1.0,0.0,0.0,0.0,1.0,-0.548780500889,6.0365858078,0.12195122242,1.0,0.0,0.0,0.0,1.0,0.0,0.0,0.0,1.0,-0.402225878906,-0.708683691406,10.2423947021,1.0,0.0,0.0,0.0,1.0,0.0,0.0,0.0,1.0
1464109363936447275,297,1464109363933940980,,10.7347984314,-5.42862415314,-37.6862602234,0.00101999996696,1.0,0.0,0.0,0.0,1.0,0.0,0.0,0.0,1.0,-0.731707334518,5.36585378647,0.243902444839,1.0,0.0,0.0,0.0,1.0,0.0,0.0,0.0,1.0,-0.450109912109,-0.665588061523,10.0939541992,1.0,0.0,0.0,0.0,1.0,0.0,0.0,0.0,1.0
1464109363957723518,298,1464109363954765089,,10.8058567047,-5.43702745438,-37.8770904541,0.000969999993686,1.0,0.0,0.0,0.0,1.0,0.0,0.0,0.0,1.0,-0.609756112099,3.71951246262,-0.670731723309,1.0,0.0,0.0,0.0,1.0,0.0,0.0,0.0,1.0,-0.699106884766,-0.541089611728,10.1609918457,1.0,0.0,0.0,0.0,1.0,0.0,0.0,0.0,1.0
1464109363978307783,299,1464109363975192323,,10.8504037857,-5.45020723343,-38.0702629089,0.000961999990977,1.0,0.0,0.0,0.0,1.0,0.0,0.0,0.0,1.0,-0.304878056049,2.13414645195,-0.487804889679,1.0,0.0,0.0,0.0,1.0,0.0,0.0,0.0,1.0,-0.679953271484,-0.684741674805,10.2615483154,1.0,0.0,0.0,0.0,1.0,0.0,0.0,0.0,1.0
1464109364005160260,300,1464109363996160494,,10.8757286072,-5.46156024933,-38.2475509644,0.000969999993686,1.0,0.0,0.0,0.0,1.0,0.0,0.0,0.0,1.0,-0.304878056049,1.52439022064,1.52439022064,1.0,0.0,0.0,0.0,1.0,0.0,0.0,0.0,1.0,-0.675164868164,-0.574608398438,9.98860932617,1.0,0.0,0.0,0.0,1.0,0.0,0.0,0.0,1.0
1464109364021261674,301,1464109364016766582,,10.8629732132,-5.47527837753,-38.4206352234,0.00101300003007,1.0,0.0,0.0,0.0,1.0,0.0,0.0,0.0,1.0,-0.426829278469,0.365853667259,0.0609756112099,1.0,0.0,0.0,0.0,1.0,0.0,0.0,0.0,1.0,-0.593762048251,-0.665588061523,10.1083194092,1.0,0.0,0.0,0.0,1.0,0.0,0.0,0.0,1.0
1464109364043607184,302,1464109364038626312,,10.8273191452,-5.49526071548,-38.6005859375,0.0012150000548,1.0,0.0,0.0,0.0,1.0,0.0,0.0,0.0,1.0,-0.365853667259,0.975609779358,0.487804889679,1.0,0.0,0.0,0.0,1.0,0.0,0.0,0.0,1.0,-0.507570751953,-0.742202514648,10.3716815918,1.0,0.0,0.0,0.0,1.0,0.0,0.0,0.0,1.0
1464109364062973744,303,1464109364058540840,,10.7869768143,-5.51473379135,-38.788433075,0.00128900003619,1.0,0.0,0.0,0.0,1.0,0.0,0.0,0.0,1.0,-0.426829278469,0.304878056049,-0.975609779358,1.0,0.0,0.0,0.0,1.0,0.0,0.0,0.0,1.0,-0.469263525391,-0.756567724609,10.2567599121,1.0,0.0,0.0,0.0,1.0,0.0,0.0,0.0,1.0
1464109364084383789,304,1464109364080210571,,10.7564268112,-5.53858947754,-38.9888954163,0.00178900000174,1.0,0.0,0.0,0.0,1.0,0.0,0.0,0.0,1.0,-0.304878056049,0.12195122242,-0.487804889679,1.0,0.0,0.0,0.0,1.0,0.0,0.0,0.0,1.0,-0.656011254883,-0.737414111328,10.1609918457,1.0,0.0,0.0,0.0,1.0,0.0,0.0,0.0,1.0
1464109364105324303,305,1464109364101533480,,10.7208442688,-5.55757474899,-39.190738678,0.00193899997976,1.0,0.0,0.0,0.0,1.0,0.0,0.0,0.0,1.0,-0.304878056049,-2.74390244484,-1.03658533096,1.0,0.0,0.0,0.0,1.0,0.0,0.0,0.0,1.0,-0.689530078125,-0.636857641602,10.2040874756,1.0,0.0,0.0,0.0,1.0,0.0,0.0,0.0,1.0
1464109364125920860,306,1464109364123251180,,10.6151151657,-5.58086967468,-39.4165763855,0.00153100001626,1.0,0.0,0.0,0.0,1.0,0.0,0.0,0.0,1.0,-0.487804889679,-4.14634132385,-1.70731711388,1.0,0.0,0.0,0.0,1.0,0.0,0.0,0.0,1.0,-0.684741674805,-0.727837304687,10.2950671387,1.0,0.0,0.0,0.0,1.0,0.0,0.0,0.0,1.0
1464109364146862937,307,1464109364144399350,,10.5070304871,-5.58986520767,-39.5918312073,0.00117599999066,1.0,0.0,0.0,0.0,1.0,0.0,0.0,0.0,1.0,-0.18292683363,-3.41463422775,1.03658533096,1.0,0.0,0.0,0.0,1.0,0.0,0.0,0.0,1.0,-0.584185168546,-0.694318481445,10.1992990723,1.0,0.0,0.0,0.0,1.0,0.0,0.0,0.0,1.0
1464109364170110788,308,1464109364165752207,,10.3852357864,-5.5922703743,-39.7515563965,0.00112200004514,1.0,0.0,0.0,0.0,1.0,0.0,0.0,0.0,1.0,-0.304878056049,-4.32926845551,0.18292683363,1.0,0.0,0.0,0.0,1.0,0.0,0.0,0.0,1.0,-0.339976635742,-0.61770402832,10.1274730225,1.0,0.0,0.0,0.0,1.0,0.0,0.0,0.0,1.0
1464109364189614900,309,1464109364186926470,,10.2121858597,-5.59460449219,-39.9349899292,0.00107999995816,1.0,0.0,0.0,0.0,1.0,0.0,0.0,0.0,1.0,-0.365853667259,-4.14634132385,-0.487804889679,1.0,0.0,0.0,0.0,1.0,0.0,0.0,0.0,1.0,0.0526724365234,-0.636857641602,10.1753570557,1.0,0.0,0.0,0.0,1.0,0.0,0.0,0.0,1.0
1464109364210827185,310,1464109364208332296,,10.0795211792,-5.59255075455,-40.1157951355,0.00103199994192,1.0,0.0,0.0,0.0,1.0,0.0,0.0,0.0,1.0,-0.243902444839,-2.80487799644,-0.243902444839,1.0,0.0,0.0,0.0,1.0,0.0,0.0,0.0,1.0,-0.244208569336,-0.641646044922,10.165780249,1.0,0.0,0.0,0.0,1.0,0.0,0.0,0.0,1.0
1464109364231123378,311,1464109364228756562,,9.97087860107,-5.58641815186,-40.2997703552,0.00114299997222,1.0,0.0,0.0,0.0,1.0,0.0,0.0,0.0,1.0,-0.609756112099,-2.74390244484,-0.914634168148,1.0,0.0,0.0,0.0,1.0,0.0,0.0,0.0,1.0,-0.339976635742,-0.584185168546,10.3237975586,1.0,0.0,0.0,0.0,1.0,0.0,0.0,0.0,1.0
1464109364264077973,312,1464109364250211189,,9.87011814117,-5.58258056641,-40.4859771729,0.00111499999184,1.0,0.0,0.0,0.0,1.0,0.0,0.0,0.0,1.0,-0.365853667259,-2.68292689323,-0.18292683363,1.0,0.0,0.0,0.0,1.0,0.0,0.0,0.0,1.0,-0.316034619141,-0.507570751953,10.314220752,1.0,0.0,0.0,0.0,1.0,0.0,0.0,0.0,1.0
1464109364274836120,313,1464109364272121649,,9.76840114594,-5.57506036758,-40.6654472351,0.00414599990472,1.0,0.0,0.0,0.0,1.0,0.0,0.0,0.0,1.0,-0.18292683363,-2.86585378647,-0.12195122242,1.0,0.0,0.0,0.0,1.0,0.0,0.0,0.0,1.0,-0.3064578125,-0.665588061523,10.165780249,1.0,0.0,0.0,0.0,1.0,0.0,0.0,0.0,1.0
1464109364302813021,314,1464109364293222319,,9.65435791016,-5.57154941559,-40.8396377563,0.00102199998219,1.0,0.0,0.0,0.0,1.0,0.0,0.0,0.0,1.0,-0.18292683363,-3.71951246262,-0.426829278469,1.0,0.0,0.0,0.0,1.0,0.0,0.0,0.0,1.0,-0.220266552734,-0.684741674805,10.1370498291,1.0,0.0,0.0,0.0,1.0,0.0,0.0,0.0,1.0
1464109364320563544,315,1464109364313925230,,9.52334213257,-5.57470703125,-41.0236091614,0.00129799998831,1.0,0.0,0.0,0.0,1.0,0.0,0.0,0.0,1.0,2.13414645195,-2.86585378647,-2.07317066193,1.0,0.0,0.0,0.0,1.0,0.0,0.0,0.0,1.0,0.181959326172,-0.191536132812,10.6925046143,1.0,0.0,0.0,0.0,1.0,0.0,0.0,0.0,1.0
1464109364341632912,316,1464109364335163556,,9.39300346375,-5.57112073898,-41.2182502747,0.00102199998219,1.0,0.0,0.0,0.0,1.0,0.0,0.0,0.0,1.0,1.58536589146,-3.41463422775,-1.8902438879,1.0,0.0,0.0,0.0,1.0,0.0,0.0,0.0,1.0,-0.430956298828,-0.660799658203,10.539275708,1.0,0.0,0.0,0.0,1.0,0.0,0.0,0.0,1.0
1464109364366293312,317,1464109364363085144,,9.25874614716,-5.58729887009,-41.412815094,0.00114800001029,1.0,0.0,0.0,0.0,1.0,0.0,0.0,0.0,1.0,-0.0609756112099,-6.0365858078,-0.914634168148,1.0,0.0,0.0,0.0,1.0,0.0,0.0,0.0,1.0,-0.430956298828,-0.809240161133,10.285490332,1.0,0.0,0.0,0.0,1.0,0.0,0.0,0.0,1.0
1464109364385967320,318,1464109364383872430,,9.03387355804,-5.57962560654,-41.6360397339,0.00737199978903,1.0,0.0,0.0,0.0,1.0,0.0,0.0,0.0,1.0,-0.18292683363,-7.31707334518,0.12195122242,1.0,0.0,0.0,0.0,1.0,0.0,0.0,0.0,1.0,-0.210689746094,-0.670376464844,10.2759135254,1.0,0.0,0.0,0.0,1.0,0.0,0.0,0.0,1.0
1464109364406788043,319,1464109364404807111,,8.83679580688,-5.57543230057,-41.7956047058,0.00109799997881,1.0,0.0,0.0,0.0,1.0,0.0,0.0,0.0,1.0,-0.243902444839,-7.80487823486,0.304878056049,1.0,0.0,0.0,0.0,1.0,0.0,0.0,0.0,1.0,-0.0909796630859,-0.646434448242,10.1418382324,1.0,0.0,0.0,0.0,1.0,0.0,0.0,0.0,1.0
1464109364429362042,320,1464109364426897257,,8.60329246521,-5.56409168243,-41.9723892212,0.00192299997434,1.0,0.0,0.0,0.0,1.0,0.0,0.0,0.0,1.0,-0.18292683363,-7.74390268326,-0.365853667259,1.0,0.0,0.0,0.0,1.0,0.0,0.0,0.0,1.0,0.148440512063,-0.593762048251,10.2567599121,1.0,0.0,0.0,0.0,1.0,0.0,0.0,0.0,1.0
1464109364450102192,321,1464109364447915011,,8.3746213913,-5.55491018295,-42.1356582642,0.000973000016529,1.0,0.0,0.0,0.0,1.0,0.0,0.0,0.0,1.0,-0.426829278469,-5.24390268326,0.853658556938,1.0,0.0,0.0,0.0,1.0,0.0,0.0,0.0,1.0,0.46447512207,-0.737414111328,10.2040874756,1.0,0.0,0.0,0.0,1.0,0.0,0.0,0.0,1.0
1464109364470503541,322,1464109364468408183,,8.20830917358,-5.55619716644,-42.2754020691,0.00096700002905,1.0,0.0,0.0,0.0,1.0,0.0,0.0,0.0,1.0,-1.2195122242,0.0609756112099,2.68292689323,1.0,0.0,0.0,0.0,1.0,0.0,0.0,0.0,1.0,0.737414111328,-0.708683691406,10.4243540283,1.0,0.0,0.0,0.0,1.0,0.0,0.0,0.0,1.0
1464109364491953013,323,1464109364489797498,,8.15599441528,-5.54286146164,-42.3945236206,0.00105700001586,1.0,0.0,0.0,0.0,1.0,0.0,0.0,0.0,1.0,-0.487804889679,4.75609779358,3.47560977936,1.0,0.0,0.0,0.0,1.0,0.0,0.0,0.0,1.0,0.651222851562,-0.440533105469,10.0317049561,1.0,0.0,0.0,0.0,1.0,0.0,0.0,0.0,1.0
1464109364512772381,324,1464109364510492075,,8.16593074799,-5.52622127533,-42.5381965637,0.00101999996696,1.0,0.0,0.0,0.0,1.0,0.0,0.0,0.0,1.0,-0.487804889679,5.60975599289,0.914634168148,1.0,0.0,0.0,0.0,1.0,0.0,0.0,0.0,1.0,0.402225878906,-0.497993945312,10.2423947021,1.0,0.0,0.0,0.0,1.0,0.0,0.0,0.0,1.0
1464109364533950343,325,1464109364531698214,,8.19430828094,-5.51669645309,-42.7511024475,0.00104300002567,1.0,0.0,0.0,0.0,1.0,0.0,0.0,0.0,1.0,-0.487804889679,5.06097555161,-2.01219511032,1.0,0.0,0.0,0.0,1.0,0.0,0.0,0.0,1.0,0.225054956055,-0.694318481445,10.2232410889,1.0,0.0,0.0,0.0,1.0,0.0,0.0,0.0,1.0
1464109364555855750,326,1464109364552905394,,8.25943088531,-5.51634693146,-42.9797172546,0.00101000000723,1.0,0.0,0.0,0.0,1.0,0.0,0.0,0.0,1.0,-1.03658533096,5.24390268326,-2.01219511032,1.0,0.0,0.0,0.0,1.0,0.0,0.0,0.0,1.0,0.287304199219,-0.699106884766,10.4243540283,1.0,0.0,0.0,0.0,1.0,0.0,0.0,0.0,1.0
1464109364581017815,327,1464109364573884971,,8.33952522278,-5.53306722641,-43.2077941895,0.00116600003093,1.0,0.0,0.0,0.0,1.0,0.0,0.0,0.0,1.0,-0.670731723309,7.68292665482,-0.609756112099,1.0,0.0,0.0,0.0,1.0,0.0,0.0,0.0,1.0,0.220266552734,-0.775721337891,10.3573163818,1.0,0.0,0.0,0.0,1.0,0.0,0.0,0.0,1.0
1464109364600526563,328,1464109364594881006,,8.46399593353,-5.55370950699,-43.3972167969,0.000999000039883,1.0,0.0,0.0,0.0,1.0,0.0,0.0,0.0,1.0,-1.2804877758,10.9146347046,1.70731711388,1.0,0.0,0.0,0.0,1.0,0.0,0.0,0.0,1.0,0.105344873047,-0.785298144531,10.3429511719,1.0,0.0,0.0,0.0,1.0,0.0,0.0,0.0,1.0
1464109364625439827,329,1464109364615490011,,8.64937782288,-5.56840324402,-43.5735435486,0.00112300005276,1.0,0.0,0.0,0.0,1.0,0.0,0.0,0.0,1.0,-0.609756112099,11.2804880142,0.609756112099,1.0,0.0,0.0,0.0,1.0,0.0,0.0,0.0,1.0,0.0,-0.708683691406,10.1945106689,1.0,0.0,0.0,0.0,1.0,0.0,0.0,0.0,1.0
1464109364643528474,330,1464109364640704367,,8.85914039612,-5.58562231064,-43.8145446777,0.00400299998,1.0,0.0,0.0,0.0,1.0,0.0,0.0,0.0,1.0,-0.243902444839,9.69512176514,-0.670731723309,1.0,0.0,0.0,0.0,1.0,0.0,0.0,0.0,1.0,-0.258573779297,-0.603338854892,10.2040874756,1.0,0.0,0.0,0.0,1.0,0.0,0.0,0.0,1.0
1464109364672089904,331,1464109364661739777,,9.03802871704,-5.59746026993,-44.0344924927,0.00143299996853,1.0,0.0,0.0,0.0,1.0,0.0,0.0,0.0,1.0,-0.426829278469,8.29268264771,-0.731707334518,1.0,0.0,0.0,0.0,1.0,0.0,0.0,0.0,1.0,-0.588973571866,-0.76614453125,10.2376062988,1.0,0.0,0.0,0.0,1.0,0.0,0.0,0.0,1.0
1464109364689228763,332,1464109364683249821,,9.20408248901,-5.60249662399,-44.2515411377,0.00664799986407,1.0,0.0,0.0,0.0,1.0,0.0,0.0,0.0,1.0,-0.426829278469,7.25609779358,-0.12195122242,1.0,0.0,0.0,0.0,1.0,0.0,0.0,0.0,1.0,-0.469263525391,-0.603338854892,10.1753570557,1.0,0.0,0.0,0.0,1.0,0.0,0.0,0.0,1.0
1464109364707253712,333,1464109364703965440,,9.33899307251,-5.60922050476,-44.4310264587,0.00228699995205,1.0,0.0,0.0,0.0,1.0,0.0,0.0,0.0,1.0,-0.365853667259,6.52439069748,0.975609779358,1.0,0.0,0.0,0.0,1.0,0.0,0.0,0.0,1.0,-0.344765039063,-0.636857641602,10.0700121826,1.0,0.0,0.0,0.0,1.0,0.0,0.0,0.0,1.0
1464109364726321732,334,1464109364724187988,,9.43331050873,-5.61166191101,-44.6067810059,0.00177700002678,1.0,0.0,0.0,0.0,1.0,0.0,0.0,0.0,1.0,-0.670731723309,4.87804889679,-0.12195122242,1.0,0.0,0.0,0.0,1.0,0.0,0.0,0.0,1.0,-0.359130249023,-0.550666381836,10.1562034424,1.0,0.0,0.0,0.0,1.0,0.0,0.0,0.0,1.0
1464109364752800408,335,1464109364746712560,,9.49626064301,-5.61136054993,-44.806804657,0.00136200000998,1.0,0.0,0.0,0.0,1.0,0.0,0.0,0.0,1.0,-0.609756112099,2.68292689323,-0.243902444839,1.0,0.0,0.0,0.0,1.0,0.0,0.0,0.0,1.0,-0.517147558594,-0.665588061523,10.2376062988,1.0,0.0,0.0,0.0,1.0,0.0,0.0,0.0,1.0
1464109364769299789,336,1464109364766601515,,9.52457523346,-5.61786460876,-44.9943313599,0.00101699994411,1.0,0.0,0.0,0.0,1.0,0.0,0.0,0.0,1.0,-0.548780500889,1.2804877758,-0.304878056049,1.0,0.0,0.0,0.0,1.0,0.0,0.0,0.0,1.0,-0.497993945312,-0.718260498047,10.3573163818,1.0,0.0,0.0,0.0,1.0,0.0,0.0,0.0,1.0
1464109364790344417,337,1464109364787798903,,9.51656913757,-5.62995624542,-45.1760139465,0.0010229999898,1.0,0.0,0.0,0.0,1.0,0.0,0.0,0.0,1.0,-0.426829278469,0.0609756112099,0.487804889679,1.0,0.0,0.0,0.0,1.0,0.0,0.0,0.0,1.0,-0.31124621582,-0.660799658203,10.1562034424,1.0,0.0,0.0,0.0,1.0,0.0,0.0,0.0,1.0
1464109364812811646,338,1464109364809868685,,9.47323131561,-5.63764190674,-45.3570594788,0.00174500001594,1.0,0.0,0.0,0.0,1.0,0.0,0.0,0.0,1.0,-0.548780500889,-0.731707334518,0.0609756112099,1.0,0.0,0.0,0.0,1.0,0.0,0.0,0.0,1.0,-0.234631762695,-0.708683691406,10.1370498291,1.0,0.0,0.0,0.0,1.0,0.0,0.0,0.0,1.0
1464109364834794345,339,1464109364830926491,,9.4068479538,-5.64671897888,-45.5401344299,0.00116500002332,1.0,0.0,0.0,0.0,1.0,0.0,0.0,0.0,1.0,-0.304878056049,-1.70731711388,-0.365853667259,1.0,0.0,0.0,0.0,1.0,0.0,0.0,0.0,1.0,-0.201112939453,-0.756567724609,10.2471831055,1.0,0.0,0.0,0.0,1.0,0.0,0.0,0.0,1.0
1464109364857127355,340,1464109364851627944,,9.32436656952,-5.65849351883,-45.7294464111,0.00127799995244,1.0,0.0,0.0,0.0,1.0,0.0,0.0,0.0,1.0,-0.18292683363,-2.62195134163,-0.487804889679,1.0,0.0,0.0,0.0,1.0,0.0,0.0,0.0,1.0,-0.220266552734,-0.804451757813,9.98382092285,1.0,0.0,0.0,0.0,1.0,0.0,0.0,0.0,1.0
1464109364876496051,341,1464109364872924759,,9.23079109192,-5.66888952255,-45.9159927368,0.00101699994411,1.0,0.0,0.0,0.0,1.0,0.0,0.0,0.0,1.0,-0.487804889679,-3.7804877758,-0.12195122242,1.0,0.0,0.0,0.0,1.0,0.0,0.0,0.0,1.0,-0.378283862305,-0.76614453125,10.1418382324,1.0,0.0,0.0,0.0,1.0,0.0,0.0,0.0,1.0
1464109364898725572,342,1464109364893808398,,9.11923217773,-5.66425275803,-46.0934524536,0.00114099995699,1.0,0.0,0.0,0.0,1.0,0.0,0.0,0.0,1.0,0.12195122242,-4.75609779358,-0.304878056049,1.0,0.0,0.0,0.0,1.0,0.0,0.0,0.0,1.0,-0.435744702148,-0.450109912109,10.0748005859,1.0,0.0,0.0,0.0,1.0,0.0,0.0,0.0,1.0
1464109364920520563,343,1464109364914216362,,8.98118305206,-5.65393543243,-46.2640075684,0.00101600005291,1.0,0.0,0.0,0.0,1.0,0.0,0.0,0.0,1.0,0.0609756112099,-5.60975599289,-0.304878056049,1.0,0.0,0.0,0.0,1.0,0.0,0.0,0.0,1.0,-0.124498486328,-0.579396801758,10.1992990723,1.0,0.0,0.0,0.0,1.0,0.0,0.0,0.0,1.0
1464109364941271703,344,1464109364935413907,,8.81252098083,-5.64170694351,-46.4313545227,0.00115899997763,1.0,0.0,0.0,0.0,1.0,0.0,0.0,0.0,1.0,0.18292683363,-4.75609779358,0.487804889679,1.0,0.0,0.0,0.0,1.0,0.0,0.0,0.0,1.0,0.148440512063,-0.684741674805,10.1705686523,1.0,0.0,0.0,0.0,1.0,0.0,0.0,0.0,1.0
1464109364960794878,345,1464109364955888954,,8.65893650055,-5.63052368164,-46.592464447,0.00114099995699,1.0,0.0,0.0,0.0,1.0,0.0,0.0,0.0,1.0,-0.304878056049,-2.86585378647,0.487804889679,1.0,0.0,0.0,0.0,1.0,0.0,0.0,0.0,1.0,0.263362164351,-0.584185168546,10.2615483154,1.0,0.0,0.0,0.0,1.0,0.0,0.0,0.0,1.0
1464109364981852163,346,1464109364977245769,,8.53151893616,-5.61634397507,-46.7721977234,0.00122199999169,1.0,0.0,0.0,0.0,1.0,0.0,0.0,0.0,1.0,-0.609756112099,-1.64634156227,-0.426829278469,1.0,0.0,0.0,0.0,1.0,0.0,0.0,0.0,1.0,0.205901342773,-0.603338854892,10.3237975586,1.0,0.0,0.0,0.0,1.0,0.0,0.0,0.0,1.0
1464109365006681468,347,1464109365000806016,,8.43724632263,-5.60875749588,-46.9897727966,0.00510200019926,1.0,0.0,0.0,0.0,1.0,0.0,0.0,0.0,1.0,-0.609756112099,-1.09756100178,-1.09756100178,1.0,0.0,0.0,0.0,1.0,0.0,0.0,0.0,1.0,-0.114921679688,-0.713472094727,10.3429511719,1.0,0.0,0.0,0.0,1.0,0.0,0.0,0.0,1.0
1464109365031502909,348,1464109365027313129,,8.36821460724,-5.59889650345,-47.214931488,0.0103919999674,1.0,0.0,0.0,0.0,1.0,0.0,0.0,0.0,1.0,-0.243902444839,-2.19512200356,0.0,1.0,0.0,0.0,0.0,1.0,0.0,0.0,0.0,1.0,-0.258573779297,-0.627280834961,10.3381627686,1.0,0.0,0.0,0.0,1.0,0.0,0.0,0.0,1.0
1464109365049912910,349,1464109365047284740,,8.28599071503,-5.59311485291,-47.3932723999,0.00101699994411,1.0,0.0,0.0,0.0,1.0,0.0,0.0,0.0,1.0,-0.12195122242,-3.47560977936,-0.243902444839,1.0,0.0,0.0,0.0,1.0,0.0,0.0,0.0,1.0,-0.124498486328,-0.598550451572,10.2232410889,1.0,0.0,0.0,0.0,1.0,0.0,0.0,0.0,1.0
1464109365070394519,350,1464109365067808484,,8.17393398285,-5.59578704834,-47.5626411438,0.00103100005072,1.0,0.0,0.0,0.0,1.0,0.0,0.0,0.0,1.0,-0.426829278469,-3.71951246262,0.243902444839,1.0,0.0,0.0,0.0,1.0,0.0,0.0,0.0,1.0,-0.0143652099609,-0.708683691406,10.2088758789,1.0,0.0,0.0,0.0,1.0,0.0,0.0,0.0,1.0
1464109365092254093,351,1464109365088802644,,8.04718208313,-5.60260057449,-47.7266845703,0.00119400001131,1.0,0.0,0.0,0.0,1.0,0.0,0.0,0.0,1.0,-0.487804889679,-2.31707310677,1.15853655338,1.0,0.0,0.0,0.0,1.0,0.0,0.0,0.0,1.0,0.248996972656,-0.756567724609,10.2567599121,1.0,0.0,0.0,0.0,1.0,0.0,0.0,0.0,1.0
1464109365114006376,352,1464109365109785034,,7.94503068924,-5.60082817078,-47.8783111572,0.0012529999949,1.0,0.0,0.0,0.0,1.0,0.0,0.0,0.0,1.0,-0.426829278469,-0.609756112099,1.09756100178,1.0,0.0,0.0,0.0,1.0,0.0,0.0,0.0,1.0,0.296881024126,-0.727837304687,10.2902787354,1.0,0.0,0.0,0.0,1.0,0.0,0.0,0.0,1.0
1464109365140405990,353,1464109365131172526,,7.87096595764,-5.59718084335,-48.0558166504,0.00121799996123,1.0,0.0,0.0,0.0,1.0,0.0,0.0,0.0,1.0,-0.365853667259,-1.34146344662,-0.731707334518,1.0,0.0,0.0,0.0,1.0,0.0,0.0,0.0,1.0,0.110133276367,-0.636857641602,10.1035310059,1.0,0.0,0.0,0.0,1.0,0.0,0.0,0.0,1.0
1464109365154975376,354,1464109365151627885,,7.78573656082,-5.59544181824,-48.2573318481,0.001215999946,1.0,0.0,0.0,0.0,1.0,0.0,0.0,0.0,1.0,-0.365853667259,-2.5,-1.8902438879,1.0,0.0,0.0,0.0,1.0,0.0,0.0,0.0,1.0,0.0861912597656,-0.646434448242,10.285490332,1.0,0.0,0.0,0.0,1.0,0.0,0.0,0.0,1.0
1464109365175304798,355,1464109365171912881,,7.71617603302,-5.59631824493,-48.4450836182,0.00103399995714,1.0,0.0,0.0,0.0,1.0,0.0,0.0,0.0,1.0,-0.304878056049,-1.46341466904,0.0,1.0,0.0,0.0,0.0,1.0,0.0,0.0,0.0,1.0,0.0,-0.593762048251,10.1609918457,1.0,0.0,0.0,0.0,1.0,0.0,0.0,0.0,1.0
1464109365195894584,356,1464109365192529646,,7.64775180817,-5.59133291245,-48.6031913757,0.00101699994411,1.0,0.0,0.0,0.0,1.0,0.0,0.0,0.0,1.0,-0.12195122242,-1.70731711388,0.731707334518,1.0,0.0,0.0,0.0,1.0,0.0,0.0,0.0,1.0,0.201112939453,-0.588973571866,10.0221281494,1.0,0.0,0.0,0.0,1.0,0.0,0.0,0.0,1.0
1464109365216913380,357,1464109365213467608,,7.55521440506,-5.58659362793,-48.774646759,0.00118000002112,1.0,0.0,0.0,0.0,1.0,0.0,0.0,0.0,1.0,-0.365853667259,-1.58536589146,0.18292683363,1.0,0.0,0.0,0.0,1.0,0.0,0.0,0.0,1.0,0.31124621582,-0.651222851562,10.1418382324,1.0,0.0,0.0,0.0,1.0,0.0,0.0,0.0,1.0
1464109365242265861,358,1464109365234449997,,7.48617696762,-5.5858669281,-48.9365310669,0.00109899998643,1.0,0.0,0.0,0.0,1.0,0.0,0.0,0.0,1.0,-0.0609756112099,1.09756100178,1.58536589146,1.0,0.0,0.0,0.0,1.0,0.0,0.0,0.0,1.0,0.397437475586,-0.651222851562,10.2519715088,1.0,0.0,0.0,0.0,1.0,0.0,0.0,0.0,1.0
1464109365260674976,359,1464109365255366866,,7.45635318756,-5.57537603378,-49.0930709839,0.0010229999898,1.0,0.0,0.0,0.0,1.0,0.0,0.0,0.0,1.0,-0.609756112099,1.64634156227,1.03658533096,1.0,0.0,0.0,0.0,1.0,0.0,0.0,0.0,1.0,0.359130249023,-0.569819995117,10.3190091553,1.0,0.0,0.0,0.0,1.0,0.0,0.0,0.0,1.0
1464109365280095703,360,1464109365276237797,,7.43683099747,-5.56597661972,-49.2695732117,0.00102800002787,1.0,0.0,0.0,0.0,1.0,0.0,0.0,0.0,1.0,-0.731707334518,2.13414645195,-0.12195122242,1.0,0.0,0.0,0.0,1.0,0.0,0.0,0.0,1.0,0.234631762695,-0.60812722168,10.2184526855,1.0,0.0,0.0,0.0,1.0,0.0,0.0,0.0,1.0
1464109365306177557,361,1464109365303703189,,7.42215919495,-5.55379056931,-49.4638633728,0.00123399996664,1.0,0.0,0.0,0.0,1.0,0.0,0.0,0.0,1.0,-0.792682945728,2.43902444839,-0.609756112099,1.0,0.0,0.0,0.0,1.0,0.0,0.0,0.0,1.0,0.0909796630859,-0.588973571866,10.1466266357,1.0,0.0,0.0,0.0,1.0,0.0,0.0,0.0,1.0
1464109365324253236,362,1464109365318876063,,7.43733024597,-5.54766798019,-49.660068512,0.0014009999577,1.0,0.0,0.0,0.0,1.0,0.0,0.0,0.0,1.0,-0.670731723309,2.37804889679,-0.0609756112099,1.0,0.0,0.0,0.0,1.0,0.0,0.0,0.0,1.0,0.0814028564453,-0.555454785156,10.1274730225,1.0,0.0,0.0,0.0,1.0,0.0,0.0,0.0,1.0
1464109365346380830,363,1464109365340675794,,7.46447563171,-5.5454788208,-49.8469429016,0.00196300004609,1.0,0.0,0.0,0.0,1.0,0.0,0.0,0.0,1.0,-0.487804889679,2.19512200356,0.426829278469,1.0,0.0,0.0,0.0,1.0,0.0,0.0,0.0,1.0,0.0526724365234,-0.603338854892,10.299855542,1.0,0.0,0.0,0.0,1.0,0.0,0.0,0.0,1.0
1464109365368433945,364,1464109365361839589,,7.4636220932,-5.54541826248,-50.0310974121,0.00127600005362,1.0,0.0,0.0,0.0,1.0,0.0,0.0,0.0,1.0,-0.731707334518,2.01219511032,0.243902444839,1.0,0.0,0.0,0.0,1.0,0.0,0.0,0.0,1.0,0.181959326172,-0.584185168546,10.180145459,1.0,0.0,0.0,0.0,1.0,0.0,0.0,0.0,1.0
1464109365386699571,365,1464109365382999790,,7.4560585022,-5.54453229904,-50.2026023865,0.00115899997763,1.0,0.0,0.0,0.0,1.0,0.0,0.0,0.0,1.0,-0.487804889679,3.96341490746,1.34146344662,1.0,0.0,0.0,0.0,1.0,0.0,0.0,0.0,1.0,0.225054956055,-0.76135612793,10.3094323486,1.0,0.0,0.0,0.0,1.0,0.0,0.0,0.0,1.0
1464109365406946442,366,1464109365403836242,,7.49434518814,-5.53534555435,-50.3509864807,0.00118799996562,1.0,0.0,0.0,0.0,1.0,0.0,0.0,0.0,1.0,-0.731707334518,5.42682933807,1.76829278469,1.0,0.0,0.0,0.0,1.0,0.0,0.0,0.0,1.0,0.344765039063,-0.636857641602,10.2807019287,1.0,0.0,0.0,0.0,1.0,0.0,0.0,0.0,1.0
1464109365427086021,367,1464109365424761288,,7.55278301239,-5.5352306366,-50.5284538269,0.00106299994513,1.0,0.0,0.0,0.0,1.0,0.0,0.0,0.0,1.0,-0.426829278469,4.45121955872,0.0609756112099,1.0,0.0,0.0,0.0,1.0,0.0,0.0,0.0,1.0,0.148440512063,-0.708683691406,10.180145459,1.0,0.0,0.0,0.0,1.0,0.0,0.0,0.0,1.0
1464109365448067056,368,1464109365445884145,,7.59594917297,-5.54400014877,-50.7269630432,0.00111800001469,1.0,0.0,0.0,0.0,1.0,0.0,0.0,0.0,1.0,-0.670731723309,3.04878044128,-0.548780500889,1.0,0.0,0.0,0.0,1.0,0.0,0.0,0.0,1.0,0.0239420166016,-0.723048901367,10.2136642822,1.0,0.0,0.0,0.0,1.0,0.0,0.0,0.0,1.0
1464109365468832050,369,1464109365466720024,,7.62305784225,-5.55335998535,-50.9265899658,0.00154600001406,1.0,0.0,0.0,0.0,1.0,0.0,0.0,0.0,1.0,-0.792682945728,2.68292689323,-0.304878056049,1.0,0.0,0.0,0.0,1.0,0.0,0.0,0.0,1.0,0.15801730957,-0.737414111328,10.2471831055,1.0,0.0,0.0,0.0,1.0,0.0,0.0,0.0,1.0
1464109365493468908,370,1464109365488410172,,7.65038251877,-5.5607676506,-51.1091690063,0.00124200002756,1.0,0.0,0.0,0.0,1.0,0.0,0.0,0.0,1.0,-0.609756112099,4.63414621353,1.15853655338,1.0,0.0,0.0,0.0,1.0,0.0,0.0,0.0,1.0,0.46447512207,-0.727837304687,10.1178962158,1.0,0.0,0.0,0.0,1.0,0.0,0.0,0.0,1.0
1464109365511134483,371,1464109365508893396,,7.69788360596,-5.56052303314,-51.275188446,0.00118400005158,1.0,0.0,0.0,0.0,1.0,0.0,0.0,0.0,1.0,-0.609756112099,5.60975599289,0.975609779358,1.0,0.0,0.0,0.0,1.0,0.0,0.0,0.0,1.0,0.373495458984,-0.632069238281,10.2902787354,1.0,0.0,0.0,0.0,1.0,0.0,0.0,0.0,1.0
1464109365531936352,372,1464109365529901775,,7.75073337555,-5.56497907639,-51.4595375061,0.00140599999577,1.0,0.0,0.0,0.0,1.0,0.0,0.0,0.0,1.0,-0.426829278469,6.52439069748,-0.243902444839,1.0,0.0,0.0,0.0,1.0,0.0,0.0,0.0,1.0,0.387860668945,-0.651222851562,10.1514150391,1.0,0.0,0.0,0.0,1.0,0.0,0.0,0.0,1.0
1464109365552741398,373,1464109365550357134,,7.83502483368,-5.56989526749,-51.6572608948,0.00122900004499,1.0,0.0,0.0,0.0,1.0,0.0,0.0,0.0,1.0,-0.853658556938,6.89024400711,-0.304878056049,1.0,0.0,0.0,0.0,1.0,0.0,0.0,0.0,1.0,0.15801730957,-0.632069238281,10.285490332,1.0,0.0,0.0,0.0,1.0,0.0,0.0,0.0,1.0
1464109365573955922,374,1464109365571609627,,7.94611501694,-5.57157182693,-51.8669662476,0.00102600001264,1.0,0.0,0.0,0.0,1.0,0.0,0.0,0.0,1.0,-0.731707334518,6.40243911743,-0.792682945728,1.0,0.0,0.0,0.0,1.0,0.0,0.0,0.0,1.0,-0.129286889648,-0.756567724609,10.2471831055,1.0,0.0,0.0,0.0,1.0,0.0,0.0,0.0,1.0
1464109365594160918,375,1464109365591842956,,8.05261421204,-5.56798601151,-52.0667114258,0.00104700005613,1.0,0.0,0.0,0.0,1.0,0.0,0.0,0.0,1.0,-0.487804889679,5.12195110321,-0.426829278469,1.0,0.0,0.0,0.0,1.0,0.0,0.0,0.0,1.0,-0.220266552734,-0.603338854892,10.0700121826,1.0,0.0,0.0,0.0,1.0,0.0,0.0,0.0,1.0
1464109365614923776,376,1464109365612541960,,8.13766860962,-5.56745529175,-52.2524261475,0.00101699994411,1.0,0.0,0.0,0.0,1.0,0.0,0.0,0.0,1.0,-0.304878056049,3.96341490746,0.487804889679,1.0,0.0,0.0,0.0,1.0,0.0,0.0,0.0,1.0,-0.287304199219,-0.550666381836,10.2950671387,1.0,0.0,0.0,0.0,1.0,0.0,0.0,0.0,1.0
1464109365642279950,377,1464109365633253413,,8.18311691284,-5.57093858719,-52.436882019,0.00106599996798,1.0,0.0,0.0,0.0,1.0,0.0,0.0,0.0,1.0,-0.670731723309,1.64634156227,-0.609756112099,1.0,0.0,0.0,0.0,1.0,0.0,0.0,0.0,1.0,-0.349553442383,-0.598550451572,10.1322614258,1.0,0.0,0.0,0.0,1.0,0.0,0.0,0.0,1.0
1464109365661962291,378,1464109365653761480,,8.18377017975,-5.57469844818,-52.6271209717,0.00112799997441,1.0,0.0,0.0,0.0,1.0,0.0,0.0,0.0,1.0,-0.365853667259,0.487804889679,-0.548780500889,1.0,0.0,0.0,0.0,1.0,0.0,0.0,0.0,1.0,-0.186747729492,-0.646434448242,10.1705686523,1.0,0.0,0.0,0.0,1.0,0.0,0.0,0.0,1.0
1464109365678821775,379,1464109365674380433,,8.1617603302,-5.57870435715,-52.7997589111,0.00101000000723,1.0,0.0,0.0,0.0,1.0,0.0,0.0,0.0,1.0,-0.426829278469,-0.609756112099,0.670731723309,1.0,0.0,0.0,0.0,1.0,0.0,0.0,0.0,1.0,-0.100556469727,-0.665588061523,10.2376062988,1.0,0.0,0.0,0.0,1.0,0.0,0.0,0.0,1.0
1464109365698817604,380,1464109365695619123,,8.11225318909,-5.57220077515,-52.9683074951,0.000975999981165,1.0,0.0,0.0,0.0,1.0,0.0,0.0,0.0,1.0,0.0,-0.975609779358,0.487804889679,1.0,0.0,0.0,0.0,1.0,0.0,0.0,0.0,1.0,-0.0478840332031,-0.622492431641,10.1035310059,1.0,0.0,0.0,0.0,1.0,0.0,0.0,0.0,1.0
1464109365722883214,381,1464109365716179014,,8.0311088562,-5.56886100769,-53.1432380676,0.00113300001249,1.0,0.0,0.0,0.0,1.0,0.0,0.0,0.0,1.0,-0.670731723309,-1.2804877758,0.0,1.0,0.0,0.0,0.0,1.0,0.0,0.0,0.0,1.0,0.201112939453,-0.670376464844,10.2519715088,1.0,0.0,0.0,0.0,1.0,0.0,0.0,0.0,1.0
1464109365744631018,382,1464109365736735727,,7.954226017,-5.57412719727,-53.3274383545,0.00112599995919,1.0,0.0,0.0,0.0,1.0,0.0,0.0,0.0,1.0,-0.304878056049,-0.853658556938,-0.365853667259,1.0,0.0,0.0,0.0,1.0,0.0,0.0,0.0,1.0,0.225054956055,-0.708683691406,10.1562034424,1.0,0.0,0.0,0.0,1.0,0.0,0.0,0.0,1.0
1464109365762444301,383,1464109365758535927,,7.90083837509,-5.56860160828,-53.5103912354,0.00119400001131,1.0,0.0,0.0,0.0,1.0,0.0,0.0,0.0,1.0,-0.304878056049,-0.365853667259,0.18292683363,1.0,0.0,0.0,0.0,1.0,0.0,0.0,0.0,1.0,-0.076614453125,-0.718260498047,10.0748005859,1.0,0.0,0.0,0.0,1.0,0.0,0.0,0.0,1.0
1464109365786673817,384,1464109365783748252,,7.82088422775,-5.55735015869,-53.7314224243,0.00551200006157,1.0,0.0,0.0,0.0,1.0,0.0,0.0,0.0,1.0,-0.487804889679,-1.58536589146,-0.426829278469,1.0,0.0,0.0,0.0,1.0,0.0,0.0,0.0,1.0,0.124498486328,-0.545877978516,10.2423947021,1.0,0.0,0.0,0.0,1.0,0.0,0.0,0.0,1.0
1464109365807018864,385,1464109365805039755,,7.74639177322,-5.54827737808,-53.9066848755,0.00110600003973,1.0,0.0,0.0,0.0,1.0,0.0,0.0,0.0,1.0,-0.731707334518,-0.18292683363,0.792682945728,1.0,0.0,0.0,0.0,1.0,0.0,0.0,0.0,1.0,0.31124621582,-0.555454785156,10.2184526855,1.0,0.0,0.0,0.0,1.0,0.0,0.0,0.0,1.0
1464109365832252752,386,1464109365826285581,,7.68953514099,-5.54248189926,-54.0731048584,0.00109000003431,1.0,0.0,0.0,0.0,1.0,0.0,0.0,0.0,1.0,-0.365853667259,0.365853667259,0.548780500889,1.0,0.0,0.0,0.0,1.0,0.0,0.0,0.0,1.0,0.263362164351,-0.612915625,10.1466266357,1.0,0.0,0.0,0.0,1.0,0.0,0.0,0.0,1.0
1464109365850484992,387,1464109365847597604,,7.64566373825,-5.53955984116,-54.2614707947,0.0010229999898,1.0,0.0,0.0,0.0,1.0,0.0,0.0,0.0,1.0,-0.304878056049,1.09756100178,-0.365853667259,1.0,0.0,0.0,0.0,1.0,0.0,0.0,0.0,1.0,0.277727392578,-0.703895288086,10.2950671387,1.0,0.0,0.0,0.0,1.0,0.0,0.0,0.0,1.0
1464109365871440142,388,1464109365868999420,,7.61458444595,-5.54365491867,-54.4546928406,0.0011190000223,1.0,0.0,0.0,0.0,1.0,0.0,0.0,0.0,1.0,-0.548780500889,1.64634156227,-0.0609756112099,1.0,0.0,0.0,0.0,1.0,0.0,0.0,0.0,1.0,0.134075302102,-0.76614453125,10.3764699951,1.0,0.0,0.0,0.0,1.0,0.0,0.0,0.0,1.0
1464109365892536802,389,1464109365890026861,,7.60354089737,-5.55061435699,-54.6417884827,0.0017269999953,1.0,0.0,0.0,0.0,1.0,0.0,0.0,0.0,1.0,-0.304878056049,1.46341466904,0.18292683363,1.0,0.0,0.0,0.0,1.0,0.0,0.0,0.0,1.0,0.0287304199219,-0.790086547852,10.3094323486,1.0,0.0,0.0,0.0,1.0,0.0,0.0,0.0,1.0
1464109365913646586,390,1464109365911012948,,7.59642601013,-5.54969644547,-54.8243675232,0.00114700000267,1.0,0.0,0.0,0.0,1.0,0.0,0.0,0.0,1.0,-0.731707334518,0.914634168148,0.0,1.0,0.0,0.0,0.0,1.0,0.0,0.0,0.0,1.0,0.143652099609,-0.579396801758,10.1562034424,1.0,0.0,0.0,0.0,1.0,0.0,0.0,0.0,1.0
1464109365934027935,391,1464109365931512318,,7.57999563217,-5.53918361664,-55.0003967285,0.00119500001892,1.0,0.0,0.0,0.0,1.0,0.0,0.0,0.0,1.0,-0.487804889679,1.2195122242,0.243902444839,1.0,0.0,0.0,0.0,1.0,0.0,0.0,0.0,1.0,0.191536132812,-0.598550451572,10.285490332,1.0,0.0,0.0,0.0,1.0,0.0,0.0,0.0,1.0
1464109365954493034,392,1464109365952226739,,7.56170034409,-5.53145122528,-55.17710495,0.00136999995448,1.0,0.0,0.0,0.0,1.0,0.0,0.0,0.0,1.0,-0.487804889679,1.03658533096,0.0,1.0,0.0,0.0,0.0,1.0,0.0,0.0,0.0,1.0,0.167594116211,-0.665588061523,10.2088758789,1.0,0.0,0.0,0.0,1.0,0.0,0.0,0.0,1.0
1464109365976543285,393,1464109365973494231,,7.53240728378,-5.53448200226,-55.3645858765,0.000983000034466,1.0,0.0,0.0,0.0,1.0,0.0,0.0,0.0,1.0,-0.487804889679,0.304878056049,-0.426829278469,1.0,0.0,0.0,0.0,1.0,0.0,0.0,0.0,1.0,0.105344873047,-0.895431420898,10.1178962158,1.0,0.0,0.0,0.0,1.0,0.0,0.0,0.0,1.0
1464109365997808017,394,1464109365994623287,,7.4917550087,-5.54739284515,-55.5548286438,0.00104700005613,1.0,0.0,0.0,0.0,1.0,0.0,0.0,0.0,1.0,-0.243902444839,0.0609756112099,0.0,1.0,0.0,0.0,0.0,1.0,0.0,0.0,0.0,1.0,0.229843359375,-0.775721337891,10.4291424316,1.0,0.0,0.0,0.0,1.0,0.0,0.0,0.0,1.0
1464109366020447069,395,1464109366015683749,,7.46092700958,-5.55697250366,-55.730255127,0.00100499996915,1.0,0.0,0.0,0.0,1.0,0.0,0.0,0.0,1.0,-0.365853667259,0.670731723309,0.670731723309,1.0,0.0,0.0,0.0,1.0,0.0,0.0,0.0,1.0,0.167594116211,-0.679953271484,10.2232410889,1.0,0.0,0.0,0.0,1.0,0.0,0.0,0.0,1.0
1464109366041306542,396,1464109366036634263,,7.42477846146,-5.56292009354,-55.9165496826,0.00103299994953,1.0,0.0,0.0,0.0,1.0,0.0,0.0,0.0,1.0,-0.426829278469,0.243902444839,-0.426829278469,1.0,0.0,0.0,0.0,1.0,0.0,0.0,0.0,1.0,0.138863696289,-0.651222851562,10.1897222656,1.0,0.0,0.0,0.0,1.0,0.0,0.0,0.0,1.0
1464109366060421384,397,1464109366057281757,,7.38509893417,-5.56239843369,-56.101600647,0.00109200004954,1.0,0.0,0.0,0.0,1.0,0.0,0.0,0.0,1.0,-0.792682945728,0.18292683363,-0.0609756112099,1.0,0.0,0.0,0.0,1.0,0.0,0.0,0.0,1.0,0.177170922852,-0.555454785156,10.1418382324,1.0,0.0,0.0,0.0,1.0,0.0,0.0,0.0,1.0
1464109366082823821,398,1464109366080557890,,7.340695858,-5.55043029785,-56.2944793701,0.00418299995363,1.0,0.0,0.0,0.0,1.0,0.0,0.0,0.0,1.0,-0.609756112099,0.304878056049,0.487804889679,1.0,0.0,0.0,0.0,1.0,0.0,0.0,0.0,1.0,0.172382519531,-0.550666381836,10.2711251221,1.0,0.0,0.0,0.0,1.0,0.0,0.0,0.0,1.0
1464109366107959480,399,1464109366101296790,,7.29849815369,-5.53465509415,-56.4719047546,0.00122400000691,1.0,0.0,0.0,0.0,1.0,0.0,0.0,0.0,1.0,-0.426829278469,-0.243902444839,-0.18292683363,1.0,0.0,0.0,0.0,1.0,0.0,0.0,0.0,1.0,0.210689746094,-0.588973571866,10.3668931885,1.0,0.0,0.0,0.0,1.0,0.0,0.0,0.0,1.0
1464109366125682191,400,1464109366122708605,,7.25029039383,-5.52917528152,-56.6625518799,0.00527800014243,1.0,0.0,0.0,0.0,1.0,0.0,0.0,0.0,1.0,-0.609756112099,-0.18292683363,-0.12195122242,1.0,0.0,0.0,0.0,1.0,0.0,0.0,0.0,1.0,0.201112939453,-0.60812722168,10.3381627686,1.0,0.0,0.0,0.0,1.0,0.0,0.0,0.0,1.0
1464109366149185510,401,1464109366145185001,,7.20693016052,-5.51777839661,-56.8468170166,0.00278300000355,1.0,0.0,0.0,0.0,1.0,0.0,0.0,0.0,1.0,-2.01219511032,1.2804877758,0.792682945728,1.0,0.0,0.0,0.0,1.0,0.0,0.0,0.0,1.0,0.368707055664,-0.411802685547,10.3573163818,1.0,0.0,0.0,0.0,1.0,0.0,0.0,0.0,1.0
1464109366172696903,402,1464109366167384887,,7.17895841599,-5.49115753174,-57.0073394775,0.0074729998596,1.0,0.0,0.0,0.0,1.0,0.0,0.0,0.0,1.0,-0.365853667259,3.17073178291,1.64634156227,1.0,0.0,0.0,0.0,1.0,0.0,0.0,0.0,1.0,0.493205541992,-0.440533105469,10.3237975586,1.0,0.0,0.0,0.0,1.0,0.0,0.0,0.0,1.0
1464109366191687631,403,1464109366187622590,,7.19945430756,-5.45626544952,-57.1541137695,0.00120199995581,1.0,0.0,0.0,0.0,1.0,0.0,0.0,0.0,1.0,-1.15853655338,5.42682933807,2.43902444839,1.0,0.0,0.0,0.0,1.0,0.0,0.0,0.0,1.0,0.478840332031,-0.426167895508,10.314220752,1.0,0.0,0.0,0.0,1.0,0.0,0.0,0.0,1.0
1464109366210099090,404,1464109366208468001,,7.26029491425,-5.42585992813,-57.3107566833,0.00100699998438,1.0,0.0,0.0,0.0,1.0,0.0,0.0,0.0,1.0,-0.914634168148,4.93902444839,0.975609779358,1.0,0.0,0.0,0.0,1.0,0.0,0.0,0.0,1.0,0.349553442383,-0.517147558594,10.4291424316,1.0,0.0,0.0,0.0,1.0,0.0,0.0,0.0,1.0
1464109366233653607,405,1464109366230003722,,7.30328321457,-5.39963769913,-57.5088348389,0.00127000000793,1.0,0.0,0.0,0.0,1.0,0.0,0.0,0.0,1.0,-0.609756112099,5.54878091812,-0.853658556938,1.0,0.0,0.0,0.0,1.0,0.0,0.0,0.0,1.0,0.387860668945,-0.45968671875,10.3716815918,1.0,0.0,0.0,0.0,1.0,0.0,0.0,0.0,1.0
1464109366254420893,406,1464109366250819341,,7.38535451889,-5.37404870987,-57.6907806396,0.00108499999624,1.0,0.0,0.0,0.0,1.0,0.0,0.0,0.0,1.0,-0.975609779358,6.0365858078,0.609756112099,1.0,0.0,0.0,0.0,1.0,0.0,0.0,0.0,1.0,0.76135612793,0.0239420166016,11.152191333,1.0,0.0,0.0,0.0,1.0,0.0,0.0,0.0,1.0
1464109366274238858,407,1464109366271875271,,7.50446796417,-5.38366127014,-57.859210968,0.00096700002905,1.0,0.0,0.0,0.0,1.0,0.0,0.0,0.0,1.0,2.74390244484,20.3658542633,1.8292683363,1.0,0.0,0.0,0.0,1.0,0.0,0.0,0.0,1.0,0.598550451572,3.02148249512,9.18894597168,1.0,0.0,0.0,0.0,1.0,0.0,0.0,0.0,1.0
1464109366297766241,408,1464109366292807765,,7.54330873489,-5.2747926712,-57.9538497925,0.00101400003769,1.0,0.0,0.0,0.0,1.0,0.0,0.0,0.0,1.0,-15.6707315445,11.7073173523,7.80487823486,1.0,0.0,0.0,0.0,1.0,0.0,0.0,0.0,1.0,0.957680664062,-1.21625444336,12.3061965332,1.0,0.0,0.0,0.0,1.0,0.0,0.0,0.0,1.0
1464109366316549990,409,1464109366313728175,,7.71614933014,-4.87289094925,-58.0840187073,0.00099400000181,1.0,0.0,0.0,0.0,1.0,0.0,0.0,0.0,1.0,-14.2073173523,12.0731716156,1.70731711388,1.0,0.0,0.0,0.0,1.0,0.0,0.0,0.0,1.0,1.33596452637,-0.229843359375,5.45399138184,1.0,0.0,0.0,0.0,1.0,0.0,0.0,0.0,1.0
1464109366339608051,410,1464109366336920141,,7.89387989044,-4.87834692001,-58.4099769592,0.0010300000431,1.0,0.0,0.0,0.0,1.0,0.0,0.0,0.0,1.0,40.2439041138,4.75609779358,-1.2804877758,1.0,0.0,0.0,0.0,1.0,0.0,0.0,0.0,1.0,-0.0957680664062,7.98226833496,14.231134668,1.0,0.0,0.0,0.0,1.0,0.0,0.0,0.0,1.0
1464109366360392628,411,1464109366356065609,,8.15027809143,-4.72070503235,-58.5447502136,0.00120399997104,1.0,0.0,0.0,0.0,1.0,0.0,0.0,0.0,1.0,-0.548780500889,6.28048801422,-0.0609756112099,1.0,0.0,0.0,0.0,1.0,0.0,0.0,0.0,1.0,-4.26167924734,-2.00155258789,8.45153127583,1.0,0.0,0.0,0.0,1.0,0.0,0.0,0.0,1.0
1464109366383506313,412,1464109366381561527,,8.50695514679,-4.82354784012,-58.7731590271,0.00122700002976,1.0,0.0,0.0,0.0,1.0,0.0,0.0,0.0,1.0,18.7195110321,14.3292694092,-0.365853667259,1.0,0.0,0.0,0.0,1.0,0.0,0.0,0.0,1.0,1.08217922346,0.0335188255255,7.83861623535,1.0,0.0,0.0,0.0,1.0,0.0,0.0,0.0,1.0
1464109366403504382,413,1464109366400047621,,8.71032619476,-4.64204311371,-58.9290122986,0.00276000006124,1.0,0.0,0.0,0.0,1.0,0.0,0.0,0.0,1.0,15.4878053665,7.31707334518,-0.304878056049,1.0,0.0,0.0,0.0,1.0,0.0,0.0,0.0,1.0,0.9193734375,7.967903125,8.72447084961,1.0,0.0,0.0,0.0,1.0,0.0,0.0,0.0,1.0
1464109366425928538,414,1464109366423506409,,8.86523723602,-4.97482538223,-59.0286369324,0.00440600002185,1.0,0.0,0.0,0.0,1.0,0.0,0.0,0.0,1.0,30.8536605835,15.8536596298,7.74390268326,1.0,0.0,0.0,0.0,1.0,0.0,0.0,0.0,1.0,2.06859023437,1.66157595215,21.8734263672,1.0,0.0,0.0,0.0,1.0,0.0,0.0,0.0,1.0
1464109366445594264,415,1464109366442988230,,9.1913728714,-4.87455511093,-59.2363777161,0.00679299980402,1.0,0.0,0.0,0.0,1.0,0.0,0.0,0.0,1.0,-1.2804877758,9.26829242706,2.37804889679,1.0,0.0,0.0,0.0,1.0,0.0,0.0,0.0,1.0,-0.881066210937,-0.239420166016,12.751518042,1.0,0.0,0.0,0.0,1.0,0.0,0.0,0.0,1.0
1464109366467641026,416,1464109366464570826,,9.4213142395,-4.54088783264,-59.3465576172,0.00174800003879,1.0,0.0,0.0,0.0,1.0,0.0,0.0,0.0,1.0,-16.4024391174,5.48780488968,-1.09756100178,1.0,0.0,0.0,0.0,1.0,0.0,0.0,0.0,1.0,-0.794874951172,9.70609353027,9.8545340332,1.0,0.0,0.0,0.0,1.0,0.0,0.0,0.0,1.0
1464109366488776019,417,1464109366486889878,,9.54913520813,-4.43191957474,-59.4649887085,0.00146900000982,1.0,0.0,0.0,0.0,1.0,0.0,0.0,0.0,1.0,6.0365858078,9.26829242706,0.426829278469,1.0,0.0,0.0,0.0,1.0,0.0,0.0,0.0,1.0,-0.411802685547,3.60087929687,13.6900450928,1.0,0.0,0.0,0.0,1.0,0.0,0.0,0.0,1.0
1464109366508463047,418,1464109366506049616,,9.71128177643,-3.9142074585,-59.514289856,0.00127600005362,1.0,0.0,0.0,0.0,1.0,0.0,0.0,0.0,1.0,-2.25609779358,7.13414621353,1.2195122242,1.0,0.0,0.0,0.0,1.0,0.0,0.0,0.0,1.0,-0.45968671875,2.08295529821,13.49850896,1.0,0.0,0.0,0.0,1.0,0.0,0.0,0.0,1.0
1464109366529935591,419,1464109366526915026,,9.84960079193,-3.73425412178,-59.6088027954,0.000959000026342,1.0,0.0,0.0,0.0,1.0,0.0,0.0,0.0,1.0,-16.7682933807,8.78048801422,3.23170733452,1.0,0.0,0.0,0.0,1.0,0.0,0.0,0.0,1.0,-1.27850368652,-0.780509741211,10.5632177246,1.0,0.0,0.0,0.0,1.0,0.0,0.0,0.0,1.0
1464109366551616676,420,1464109366548081998,,9.90518760681,-3.33609461784,-59.7131538391,0.00105800002348,1.0,0.0,0.0,0.0,1.0,0.0,0.0,0.0,1.0,-3.47560977936,0.914634168148,0.487804889679,1.0,0.0,0.0,0.0,1.0,0.0,0.0,0.0,1.0,-0.780509741211,5.72693037109,8.47547329243,1.0,0.0,0.0,0.0,1.0,0.0,0.0,0.0,1.0
1464109366571624485,421,1464109366569210012,,9.8753080368,-3.10700583458,-59.8565940857,0.0011419999646,1.0,0.0,0.0,0.0,1.0,0.0,0.0,0.0,1.0,22.2560977936,-6.70731735229,-3.47560977936,1.0,0.0,0.0,0.0,1.0,0.0,0.0,0.0,1.0,-0.143652099609,5.11880314941,6.71334145508,1.0,0.0,0.0,0.0,1.0,0.0,0.0,0.0,1.0
1464109366592646040,422,1464109366590032298,,9.78190231323,-3.01819324493,-59.9782142639,0.00166299997363,1.0,0.0,0.0,0.0,1.0,0.0,0.0,0.0,1.0,3.90243911743,-4.69512224197,0.0609756112099,1.0,0.0,0.0,0.0,1.0,0.0,0.0,0.0,1.0,1.82438166504,4.2521024407,9.22246479492,1.0,0.0,0.0,0.0,1.0,0.0,0.0,0.0,1.0
1464109366615888892,423,1464109366612058017,,9.6260061264,-2.72255539894,-60.0010299683,0.00140900001861,1.0,0.0,0.0,0.0,1.0,0.0,0.0,0.0,1.0,-13.9634151459,-6.0365858078,3.84146332741,1.0,0.0,0.0,0.0,1.0,0.0,0.0,0.0,1.0,0.191536132812,3.9839515625,8.34139799946,1.0,0.0,0.0,0.0,1.0,0.0,0.0,0.0,1.0
1464109366635773888,424,1464109366632928584,,9.52807331085,-3.18557310104,-60.0123519897,0.000973000016529,1.0,0.0,0.0,0.0,1.0,0.0,0.0,0.0,1.0,54.8780517578,2.86585378647,8.41463470459,1.0,0.0,0.0,0.0,1.0,0.0,0.0,0.0,1.0,1.85311208496,-5.22414802246,23.2620633301,1.0,0.0,0.0,0.0,1.0,0.0,0.0,0.0,1.0
1464109366665144431,425,1464109366653845609,,9.5801076889,-2.86397266388,-60.0690841675,0.0010969999712,1.0,0.0,0.0,0.0,1.0,0.0,0.0,0.0,1.0,-109.024391174,7.74390268326,8.17073154449,1.0,0.0,0.0,0.0,1.0,0.0,0.0,0.0,1.0,-4.89853659668,-4.08929643555,16.9222161649,1.0,0.0,0.0,0.0,1.0,0.0,0.0,0.0,1.0
1464109366685203281,426,1464109366675092060,,9.56243515015,-2.21031999588,-59.9314689636,0.00100899999961,1.0,0.0,0.0,0.0,1.0,0.0,0.0,0.0,1.0,-46.5853691101,9.32926845551,6.09756088257,1.0,0.0,0.0,0.0,1.0,0.0,0.0,0.0,1.0,0.0574608398438,0.167594116211,15.9884786865,1.0,0.0,0.0,0.0,1.0,0.0,0.0,0.0,1.0
1464109366704378384,427,1464109366696036168,,9.63342475891,-0.804650068283,-59.9349708557,0.00104600004852,1.0,0.0,0.0,0.0,1.0,0.0,0.0,0.0,1.0,-12.0731716156,-15.975610733,2.62195134163,1.0,0.0,0.0,0.0,1.0,0.0,0.0,0.0,1.0,-0.45489831543,6.97191523437,10.0221281494,1.0,0.0,0.0,0.0,1.0,0.0,0.0,0.0,1.0
1464109366723891246,428,1464109366718017877,,9.4006357193,-0.38039958477,-60.0234985352,0.00119400001131,1.0,0.0,0.0,0.0,1.0,0.0,0.0,0.0,1.0,59.6951255798,2.62195134163,-7.07317113876,1.0,0.0,0.0,0.0,1.0,0.0,0.0,0.0,1.0,0.833182177734,3.10767375488,8.12113203125,1.0,0.0,0.0,0.0,1.0,0.0,0.0,0.0,1.0
1464109366743965356,429,1464109366739225682,,9.35101318359,-0.10407371074,-59.9689254761,0.0016009999672,1.0,0.0,0.0,0.0,1.0,0.0,0.0,0.0,1.0,-9.20731735229,-6.21951246262,10.0,1.0,0.0,0.0,0.0,1.0,0.0,0.0,0.0,1.0,-1.82917006836,1.61848032227,4.29040966726,1.0,0.0,0.0,0.0,1.0,0.0,0.0,0.0,1.0
1464109366768551381,430,1464109366760176040,,9.3177280426,0.774672806263,-59.9078636169,0.00218699988909,1.0,0.0,0.0,0.0,1.0,0.0,0.0,0.0,1.0,-23.8414649963,-0.670731723309,11.8902444839,1.0,0.0,0.0,0.0,1.0,0.0,0.0,0.0,1.0,0.124498486328,8.35576320942,-1.58496149902,1.0,0.0,0.0,0.0,1.0,0.0,0.0,0.0,1.0
1464109366788003671,431,1464109366783887953,,9.32867527008,0.973973631859,-59.9156036377,0.00396900018677,1.0,0.0,0.0,0.0,1.0,0.0,0.0,0.0,1.0,-0.548780500889,-5.06097555161,5.0,1.0,0.0,0.0,0.0,1.0,0.0,0.0,0.0,1.0,-0.493205541992,4.71657697825,13.3357032471,1.0,0.0,0.0,0.0,1.0,0.0,0.0,0.0,1.0
1464109366810866784,432,1464109366804737947,,9.24614524841,1.40523016453,-59.8965110779,0.00115899997763,1.0,0.0,0.0,0.0,1.0,0.0,0.0,0.0,1.0,37.682926178,-5.85365867615,-1.70731711388,1.0,0.0,0.0,0.0,1.0,0.0,0.0,0.0,1.0,3.40455476074,10.5775829346,7.47948598633,1.0,0.0,0.0,0.0,1.0,0.0,0.0,0.0,1.0
1464109366827169447,433,1464109366824422110,,9.00091457367,2.10348057747,-59.7823448181,0.00136600004043,1.0,0.0,0.0,0.0,1.0,0.0,0.0,0.0,1.0,38.8414649963,7.31707334518,4.51219558716,1.0,0.0,0.0,0.0,1.0,0.0,0.0,0.0,1.0,2.71981308594,4.91769020996,-0.61770402832,1.0,0.0,0.0,0.0,1.0,0.0,0.0,0.0,1.0
1464109366851350004,434,1464109366849053604,,8.9889755249,2.16758584976,-59.6064529419,0.00467000016943,1.0,0.0,0.0,0.0,1.0,0.0,0.0,0.0,1.0,32.9878044128,18.658536911,24.5731716156,1.0,0.0,0.0,0.0,1.0,0.0,0.0,0.0,1.0,-0.890643017578,-3.45722719727,32.1062442627,1.0,0.0,0.0,0.0,1.0,0.0,0.0,0.0,1.0
1464109366871577656,435,1464109366869488078,,9.47736167908,2.69773507118,-59.5051574707,0.00125400000252,1.0,0.0,0.0,0.0,1.0,0.0,0.0,0.0,1.0,-50.3048820496,15.6707315445,2.80487799644,1.0,0.0,0.0,0.0,1.0,0.0,0.0,0.0,1.0,4.61602080078,-7.33583388672,25.996241626,1.0,0.0,0.0,0.0,1.0,0.0,0.0,0.0,1.0
1464109366893448792,436,1464109366890614113,,10.1096363068,2.01874661446,-59.5116043091,0.00119400001131,1.0,0.0,0.0,0.0,1.0,0.0,0.0,0.0,1.0,-15.6707315445,26.7073173523,9.51219558716,1.0,0.0,0.0,0.0,1.0,0.0,0.0,0.0,1.0,1.78128603516,-4.84586416016,10.912771167,1.0,0.0,0.0,0.0,1.0,0.0,0.0,0.0,1.0
1464109366914413629,437,1464109366911195774,,10.392665863,2.62580513954,-59.4789657593,0.00101300003007,1.0,0.0,0.0,0.0,1.0,0.0,0.0,0.0,1.0,5.48780488968,23.9634151459,5.91463422775,1.0,0.0,0.0,0.0,1.0,0.0,0.0,0.0,1.0,3.86902988281,6.47392128906,6.47870969238,1.0,0.0,0.0,0.0,1.0,0.0,0.0,0.0,1.0
1464109366943305215,438,1464109366932510871,,10.7699480057,2.00880718231,-59.3272323608,0.00099400000181,1.0,0.0,0.0,0.0,1.0,0.0,0.0,0.0,1.0,-1.70731711388,-0.0609756112099,25.0,1.0,0.0,0.0,0.0,1.0,0.0,0.0,0.0,1.0,-4.75488478933,-17.5399213623,29.7886570557,1.0,0.0,0.0,0.0,1.0,0.0,0.0,0.0,1.0
1464109366959916575,439,1464109366954119873,,11.3864974976,2.85709905624,-59.2910881042,0.00149000005331,1.0,0.0,0.0,0.0,1.0,0.0,0.0,0.0,1.0,-22.8048782349,24.0243911743,6.0365858078,1.0,0.0,0.0,0.0,1.0,0.0,0.0,0.0,1.0,2.25533796387,9.16021555176,20.9923601562,1.0,0.0,0.0,0.0,1.0,0.0,0.0,0.0,1.0
1464109366980926777,440,1464109366975097314,,11.832947731,3.34370875359,-59.1607551575,0.000960999983363,1.0,0.0,0.0,0.0,1.0,0.0,0.0,0.0,1.0,-26.4024391174,27.4390258789,-0.731707334518,1.0,0.0,0.0,0.0,1.0,0.0,0.0,0.0,1.0,-1.26413847656,-1.33117612305,16.2422640625,1.0,0.0,0.0,0.0,1.0,0.0,0.0,0.0,1.0
1464109367000048390,441,1464109366996810743,,12.5582132339,3.2290828228,-59.2635688782,0.00142800004687,1.0,0.0,0.0,0.0,1.0,0.0,0.0,0.0,1.0,-77.6829299927,41.0975646973,2.01219511032,1.0,0.0,0.0,0.0,1.0,0.0,0.0,0.0,1.0,-6.26801994629,-0.138863696289,5.65989272461,1.0,0.0,0.0,0.0,1.0,0.0,0.0,0.0,1.0
1464109367024630613,442,1464109367018212922,,13.2389631271,2.94932365417,-59.4276428223,0.00120900000911,1.0,0.0,0.0,0.0,1.0,0.0,0.0,0.0,1.0,-27.7439041138,48.1097602844,-7.37804937363,1.0,0.0,0.0,0.0,1.0,0.0,0.0,0.0,1.0,-1.04866025408,8.46589648579,-0.76614453125,1.0,0.0,0.0,0.0,1.0,0.0,0.0,0.0,1.0
1464109367041709263,443,1464109367039261822,,13.7573795319,2.88745832443,-59.3932533264,0.0014009999577,1.0,0.0,0.0,0.0,1.0,0.0,0.0,0.0,1.0,-89.5121994019,40.9146385193,0.18292683363,1.0,0.0,0.0,0.0,1.0,0.0,0.0,0.0,1.0,-0.837970581055,5.50187541504,-8.84418093262,1.0,0.0,0.0,0.0,1.0,0.0,0.0,0.0,1.0
1464109367065854247,444,1464109367061011084,,14.3377876282,4.52279949188,-59.572429657,0.00146199995652,1.0,0.0,0.0,0.0,1.0,0.0,0.0,0.0,1.0,81.341468811,-25.975610733,-25.8536586761,1.0,0.0,0.0,0.0,1.0,0.0,0.0,0.0,1.0,-5.35343491211,24.9619465088,4.91290180664,1.0,0.0,0.0,0.0,1.0,0.0,0.0,0.0,1.0
1464109367088659392,445,1464109367081923265,,15.1182403564,3.78576827049,-59.6520423889,0.00136300001759,1.0,0.0,0.0,0.0,1.0,0.0,0.0,0.0,1.0,-55.7926826477,80.1219482422,-4.57317066193,1.0,0.0,0.0,0.0,1.0,0.0,0.0,0.0,1.0,1.35511813965,-14.1018477783,-5.92325490723,1.0,0.0,0.0,0.0,1.0,0.0,0.0,0.0,1.0
1464109367105600699,446,1464109367102317531,,16.2990608215,4.59783935547,-60.063293457,0.00147000001743,1.0,0.0,0.0,0.0,1.0,0.0,0.0,0.0,1.0,58.3536605835,16.7073173523,-31.8292694092,1.0,0.0,0.0,0.0,1.0,0.0,0.0,0.0,1.0,-6.80910952148,31.5986735107,-9.13627353516,1.0,0.0,0.0,0.0,1.0,0.0,0.0,0.0,1.0
1464109367125560903,447,1464109367123212160,,17.173910141,3.05284833908,-60.7240447998,0.00124999997206,1.0,0.0,0.0,0.0,1.0,0.0,0.0,0.0,1.0,111.768295288,32.0731697083,-11.6463422775,1.0,0.0,0.0,0.0,1.0,0.0,0.0,0.0,1.0,8.84896933594,-3.7253777832,-2.26491477051,1.0,0.0,0.0,0.0,1.0,0.0,0.0,0.0,1.0
1464109367147138395,448,1464109367144687152,,17.9884777069,3.71499681473,-61.2600288391,0.00152399996296,1.0,0.0,0.0,0.0,1.0,0.0,0.0,0.0,1.0,66.8902435303,-16.5853652954,-12.0731716156,1.0,0.0,0.0,0.0,1.0,0.0,0.0,0.0,1.0,3.49553442383,24.2867816406,15.8544033936,1.0,0.0,0.0,0.0,1.0,0.0,0.0,0.0,1.0
1464109367168237607,449,1464109367165611520,,18.5782623291,4.17957115173,-61.8620529175,0.00135399994906,1.0,0.0,0.0,0.0,1.0,0.0,0.0,0.0,1.0,66.1585388184,13.2317075729,4.63414621353,1.0,0.0,0.0,0.0,1.0,0.0,0.0,0.0,1.0,-1.26413847656,-24.0808802979,10.0748005859,1.0,0.0,0.0,0.0,1.0,0.0,0.0,0.0,1.0
1464109367189005934,450,1464109367186721045,,19.3646011353,7.26779747009,-62.4204750061,0.00103299994953,1.0,0.0,0.0,0.0,1.0,0.0,0.0,0.0,1.0,-3.23170733452,-33.3536605835,-33.1707305908,1.0,0.0,0.0,0.0,1.0,0.0,0.0,0.0,1.0,6.60799658203,30.2148249512,-6.80432111816,1.0,0.0,0.0,0.0,1.0,0.0,0.0,0.0,1.0
1464109367214578571,451,1464109367208113693,,19.9936542511,3.10441327095,-63.0975952148,0.00096700002905,1.0,0.0,0.0,0.0,1.0,0.0,0.0,0.0,1.0,68.5365905762,-39.7560997009,-29.2682933807,1.0,0.0,0.0,0.0,1.0,0.0,0.0,0.0,1.0,-10.2615483154,-27.475858252,-5.88494768066,1.0,0.0,0.0,0.0,1.0,0.0,0.0,0.0,1.0
1464109367232184719,452,1464109367229058218,,19.7581653595,2.42110919952,-63.8238983154,0.00104100001045,1.0,0.0,0.0,0.0,1.0,0.0,0.0,0.0,1.0,3.53658556938,-25.7317085266,-28.5975608826,1.0,0.0,0.0,0.0,1.0,0.0,0.0,0.0,1.0,3.73495458984,-2.4756045166,8.64306857769,1.0,0.0,0.0,0.0,1.0,0.0,0.0,0.0,1.0
1464109367253336483,453,1464109367249999305,,19.2411518097,4.27141666412,-64.6988983154,0.00116900005378,1.0,0.0,0.0,0.0,1.0,0.0,0.0,0.0,1.0,37.0121955872,-41.4024391174,-43.9024391174,1.0,0.0,0.0,0.0,1.0,0.0,0.0,0.0,1.0,3.6296097168,29.5205064697,15.2797949951,1.0,0.0,0.0,0.0,1.0,0.0,0.0,0.0,1.0
1464109367276753241,454,1464109367271285652,,18.6802749634,3.25165295601,-65.2071990967,0.00101100001484,1.0,0.0,0.0,0.0,1.0,0.0,0.0,0.0,1.0,-29.0853672028,-47.9878044128,-35.2439041138,1.0,0.0,0.0,0.0,1.0,0.0,0.0,0.0,1.0,-6.42603725586,-7.34541069336,7.87692346191,1.0,0.0,0.0,0.0,1.0,0.0,0.0,0.0,1.0
1464109367295033294,455,1464109367292401999,,17.8163013458,2.30465078354,-65.8037567139,0.000964000006206,1.0,0.0,0.0,0.0,1.0,0.0,0.0,0.0,1.0,-4.39024400711,-47.2560958862,6.52439069748,1.0,0.0,0.0,0.0,1.0,0.0,0.0,0.0,1.0,0.239420166016,-20.4081749512,28.7447851318,1.0,0.0,0.0,0.0,1.0,0.0,0.0,0.0,1.0
1464109367316064328,456,1464109367313165482,,17.3591709137,1.55064630508,-66.1960678101,0.00102700002026,1.0,0.0,0.0,0.0,1.0,0.0,0.0,0.0,1.0,-95.0,-31.5853652954,-8.47560977936,1.0,0.0,0.0,0.0,1.0,0.0,0.0,0.0,1.0,-3.03584770508,2.84909997559,32.0966674561,1.0,0.0,0.0,0.0,1.0,0.0,0.0,0.0,1.0
1464109367339607856,457,1464109367333884591,,16.5429782867,1.39903867245,-66.7318878174,0.000965000013821,1.0,0.0,0.0,0.0,1.0,0.0,0.0,0.0,1.0,-104.939025879,-24.2073173523,-16.4634151459,1.0,0.0,0.0,0.0,1.0,0.0,0.0,0.0,1.0,-0.359130249023,-16.2231104492,1.70467158203,1.0,0.0,0.0,0.0,1.0,0.0,0.0,0.0,1.0
1464109367360749412,458,1464109367355323802,,15.7298641205,6.3645658493,-67.2412719727,0.00138100003824,1.0,0.0,0.0,0.0,1.0,0.0,0.0,0.0,1.0,121.524398804,-75.5487823486,-42.682926178,1.0,0.0,0.0,0.0,1.0,0.0,0.0,0.0,1.0,-5.68862314453,1.42215578613,-0.124498486328,1.0,0.0,0.0,0.0,1.0,0.0,0.0,0.0,1.0
1464109367382486434,459,1464109367378109363,,15.3129758835,0.903913199902,-67.4563217163,0.00104600004852,1.0,0.0,0.0,0.0,1.0,0.0,0.0,0.0,1.0,-150.060974121,-24.3292694092,-47.9878044128,1.0,0.0,0.0,0.0,1.0,0.0,0.0,0.0,1.0,-5.37258852539,-60.2524789795,-17.7362458984,1.0,0.0,0.0,0.0,1.0,0.0,0.0,0.0,1.0
1464109367405168142,460,1464109367400837425,,13.6427822113,4.15665626526,-67.922492981,0.00209599989466,1.0,0.0,0.0,0.0,1.0,0.0,0.0,0.0,1.0,-78.7804946899,-112.804885864,-53.9024391174,1.0,0.0,0.0,0.0,1.0,0.0,0.0,0.0,1.0,-7.11556733398,44.4411712158,0.861912597656,1.0,0.0,0.0,0.0,1.0,0.0,0.0,0.0,1.0
1464109367424905013,461,1464109367422309083,,11.94135952,2.00013232231,-68.0198745728,0.00354199996218,1.0,0.0,0.0,0.0,1.0,0.0,0.0,0.0,1.0,138.231704712,-112.987808228,17.134147644,1.0,0.0,0.0,0.0,1.0,0.0,0.0,0.0,1.0,22.05059729,-7.77636699219,29.3098167236,1.0,0.0,0.0,0.0,1.0,0.0,0.0,0.0,1.0
1464109367446254745,462,1464109367443343035,,11.0231876373,3.17931342125,-69.0669784546,0.00129299995024,1.0,0.0,0.0,0.0,1.0,0.0,0.0,0.0,1.0,-134.878051758,-20.9146347046,48.7804870605,1.0,0.0,0.0,0.0,1.0,0.0,0.0,0.0,1.0,-5.84185205078,17.7697635526,34.9409790283,1.0,0.0,0.0,0.0,1.0,0.0,0.0,0.0,1.0
1464109367466490262,463,1464109367463950790,,10.3563175201,2.5634162426,-69.1485824585,0.00239400006831,1.0,0.0,0.0,0.0,1.0,0.0,0.0,0.0,1.0,-151.280487061,-45.4268302917,9.5731716156,1.0,0.0,0.0,0.0,1.0,0.0,0.0,0.0,1.0,4.89374819336,0.876277807617,9.25119521484,1.0,0.0,0.0,0.0,1.0,0.0,0.0,0.0,1.0
1464109367488441190,464,1464109367485307553,,9.37052249908,3.81495523453,-69.3860397339,0.00150200002827,1.0,0.0,0.0,0.0,1.0,0.0,0.0,0.0,1.0,-54.8780517578,-77.7439041138,-20.975610733,1.0,0.0,0.0,0.0,1.0,0.0,0.0,0.0,1.0,1.30244570312,31.8668240967,-2.84909997559,1.0,0.0,0.0,0.0,1.0,0.0,0.0,0.0,1.0
1464109367509160142,465,1464109367506644108,,8.37565326691,3.0785548687,-68.9533996582,0.00102800002787,1.0,0.0,0.0,0.0,1.0,0.0,0.0,0.0,1.0,247.195129395,-68.4756164551,6.40243911743,1.0,0.0,0.0,0.0,1.0,0.0,0.0,0.0,1.0,8.90643017578,0.387860668945,25.2684043213,1.0,0.0,0.0,0.0,1.0,0.0,0.0,0.0,1.0
1464109367530143104,466,1464109367527252227,,8.41060352325,3.63631749153,-69.154838562,0.001111999969,1.0,0.0,0.0,0.0,1.0,0.0,0.0,0.0,1.0,-29.2073173523,-54.8780517578,11.7073173523,1.0,0.0,0.0,0.0,1.0,0.0,0.0,0.0,1.0,0.689530078125,-10.5488525146,14.6716677734,1.0,0.0,0.0,0.0,1.0,0.0,0.0,0.0,1.0
1464109367551664138,467,1464109367548559928,,8.23433113098,2.51096010208,-68.8734283447,0.00102099997457,1.0,0.0,0.0,0.0,1.0,0.0,0.0,0.0,1.0,68.5975570679,-0.731707334518,16.341463089,1.0,0.0,0.0,0.0,1.0,0.0,0.0,0.0,1.0,-2.99754047852,-8.93037219238,-4.70700017161,1.0,0.0,0.0,0.0,1.0,0.0,0.0,0.0,1.0
1464109367571575593,468,1464109367568992891,,7.74993562698,3.0607612133,-69.0675964355,0.00119800004177,1.0,0.0,0.0,0.0,1.0,0.0,0.0,0.0,1.0,-265.365844727,-7.01219511032,12.6829271317,1.0,0.0,0.0,0.0,1.0,0.0,0.0,0.0,1.0,-2.31758720703,-3.39976635742,-4.60165559082,1.0,0.0,0.0,0.0,1.0,0.0,0.0,0.0,1.0
1464109367591985015,469,1464109367589510751,,7.48530340195,3.11576986313,-68.6004562378,0.0012080000015,1.0,0.0,0.0,0.0,1.0,0.0,0.0,0.0,1.0,111.89024353,83.9634170532,57.3780479431,1.0,0.0,0.0,0.0,1.0,0.0,0.0,0.0,1.0,-1.42215578613,0.167594116211,36.1668079402,1.0,0.0,0.0,0.0,1.0,0.0,0.0,0.0,1.0
1464109367612593655,470,1464109367610081943,,7.52511787415,5.05964374542,-68.8363571167,0.00157500000205,1.0,0.0,0.0,0.0,1.0,0.0,0.0,0.0,1.0,-193.414627075,32.9878044128,16.0365848541,1.0,0.0,0.0,0.0,1.0,0.0,0.0,0.0,1.0,0.732625708008,20.5805574707,-20.1352359619,1.0,0.0,0.0,0.0,1.0,0.0,0.0,0.0,1.0
1464109367634383802,471,1464109367631500164,,7.47370481491,2.8556137085,-68.3357925415,0.00117399997544,1.0,0.0,0.0,0.0,1.0,0.0,0.0,0.0,1.0,185.792678833,-52.0121955872,19.5731716156,1.0,0.0,0.0,0.0,1.0,0.0,0.0,0.0,1.0,4.47715710449,-14.7482822266,13.5032973633,1.0,0.0,0.0,0.0,1.0,0.0,0.0,0.0,1.0
1464109367661239092,472,1464109367652594168,,7.87253284454,2.80931758881,-68.4704055786,0.00106499996036,1.0,0.0,0.0,0.0,1.0,0.0,0.0,0.0,1.0,149.024383545,-34.6951217651,-34.9390258789,1.0,0.0,0.0,0.0,1.0,0.0,0.0,0.0,1.0,-10.7595422607,6.92403120117,10.0891657959,1.0,0.0,0.0,0.0,1.0,0.0,0.0,0.0,1.0
1464109367680061018,473,1464109367673919733,,8.24646282196,1.29456818104,-67.8209152222,0.000975999981165,1.0,0.0,0.0,0.0,1.0,0.0,0.0,0.0,1.0,51.0365867615,-0.731707334518,-26.3414649963,1.0,0.0,0.0,0.0,1.0,0.0,0.0,0.0,1.0,-3.36624753418,-17.2526171631,-9.24640681152,1.0,0.0,0.0,0.0,1.0,0.0,0.0,0.0,1.0
1464109367697437584,474,1464109367694771706,,8.4489030838,2.59028053284,-67.7868499756,0.001007999992,1.0,0.0,0.0,0.0,1.0,0.0,0.0,0.0,1.0,-32.2560958862,6.34146356583,20.3658542633,1.0,0.0,0.0,0.0,1.0,0.0,0.0,0.0,1.0,0.339976635742,5.71256516113,17.0131969971,1.0,0.0,0.0,0.0,1.0,0.0,0.0,0.0,1.0
1464109367718922993,475,1464109367716310396,,8.8349571228,0.677341639996,-67.5621948242,0.000983000034466,1.0,0.0,0.0,0.0,1.0,0.0,0.0,0.0,1.0,-1.46341466904,35.1829299927,46.4634170532,1.0,0.0,0.0,0.0,1.0,0.0,0.0,0.0,1.0,3.00232888184,-18.4880252197,35.6736023982,1.0,0.0,0.0,0.0,1.0,0.0,0.0,0.0,1.0
1464109367742493708,476,1464109367737099609,,9.12540435791,1.46500968933,-67.4560852051,0.00105600000825,1.0,0.0,0.0,0.0,1.0,0.0,0.0,0.0,1.0,-181.524398804,59.9390258789,35.5487823486,1.0,0.0,0.0,0.0,1.0,0.0,0.0,0.0,1.0,2.35110588414,-5.89931289062,7.23048901367,1.0,0.0,0.0,0.0,1.0,0.0,0.0,0.0,1.0
1464109367760468241,477,1464109367757584551,,9.40627098083,3.17313313484,-67.1975326538,0.00113600003533,1.0,0.0,0.0,0.0,1.0,0.0,0.0,0.0,1.0,374.268280029,66.7682952881,-51.6463432312,1.0,0.0,0.0,0.0,1.0,0.0,0.0,0.0,1.0,8.34139799946,-1.35032973633,-17.774553125,1.0,0.0,0.0,0.0,1.0,0.0,0.0,0.0,1.0
1464109367782344899,478,1464109367779120376,,10.1438817978,0.563072800636,-67.241569519,0.00153200002387,1.0,0.0,0.0,0.0,1.0,0.0,0.0,0.0,1.0,-381.463439941,47.8048782349,26.3414649963,1.0,0.0,0.0,0.0,1.0,0.0,0.0,0.0,1.0,3.15555778809,0.651222851562,30.3728422607,1.0,0.0,0.0,0.0,1.0,0.0,0.0,0.0,1.0
1464109367807263579,479,1464109367800333025,,10.4444437027,1.74372291565,-67.2716369629,0.00146699999459,1.0,0.0,0.0,0.0,1.0,0.0,0.0,0.0,1.0,337.561004639,44.4512176514,-1.2804877758,1.0,0.0,0.0,0.0,1.0,0.0,0.0,0.0,1.0,10.2902787354,27.6099335449,74.9480887695,1.0,0.0,0.0,0.0,1.0,0.0,0.0,0.0,1.0
1464109367827868573,480,1464109367821160415,,11.2213430405,1.49093532562,-67.0437698364,0.00177400000393,1.0,0.0,0.0,0.0,1.0,0.0,0.0,0.0,1.0,-121.524398804,58.0487823486,68.841468811,1.0,0.0,0.0,0.0,1.0,0.0,0.0,0.0,1.0,-4.00310517578,-47.8553027832,26.0824328857,1.0,0.0,0.0,0.0,1.0,0.0,0.0,0.0,1.0
1464109367848163152,481,1464109367841495566,,11.099606514,4.69100952148,-67.6059570312,0.00126799999271,1.0,0.0,0.0,0.0,1.0,0.0,0.0,0.0,1.0,24.3902435303,-15.0000009537,-25.3048782349,1.0,0.0,0.0,0.0,1.0,0.0,0.0,0.0,1.0,1.17794714373,32.4462208984,-2.87783039551,1.0,0.0,0.0,0.0,1.0,0.0,0.0,0.0,1.0
1464109367870761474,482,1464109367866754662,,11.6973609924,3.72438144684,-66.9984588623,0.00440800003707,1.0,0.0,0.0,0.0,1.0,0.0,0.0,0.0,1.0,194.268295288,33.7195129395,16.6463413239,1.0,0.0,0.0,0.0,1.0,0.0,0.0,0.0,1.0,22.692243335,34.2227161922,23.4871182861,1.0,0.0,0.0,0.0,1.0,0.0,0.0,0.0,1.0
1464109367890103816,483,1464109367886302056,,12.3870992661,2.22019767761,-67.1113891602,0.000989999971353,1.0,0.0,0.0,0.0,1.0,0.0,0.0,0.0,1.0,-59.207321167,72.9878082275,-7.37804937363,1.0,0.0,0.0,0.0,1.0,0.0,0.0,0.0,1.0,-6.92881960449,-7.33583388672,5.79396801758,1.0,0.0,0.0,0.0,1.0,0.0,0.0,0.0,1.0
1464109367911289173,484,1464109367907207310,,12.3226585388,3.78420257568,-67.2201919556,0.00131299998611,1.0,0.0,0.0,0.0,1.0,0.0,0.0,0.0,1.0,-26.4024391174,-10.4878053665,-45.6707344055,1.0,0.0,0.0,0.0,1.0,0.0,0.0,0.0,1.0,-1.98239897461,26.1351053223,0.809240161133,1.0,0.0,0.0,0.0,1.0,0.0,0.0,0.0,1.0
1464109367932466666,485,1464109367929299331,,12.6225757599,0.2171112746,-66.897315979,0.0022309999913,1.0,0.0,0.0,0.0,1.0,0.0,0.0,0.0,1.0,50.8536605835,-54.2682914734,14.5731706619,1.0,0.0,0.0,0.0,1.0,0.0,0.0,0.0,1.0,-4.10366164551,-27.2124960693,29.9658279785,1.0,0.0,0.0,0.0,1.0,0.0,0.0,0.0,1.0
1464109367952351871,486,1464109367950370262,,12.2178068161,1.17894697189,-67.1061859131,0.00135000003502,1.0,0.0,0.0,0.0,1.0,0.0,0.0,0.0,1.0,-146.829269409,4.51219558716,16.5853652954,1.0,0.0,0.0,0.0,1.0,0.0,0.0,0.0,1.0,-1.42215578613,-10.7643306641,3.88818349609,1.0,0.0,0.0,0.0,1.0,0.0,0.0,0.0,1.0
1464109367973827852,487,1464109367971169214,,12.1750774384,3.92771792412,-67.2499465942,0.00117800000589,1.0,0.0,0.0,0.0,1.0,0.0,0.0,0.0,1.0,-23.0487823486,-52.1951255798,13.2926826477,1.0,0.0,0.0,0.0,1.0,0.0,0.0,0.0,1.0,-3.42849677734,21.437681665,-7.00543405762,1.0,0.0,0.0,0.0,1.0,0.0,0.0,0.0,1.0
1464109367998357315,488,1464109367992618894,,12.0204839706,2.11500167847,-67.1960830688,0.00100899999961,1.0,0.0,0.0,0.0,1.0,0.0,0.0,0.0,1.0,109.878051758,2.5,35.8536605835,1.0,0.0,0.0,0.0,1.0,0.0,0.0,0.0,1.0,-4.82671083914,-4.3622354248,8.62870336773,1.0,0.0,0.0,0.0,1.0,0.0,0.0,0.0,1.0
1464109368023828806,489,1464109368014001334,,12.0863409042,2.94184756279,-67.5921859741,0.00113200000487,1.0,0.0,0.0,0.0,1.0,0.0,0.0,0.0,1.0,-278.231719971,-10.8536586761,15.975610733,1.0,0.0,0.0,0.0,1.0,0.0,0.0,0.0,1.0,-15.7634237305,7.53694682617,-4.09887324219,1.0,0.0,0.0,0.0,1.0,0.0,0.0,0.0,1.0
1464109368039779022,490,1464109368034739505,,11.5519895554,2.45459127426,-67.6109924316,0.00133999995887,1.0,0.0,0.0,0.0,1.0,0.0,0.0,0.0,1.0,138.231704712,26.9512195587,-20.5487823486,1.0,0.0,0.0,0.0,1.0,0.0,0.0,0.0,1.0,9.42836555317,9.75397756348,4.91769020996,1.0,0.0,0.0,0.0,1.0,0.0,0.0,0.0,1.0
1464109368062979113,491,1464109368056084341,,11.3076038361,1.58978259563,-67.783996582,0.0012009999482,1.0,0.0,0.0,0.0,1.0,0.0,0.0,0.0,1.0,-50.4268302917,-14.0243902206,20.3048782349,1.0,0.0,0.0,0.0,1.0,0.0,0.0,0.0,1.0,-3.22738383789,-11.5975128418,-1.838746875,1.0,0.0,0.0,0.0,1.0,0.0,0.0,0.0,1.0
1464109368081816821,492,1464109368076613658,,11.2300577164,2.74695634842,-67.6013870239,0.00109899998643,1.0,0.0,0.0,0.0,1.0,0.0,0.0,0.0,1.0,8.65853691101,19.9390239716,-37.5,1.0,0.0,0.0,0.0,1.0,0.0,0.0,0.0,1.0,2.37983659633,-2.17393510742,-33.9928751709,1.0,0.0,0.0,0.0,1.0,0.0,0.0,0.0,1.0
1464109368107653676,493,1464109368105640140,,11.0664234161,2.43176436424,-67.5632324219,0.00848999992013,1.0,0.0,0.0,0.0,1.0,0.0,0.0,0.0,1.0,59.390247345,-45.7926826477,4.14634132385,1.0,0.0,0.0,0.0,1.0,0.0,0.0,0.0,1.0,-0.100556469727,-13.6804682861,23.2955821533,1.0,0.0,0.0,0.0,1.0,0.0,0.0,0.0,1.0
1464109368128116119,494,1464109368125965656,,10.9044809341,2.02395820618,-67.6764831543,0.00112200004514,1.0,0.0,0.0,0.0,1.0,0.0,0.0,0.0,1.0,-182.134155273,-13.5975618362,63.9634170532,1.0,0.0,0.0,0.0,1.0,0.0,0.0,0.0,1.0,-5.43004936523,-26.834212207,35.1708223877,1.0,0.0,0.0,0.0,1.0,0.0,0.0,0.0,1.0
1464109368148847623,495,1464109368146685702,,10.849366188,3.88780522346,-67.8667449951,0.00109999999404,1.0,0.0,0.0,0.0,1.0,0.0,0.0,0.0,1.0,85.1219558716,19.4512195587,-12.5,1.0,0.0,0.0,0.0,1.0,0.0,0.0,0.0,1.0,-4.01747038574,12.5695587158,-26.7432325439,1.0,0.0,0.0,0.0,1.0,0.0,0.0,0.0,1.0
1464109368169721888,496,1464109368167741633,,10.6804847717,2.64383983612,-67.5929870605,0.000974000024144,1.0,0.0,0.0,0.0,1.0,0.0,0.0,0.0,1.0,54.1463432312,-47.2560958862,49.9390258789,1.0,0.0,0.0,0.0,1.0,0.0,0.0,0.0,1.0,-7.46033237305,-15.4713311279,14.1545202148,1.0,0.0,0.0,0.0,1.0,0.0,0.0,0.0,1.0
1464109368191086359,497,1464109368189080115,,10.2752180099,2.566447258,-67.8458175659,0.00111399998423,1.0,0.0,0.0,0.0,1.0,0.0,0.0,0.0,1.0,-68.7804870605,-25.7317085266,3.7804877758,1.0,0.0,0.0,0.0,1.0,0.0,0.0,0.0,1.0,-2.98796367187,10.7882726807,28.2755216064,1.0,0.0,0.0,0.0,1.0,0.0,0.0,0.0,1.0
1464109368212938173,498,1464109368210432659,,10.3262472153,1.97267913818,-67.5691146851,0.00192099995911,1.0,0.0,0.0,0.0,1.0,0.0,0.0,0.0,1.0,-0.12195122242,28.3536586761,2.07317066193,1.0,0.0,0.0,0.0,1.0,0.0,0.0,0.0,1.0,-1.37906015625,-16.7211032255,15.7730005371,1.0,0.0,0.0,0.0,1.0,0.0,0.0,0.0,1.0
1464109368233691292,499,1464109368231426506,,10.1281490326,2.1559677124,-67.3521575928,0.00100399996154,1.0,0.0,0.0,0.0,1.0,0.0,0.0,0.0,1.0,-85.0,7.74390268326,16.7682933807,1.0,0.0,0.0,0.0,1.0,0.0,0.0,0.0,1.0,5.67904633789,-17.0993882568,36.7414163387,1.0,0.0,0.0,0.0,1.0,0.0,0.0,0.0,1.0
1464109368254962378,500,1464109368252730926,,10.4137392044,1.26655554771,-67.3271865845,0.00129599997308,1.0,0.0,0.0,0.0,1.0,0.0,0.0,0.0,1.0,-116.402435303,-13.9024391174,13.1707324982,1.0,0.0,0.0,0.0,1.0,0.0,0.0,0.0,1.0,2.7820623291,-14.5040736572,27.6434523682,1.0,0.0,0.0,0.0,1.0,0.0,0.0,0.0,1.0
1464109368278379031,501,1464109368273211285,,10.511220932,2.37172746658,-67.1815490723,0.00105900003109,1.0,0.0,0.0,0.0,1.0,0.0,0.0,0.0,1.0,-90.9756164551,-6.0365858078,37.4390220642,1.0,0.0,0.0,0.0,1.0,0.0,0.0,0.0,1.0,4.9512090332,10.4626612549,51.6572950195,1.0,0.0,0.0,0.0,1.0,0.0,0.0,0.0,1.0
1464109368297232520,502,1464109368294196539,,10.502038002,2.63500666618,-67.0769882202,0.00107700005174,1.0,0.0,0.0,0.0,1.0,0.0,0.0,0.0,1.0,-53.0487823486,4.93902444839,21.7073173523,1.0,0.0,0.0,0.0,1.0,0.0,0.0,0.0,1.0,7.44117875977,-7.53694682617,45.3605446533,1.0,0.0,0.0,0.0,1.0,0.0,0.0,0.0,1.0
1464109368320598497,503,1464109368314766690,,10.5306987762,2.22855353355,-67.1153793335,0.00107600004412,1.0,0.0,0.0,0.0,1.0,0.0,0.0,0.0,1.0,-169.146347046,-11.8292684555,2.80487799644,1.0,0.0,0.0,0.0,1.0,0.0,0.0,0.0,1.0,-1.49877023926,-5.88973608398,20.9301109131,1.0,0.0,0.0,0.0,1.0,0.0,0.0,0.0,1.0
1464109368341502136,504,1464109368335615642,,10.7743091583,2.6781027317,-66.9324493408,0.00103599997237,1.0,0.0,0.0,0.0,1.0,0.0,0.0,0.0,1.0,-183.902435303,15.7926826477,33.2317085266,1.0,0.0,0.0,0.0,1.0,0.0,0.0,0.0,1.0,-9.89284125977,-15.2127573486,-15.6245600342,1.0,0.0,0.0,0.0,1.0,0.0,0.0,0.0,1.0
1464109368363403533,505,1464109368356115949,,10.2438268661,4.15245676041,-66.9024353027,0.0011569999624,1.0,0.0,0.0,0.0,1.0,0.0,0.0,0.0,1.0,105.731712341,-17.9268302917,7.50000047684,1.0,0.0,0.0,0.0,1.0,0.0,0.0,0.0,1.0,8.49941647808,6.42603725586,-25.6275345703,1.0,0.0,0.0,0.0,1.0,0.0,0.0,0.0,1.0
1464109368382889103,506,1464109368377114068,,9.8458108902,4.09957170486,-66.7289733887,0.00110100000165,1.0,0.0,0.0,0.0,1.0,0.0,0.0,0.0,1.0,-182.987808228,0.18292683363,-2.31707310677,1.0,0.0,0.0,0.0,1.0,0.0,0.0,0.0,1.0,0.229843359375,30.8660478027,10.060435376,1.0,0.0,0.0,0.0,1.0,0.0,0.0,0.0,1.0
1464109368403246599,507,1464109368398856298,,9.91883945465,1.93238520622,-66.734085083,0.00146800000221,1.0,0.0,0.0,0.0,1.0,0.0,0.0,0.0,1.0,42.9878044128,38.7195129395,15.548781395,1.0,0.0,0.0,0.0,1.0,0.0,0.0,0.0,1.0,-2.33674067418,-3.48595761719,11.8321446045,1.0,0.0,0.0,0.0,1.0,0.0,0.0,0.0,1.0
1464109368423050137,508,1464109368419234314,,9.81696987152,2.94571447372,-66.397605896,0.00128700002097,1.0,0.0,0.0,0.0,1.0,0.0,0.0,0.0,1.0,7.62195110321,25.0609760284,45.4878082275,1.0,0.0,0.0,0.0,1.0,0.0,0.0,0.0,1.0,5.69341154785,-10.9654436035,22.4576115723,1.0,0.0,0.0,0.0,1.0,0.0,0.0,0.0,1.0
1464109368444504764,509,1464109368440645140,,9.78873920441,3.06566619873,-66.6878433228,0.00117299996782,1.0,0.0,0.0,0.0,1.0,0.0,0.0,0.0,1.0,-217.743911743,23.5365848541,15.548781395,1.0,0.0,0.0,0.0,1.0,0.0,0.0,0.0,1.0,3.1124621582,-7.83861623535,6.57447775879,1.0,0.0,0.0,0.0,1.0,0.0,0.0,0.0,1.0
1464109368465459966,510,1464109368462580703,,9.97369003296,3.78526973724,-66.4036941528,0.00118499994278,1.0,0.0,0.0,0.0,1.0,0.0,0.0,0.0,1.0,-87.6219558716,26.8902454376,61.707321167,1.0,0.0,0.0,0.0,1.0,0.0,0.0,0.0,1.0,1.76213242187,6.37815322266,-20.1017171387,1.0,0.0,0.0,0.0,1.0,0.0,0.0,0.0,1.0
1464109368485831888,511,1464109368483343197,,9.94223499298,4.6007604599,-66.2077789307,0.00206300010905,1.0,0.0,0.0,0.0,1.0,0.0,0.0,0.0,1.0,77.3780517578,-1.2195122242,-4.93902444839,1.0,0.0,0.0,0.0,1.0,0.0,0.0,0.0,1.0,-6.14830986328,-13.8049667725,-33.3703850773,1.0,0.0,0.0,0.0,1.0,0.0,0.0,0.0,1.0
1464109368506934381,512,1464109368504476784,,9.89968204498,3.45991706848,-66.1850585938,0.00212400010787,1.0,0.0,0.0,0.0,1.0,0.0,0.0,0.0,1.0,-134.878051758,23.2317085266,3.65853667259,1.0,0.0,0.0,0.0,1.0,0.0,0.0,0.0,1.0,-3.79720383301,-23.1950256836,-17.7697635526,1.0,0.0,0.0,0.0,1.0,0.0,0.0,0.0,1.0
1464109368527988854,513,1464109368525313757,,10.1719274521,4.70397901535,-66.0704574585,0.00111499999184,1.0,0.0,0.0,0.0,1.0,0.0,0.0,0.0,1.0,-63.6585388184,11.5243911743,15.9146347046,1.0,0.0,0.0,0.0,1.0,0.0,0.0,0.0,1.0,-8.17859287109,2.67192905273,1.73819040527,1.0,0.0,0.0,0.0,1.0,0.0,0.0,0.0,1.0
1464109368549234315,514,1464109368546100261,,10.4282531738,4.52257490158,-66.0022354126,0.00110600003973,1.0,0.0,0.0,0.0,1.0,0.0,0.0,0.0,1.0,-66.7682952881,-14.3902444839,10.0,1.0,0.0,0.0,0.0,1.0,0.0,0.0,0.0,1.0,2.53785375977,1.96803376465,11.765106958,1.0,0.0,0.0,0.0,1.0,0.0,0.0,0.0,1.0
1464109368569662956,515,1464109368566947547,,10.563741684,4.62279844284,-65.9833831787,0.00110700004734,1.0,0.0,0.0,0.0,1.0,0.0,0.0,0.0,1.0,-199.207321167,26.7073173523,6.15853643417,1.0,0.0,0.0,0.0,1.0,0.0,0.0,0.0,1.0,-1.91536132812,14.3125375244,-7.55610043945,1.0,0.0,0.0,0.0,1.0,0.0,0.0,0.0,1.0
1464109368590732532,516,1464109368588276237,,10.8478384018,5.03114318848,-65.7111282349,0.00105800002348,1.0,0.0,0.0,0.0,1.0,0.0,0.0,0.0,1.0,177.317077637,118.170730591,7.50000047684,1.0,0.0,0.0,0.0,1.0,0.0,0.0,0.0,1.0,-12.1673328369,28.3952316895,-4.10366164551,1.0,0.0,0.0,0.0,1.0,0.0,0.0,0.0,1.0
1464109368611710599,517,1464109368609305866,,10.8756055832,4.03268051147,-65.6612701416,0.00124100001995,1.0,0.0,0.0,0.0,1.0,0.0,0.0,0.0,1.0,43.7195129395,-4.57317066193,12.8658542633,1.0,0.0,0.0,0.0,1.0,0.0,0.0,0.0,1.0,-0.076614453125,3.15555778809,14.6668793701,1.0,0.0,0.0,0.0,1.0,0.0,0.0,0.0,1.0
1464109368633331684,518,1464109368630414765,,10.8986568451,3.26140999794,-65.5391311646,0.00107999995816,1.0,0.0,0.0,0.0,1.0,0.0,0.0,0.0,1.0,-133.170730591,9.08536529541,-2.80487799644,1.0,0.0,0.0,0.0,1.0,0.0,0.0,0.0,1.0,3.53863005371,-14.1832506348,27.6578175781,1.0,0.0,0.0,0.0,1.0,0.0,0.0,0.0,1.0
1464109368654242407,519,1464109368651799184,,11.3352432251,5.59742212296,-65.4029159546,0.00116300000809,1.0,0.0,0.0,0.0,1.0,0.0,0.0,0.0,1.0,-78.0487823486,-26.7073173523,25.5487804413,1.0,0.0,0.0,0.0,1.0,0.0,0.0,0.0,1.0,2.92092602539,10.7116582275,-0.402225878906,1.0,0.0,0.0,0.0,1.0,0.0,0.0,0.0,1.0
1464109368674665422,520,1464109368672233606,,11.2308397293,5.2569360733,-65.4447021484,0.00109599996358,1.0,0.0,0.0,0.0,1.0,0.0,0.0,0.0,1.0,99.0243911743,-22.3780498505,13.9024391174,1.0,0.0,0.0,0.0,1.0,0.0,0.0,0.0,1.0,8.10676682129,-0.105344873047,4.45321508789,1.0,0.0,0.0,0.0,1.0,0.0,0.0,0.0,1.0
1464109368697070412,521,1464109368693171777,,11.0900812149,5.42788076401,-65.3036651611,0.00105700001586,1.0,0.0,0.0,0.0,1.0,0.0,0.0,0.0,1.0,-98.7804946899,24.8780498505,41.5243911743,1.0,0.0,0.0,0.0,1.0,0.0,0.0,0.0,1.0,-1.89620771484,1.43173259277,-0.0143652099609,1.0,0.0,0.0,0.0,1.0,0.0,0.0,0.0,1.0
1464109368722553934,522,1464109368714332603,,10.9631538391,5.88669300079,-65.3225326538,0.00101300003007,1.0,0.0,0.0,0.0,1.0,0.0,0.0,0.0,1.0,48.3536567688,-19.3292694092,-5.85365867615,1.0,0.0,0.0,0.0,1.0,0.0,0.0,0.0,1.0,2.68150585937,11.4873795654,-10.524910498,1.0,0.0,0.0,0.0,1.0,0.0,0.0,0.0,1.0
1464109368744349082,523,1464109368735402075,,10.9207181931,5.52461194992,-65.010887146,0.00107400002889,1.0,0.0,0.0,0.0,1.0,0.0,0.0,0.0,1.0,-14.9390249252,-0.975609779358,10.9756097794,1.0,0.0,0.0,0.0,1.0,0.0,0.0,0.0,1.0,3.9360675293,7.27837304687,12.4690022461,1.0,0.0,0.0,0.0,1.0,0.0,0.0,0.0,1.0
1464109368760891535,524,1464109368756739255,,10.852388382,5.8933224678,-65.1651000977,0.00105500000063,1.0,0.0,0.0,0.0,1.0,0.0,0.0,0.0,1.0,-57.134147644,-9.02439117432,20.0609760284,1.0,0.0,0.0,0.0,1.0,0.0,0.0,0.0,1.0,-1.23540805664,0.31124621582,10.9798088135,1.0,0.0,0.0,0.0,1.0,0.0,0.0,0.0,1.0
1464109368783801627,525,1464109368777743207,,10.9747943878,4.30858659744,-64.8520889282,0.001200000057,1.0,0.0,0.0,0.0,1.0,0.0,0.0,0.0,1.0,-35.9756088257,47.5609779358,43.4756126404,1.0,0.0,0.0,0.0,1.0,0.0,0.0,0.0,1.0,2.85388837891,-13.6421610596,32.2642639104,1.0,0.0,0.0,0.0,1.0,0.0,0.0,0.0,1.0
1464109368803381260,526,1464109368799464500,,10.8109483719,5.58607530594,-64.6220474243,0.00151099998038,1.0,0.0,0.0,0.0,1.0,0.0,0.0,0.0,1.0,-129.695129395,14.1463422775,21.7073173523,1.0,0.0,0.0,0.0,1.0,0.0,0.0,0.0,1.0,-1.35990654297,7.18739338379,52.9741059326,1.0,0.0,0.0,0.0,1.0,0.0,0.0,0.0,1.0
1464109368825594531,527,1464109368822081416,,11.2047653198,3.86696958542,-64.6007919312,0.0021649999544,1.0,0.0,0.0,0.0,1.0,0.0,0.0,0.0,1.0,-16.7682933807,14.5121955872,2.86585378647,1.0,0.0,0.0,0.0,1.0,0.0,0.0,0.0,1.0,1.47482822266,-29.43431521,-21.4233164551,1.0,0.0,0.0,0.0,1.0,0.0,0.0,0.0,1.0
1464109368845878693,528,1464109368843342867,,11.068646431,6.48445606232,-64.2495574951,0.00203699991107,1.0,0.0,0.0,0.0,1.0,0.0,0.0,0.0,1.0,-73.8414611816,13.2926826477,55.5487785339,1.0,0.0,0.0,0.0,1.0,0.0,0.0,0.0,1.0,-2.73896669922,-3.12682736816,39.7868431885,1.0,0.0,0.0,0.0,1.0,0.0,0.0,0.0,1.0
1464109368867049728,529,1464109368864676349,,11.1425600052,7.31846427917,-64.3778915405,0.00218500010669,1.0,0.0,0.0,0.0,1.0,0.0,0.0,0.0,1.0,248.292694092,-11.5243911743,-22.3170719147,1.0,0.0,0.0,0.0,1.0,0.0,0.0,0.0,1.0,4.16112219309,-9.98860932617,-1.69509477539,1.0,0.0,0.0,0.0,1.0,0.0,0.0,0.0,1.0
1464109368888213471,530,1464109368885436603,,11.2378892899,6.58052253723,-64.2426300049,0.0012969999807,1.0,0.0,0.0,0.0,1.0,0.0,0.0,0.0,1.0,-301.280487061,21.4634151459,54.6951217651,1.0,0.0,0.0,0.0,1.0,0.0,0.0,0.0,1.0,1.69509477539,7.59440766602,2.94486804199,1.0,0.0,0.0,0.0,1.0,0.0,0.0,0.0,1.0
1464109368909446692,531,1464109368906636492,,11.2866220474,4.94385433197,-63.9177322388,0.00182000000495,1.0,0.0,0.0,0.0,1.0,0.0,0.0,0.0,1.0,-76.4024353027,-6.28048801422,64.1463394165,1.0,0.0,0.0,0.0,1.0,0.0,0.0,0.0,1.0,7.01022246094,-13.4123177002,47.1418306885,1.0,0.0,0.0,0.0,1.0,0.0,0.0,0.0,1.0
1464109368930101218,532,1464109368927289351,,11.1518716812,7.63915681839,-64.0384063721,0.00108099996578,1.0,0.0,0.0,0.0,1.0,0.0,0.0,0.0,1.0,-116.158546448,-28.6585388184,-4.75609779358,1.0,0.0,0.0,0.0,1.0,0.0,0.0,0.0,1.0,5.74608398437,6.22971271973,-16.3954929687,1.0,0.0,0.0,0.0,1.0,0.0,0.0,0.0,1.0
1464109368951959074,533,1464109368948686322,,11.0074033737,6.34415245056,-63.8966445923,0.00115899997763,1.0,0.0,0.0,0.0,1.0,0.0,0.0,0.0,1.0,251.34147644,-23.2926845551,12.8658542633,1.0,0.0,0.0,0.0,1.0,0.0,0.0,0.0,1.0,14.097059375,31.0001230957,52.4761119873,1.0,0.0,0.0,0.0,1.0,0.0,0.0,0.0,1.0
1464109368972274121,534,1464109368969817930,,11.175204277,6.09985685349,-63.4143867493,0.00101999996696,1.0,0.0,0.0,0.0,1.0,0.0,0.0,0.0,1.0,-18.7195110321,1.70731711388,24.4512195587,1.0,0.0,0.0,0.0,1.0,0.0,0.0,0.0,1.0,-6.16267507324,-23.5110603027,8.04451757812,1.0,0.0,0.0,0.0,1.0,0.0,0.0,0.0,1.0
1464109368993344739,535,1464109368990957350,,11.0978841782,7.4543132782,-63.6036949158,0.00107700005174,1.0,0.0,0.0,0.0,1.0,0.0,0.0,0.0,1.0,-92.3170776367,-20.3658542633,-4.32926845551,1.0,0.0,0.0,0.0,1.0,0.0,0.0,0.0,1.0,1.55144267578,25.5844389404,-11.0660000732,1.0,0.0,0.0,0.0,1.0,0.0,0.0,0.0,1.0
1464109369014258430,536,1464109369011867604,,11.3696365356,5.76783323288,-62.9479560852,0.00107799994294,1.0,0.0,0.0,0.0,1.0,0.0,0.0,0.0,1.0,206.768295288,-117.012191772,42.5,1.0,0.0,0.0,0.0,1.0,0.0,0.0,0.0,1.0,2.91134921875,-6.93360800781,20.6140762939,1.0,0.0,0.0,0.0,1.0,0.0,0.0,0.0,1.0
1464109369039899452,537,1464109369032262026,,11.4123239517,7.54654169083,-62.8655395508,0.00106000003871,1.0,0.0,0.0,0.0,1.0,0.0,0.0,0.0,1.0,70.9146347046,50.4268302917,-3.7804877758,1.0,0.0,0.0,0.0,1.0,0.0,0.0,0.0,1.0,-1.67594116211,16.1943800293,10.5344873047,1.0,0.0,0.0,0.0,1.0,0.0,0.0,0.0,1.0
1464109369062257254,538,1464109369053299415,,11.4330177307,7.08128118515,-62.9387207031,0.00101600005291,1.0,0.0,0.0,0.0,1.0,0.0,0.0,0.0,1.0,-49.0243911743,-16.5243911743,4.87804889679,1.0,0.0,0.0,0.0,1.0,0.0,0.0,0.0,1.0,3.84987626953,1.02950671387,-12.3445037598,1.0,0.0,0.0,0.0,1.0,0.0,0.0,0.0,1.0
1464109369080375589,539,1464109369074666907,,11.7186164856,5.35222148895,-62.6001625061,0.000997000024654,1.0,0.0,0.0,0.0,1.0,0.0,0.0,0.0,1.0,61.7682952881,19.3292694092,61.7682952881,1.0,0.0,0.0,0.0,1.0,0.0,0.0,0.0,1.0,-0.181959326172,-16.5582986816,17.6021706055,1.0,0.0,0.0,0.0,1.0,0.0,0.0,0.0,1.0
1464109369105159739,540,1464109369095874712,,12.2748565674,6.54289579391,-62.222038269,0.000961999990977,1.0,0.0,0.0,0.0,1.0,0.0,0.0,0.0,1.0,-167.195129395,3.35365867615,46.9512214661,1.0,0.0,0.0,0.0,1.0,0.0,0.0,0.0,1.0,4.71178857493,0.287304199219,94.6571568359,1.0,0.0,0.0,0.0,1.0,0.0,0.0,0.0,1.0
1464109369120713549,541,1464109369116731008,,12.3707523346,6.53747701645,-62.3437728882,0.00100499996915,1.0,0.0,0.0,0.0,1.0,0.0,0.0,0.0,1.0,-136.707321167,19.5731716156,41.3414649963,1.0,0.0,0.0,0.0,1.0,0.0,0.0,0.0,1.0,2.66714064941,-27.581203125,27.0257483398,1.0,0.0,0.0,0.0,1.0,0.0,0.0,0.0,1.0
1464109369145719781,542,1464109369139325737,,12.3256626129,10.3979024887,-62.1390037537,0.00113800005056,1.0,0.0,0.0,0.0,1.0,0.0,0.0,0.0,1.0,-5.91463422775,-2.19512200356,53.5975608826,1.0,0.0,0.0,0.0,1.0,0.0,0.0,0.0,1.0,0.857124194336,37.4788327881,3.11725056152,1.0,0.0,0.0,0.0,1.0,0.0,0.0,0.0,1.0
1464109369163264159,543,1464109369159378285,,13.296423912,4.73530817032,-61.3079032898,0.00143299996853,1.0,0.0,0.0,0.0,1.0,0.0,0.0,0.0,1.0,-0.18292683363,-22.682926178,12.9268293381,1.0,0.0,0.0,0.0,1.0,0.0,0.0,0.0,1.0,1.60890351563,-40.6487557861,-13.843273999,1.0,0.0,0.0,0.0,1.0,0.0,0.0,0.0,1.0
1464109369185683836,544,1464109369181586087,,13.7256536484,7.35468101501,-60.8114585876,0.0011040000245,1.0,0.0,0.0,0.0,1.0,0.0,0.0,0.0,1.0,-202.926834106,54.3292694092,62.3780517578,1.0,0.0,0.0,0.0,1.0,0.0,0.0,0.0,1.0,18.5263324463,-5.47793339844,150.030262184,1.0,0.0,0.0,0.0,1.0,0.0,0.0,0.0,1.0
1464109369205988988,545,1464109369203081340,,14.6646575928,8.488904953,-60.5475120544,0.00118899997324,1.0,0.0,0.0,0.0,1.0,0.0,0.0,0.0,1.0,-7.13414621353,35.4268302917,34.9390258789,1.0,0.0,0.0,0.0,1.0,0.0,0.0,0.0,1.0,2.07337849156,19.7761057129,16.7546232178,1.0,0.0,0.0,0.0,1.0,0.0,0.0,0.0,1.0
1464109369226850908,546,1464109369224086072,,15.6138753891,8.23679637909,-59.9247665405,0.00202900008298,1.0,0.0,0.0,0.0,1.0,0.0,0.0,0.0,1.0,255.182937622,16.5853652954,16.7682933807,1.0,0.0,0.0,0.0,1.0,0.0,0.0,0.0,1.0,14.5375924805,-16.5822406982,8.8633345459,1.0,0.0,0.0,0.0,1.0,0.0,0.0,0.0,1.0
1464109369247767777,547,1464109369244870754,,17.0469398499,7.91815805435,-58.9733428955,0.00187000003643,1.0,0.0,0.0,0.0,1.0,0.0,0.0,0.0,1.0,-309.695129395,80.9146347046,51.9512214661,1.0,0.0,0.0,0.0,1.0,0.0,0.0,0.0,1.0,2.90177241211,1.24019645996,0.986411083984,1.0,0.0,0.0,0.0,1.0,0.0,0.0,0.0,1.0
1464109369269090946,548,1464109369266187778,,18.5944862366,8.96933746338,-58.4756355286,0.00108099996578,1.0,0.0,0.0,0.0,1.0,0.0,0.0,0.0,1.0,110.792686462,110.060974121,-8.84146404266,1.0,0.0,0.0,0.0,1.0,0.0,0.0,0.0,1.0,1.30244570312,3.53384165039,-23.1423532471,1.0,0.0,0.0,0.0,1.0,0.0,0.0,0.0,1.0
1464109369289407088,549,1464109369286586731,,19.8873710632,9.14901638031,-58.0422706604,0.00109599996358,1.0,0.0,0.0,0.0,1.0,0.0,0.0,0.0,1.0,-53.2317085266,82.3170700073,-7.31707334518,1.0,0.0,0.0,0.0,1.0,0.0,0.0,0.0,1.0,-2.71981308594,6.37336481934,-13.5368161865,1.0,0.0,0.0,0.0,1.0,0.0,0.0,0.0,1.0
1464109369310993954,550,1464109369308144118,,21.1055088043,8.71791648865,-58.0487174988,0.00148099998478,1.0,0.0,0.0,0.0,1.0,0.0,0.0,0.0,1.0,49.3292694092,94.207321167,2.31707310677,1.0,0.0,0.0,0.0,1.0,0.0,0.0,0.0,1.0,-3.61045610352,-3.29442148437,-7.90565388184,1.0,0.0,0.0,0.0,1.0,0.0,0.0,0.0,1.0
1464109369331070200,551,1464109369328357864,,22.2898464203,9.58000659943,-57.9107894897,0.000980000011623,1.0,0.0,0.0,0.0,1.0,0.0,0.0,0.0,1.0,27.3780498505,45.7926826477,6.21951246262,1.0,0.0,0.0,0.0,1.0,0.0,0.0,0.0,1.0,2.61925661621,10.7691190674,1.66157595215,1.0,0.0,0.0,0.0,1.0,0.0,0.0,0.0,1.0
1464109369353117065,552,1464109369349934054,,23.345916748,9.37456417084,-57.9455604553,0.00152599997818,1.0,0.0,0.0,0.0,1.0,0.0,0.0,0.0,1.0,-38.7804870605,18.841463089,-23.3536586761,1.0,0.0,0.0,0.0,1.0,0.0,0.0,0.0,1.0,-0.167594116211,4.22337143625,-19.6516072266,1.0,0.0,0.0,0.0,1.0,0.0,0.0,0.0,1.0
1464109369374629193,553,1464109369371374462,,23.8827438354,9.75168037415,-57.9621429443,0.00109300005715,1.0,0.0,0.0,0.0,1.0,0.0,0.0,0.0,1.0,3.04878044128,80.5487823486,5.67073154449,1.0,0.0,0.0,0.0,1.0,0.0,0.0,0.0,1.0,4.66869294504,6.03338818359,-17.1855795166,1.0,0.0,0.0,0.0,1.0,0.0,0.0,0.0,1.0
1464109369398598605,554,1464109369392536382,,24.6525058746,8.40722465515,-58.2178878784,0.00107899995055,1.0,0.0,0.0,0.0,1.0,0.0,0.0,0.0,1.0,74.9390258789,42.3780517578,41.2195129395,1.0,0.0,0.0,0.0,1.0,0.0,0.0,0.0,1.0,-5.31033928223,-15.6101948242,32.5467750301,1.0,0.0,0.0,0.0,1.0,0.0,0.0,0.0,1.0
1464109369420990573,555,1464109369413220491,,25.2577056885,10.0647592545,-58.6176376343,0.00101400003769,1.0,0.0,0.0,0.0,1.0,0.0,0.0,0.0,1.0,-181.585357666,24.8780498505,-5.97560977936,1.0,0.0,0.0,0.0,1.0,0.0,0.0,0.0,1.0,0.119710083008,26.1973545654,4.34308181152,1.0,0.0,0.0,0.0,1.0,0.0,0.0,0.0,1.0
1464109369442921658,556,1464109369433954652,,26.2573757172,8.55763053894,-58.4627914429,0.00101699994411,1.0,0.0,0.0,0.0,1.0,0.0,0.0,0.0,1.0,286.829284668,-72.9268341064,29.3902435303,1.0,0.0,0.0,0.0,1.0,0.0,0.0,0.0,1.0,15.1505081055,-13.7139871094,21.4472584717,1.0,0.0,0.0,0.0,1.0,0.0,0.0,0.0,1.0
1464109369462583009,557,1464109369454618188,,26.9176712036,8.36068916321,-58.195690155,0.000999000039883,1.0,0.0,0.0,0.0,1.0,0.0,0.0,0.0,1.0,-95.6707305908,47.8048782349,22.6219520569,1.0,0.0,0.0,0.0,1.0,0.0,0.0,0.0,1.0,8.77714328613,-46.7683352295,74.6129005371,1.0,0.0,0.0,0.0,1.0,0.0,0.0,0.0,1.0
1464109369483792221,558,1464109369475435421,,27.0854034424,9.80726528168,-58.9997215271,0.00104999996256,1.0,0.0,0.0,0.0,1.0,0.0,0.0,0.0,1.0,-113.10975647,-4.75609779358,-13.841463089,1.0,0.0,0.0,0.0,1.0,0.0,0.0,0.0,1.0,-2.26491477051,-1.50355864258,-8.90164177246,1.0,0.0,0.0,0.0,1.0,0.0,0.0,0.0,1.0
1464109369500650559,559,1464109369496397706,,27.2507686615,8.64567661285,-59.3006744385,0.00104100001045,1.0,0.0,0.0,0.0,1.0,0.0,0.0,0.0,1.0,62.0731735229,29.5121974945,-6.15853643417,1.0,0.0,0.0,0.0,1.0,0.0,0.0,0.0,1.0,6.61757338867,11.0085392334,-12.7179992187,1.0,0.0,0.0,0.0,1.0,0.0,0.0,0.0,1.0
1464109369523065288,560,1464109369517559887,,27.3093490601,8.84472751617,-59.3527183533,0.00116500002332,1.0,0.0,0.0,0.0,1.0,0.0,0.0,0.0,1.0,32.5,80.792678833,-1.95121955872,1.0,0.0,0.0,0.0,1.0,0.0,0.0,0.0,1.0,-2.22660754395,20.5374618408,2.38941340297,1.0,0.0,0.0,0.0,1.0,0.0,0.0,0.0,1.0
1464109369542383567,561,1464109369538455453,,27.1947193146,7.59689092636,-60.0925674438,0.00118799996562,1.0,0.0,0.0,0.0,1.0,0.0,0.0,0.0,1.0,-17.9268302917,-0.304878056049,-2.19512200356,1.0,0.0,0.0,0.0,1.0,0.0,0.0,0.0,1.0,-9.25119521484,-2.58573779297,15.1648733154,1.0,0.0,0.0,0.0,1.0,0.0,0.0,0.0,1.0
1464109369564013038,562,1464109369559959455,,27.1569976807,7.66953897476,-60.5334587097,0.0016309999628,1.0,0.0,0.0,0.0,1.0,0.0,0.0,0.0,1.0,-34.0853691101,-9.39024448395,-13.048781395,1.0,0.0,0.0,0.0,1.0,0.0,0.0,0.0,1.0,-5.05655390625,-0.15801730957,13.6517378662,1.0,0.0,0.0,0.0,1.0,0.0,0.0,0.0,1.0
1464109369584905375,563,1464109369582116685,,26.8270568848,7.7440533638,-60.5736083984,0.00118699995801,1.0,0.0,0.0,0.0,1.0,0.0,0.0,0.0,1.0,-118.719512939,-6.46341466904,9.45121955872,1.0,0.0,0.0,0.0,1.0,0.0,0.0,0.0,1.0,3.84987626953,-9.62469125835,40.8785991455,1.0,0.0,0.0,0.0,1.0,0.0,0.0,0.0,1.0
1464109369605907348,564,1464109369603207147,,26.385011673,8.2789773941,-61.208820343,0.0021720000077,1.0,0.0,0.0,0.0,1.0,0.0,0.0,0.0,1.0,-126.402442932,-5.18292713165,-6.46341466904,1.0,0.0,0.0,0.0,1.0,0.0,0.0,0.0,1.0,-1.20188930646,8.07803640137,7.22570061035,1.0,0.0,0.0,0.0,1.0,0.0,0.0,0.0,1.0
1464109369626936872,565,1464109369624508025,,26.0413188934,7.16759443283,-61.3630409241,0.00228799995966,1.0,0.0,0.0,0.0,1.0,0.0,0.0,0.0,1.0,45.1219520569,20.7317085266,-6.95121955872,1.0,0.0,0.0,0.0,1.0,0.0,0.0,0.0,1.0,4.46758029785,2.34631748082,10.0939541992,1.0,0.0,0.0,0.0,1.0,0.0,0.0,0.0,1.0
1464109369647979157,566,1464109369645360154,,26.0658416748,7.80206632614,-61.6633033752,0.00274199992418,1.0,0.0,0.0,0.0,1.0,0.0,0.0,0.0,1.0,-67.8048782349,-24.6951236725,-18.2317085266,1.0,0.0,0.0,0.0,1.0,0.0,0.0,0.0,1.0,-1.37427175293,5.90888969727,-10.4291424316,1.0,0.0,0.0,0.0,1.0,0.0,0.0,0.0,1.0
1464109369669316076,567,1464109369666516970,,25.9896831512,5.82947397232,-61.6741027832,0.00113900005817,1.0,0.0,0.0,0.0,1.0,0.0,0.0,0.0,1.0,311.524414062,-142.682937622,50.2439041138,1.0,0.0,0.0,0.0,1.0,0.0,0.0,0.0,1.0,11.01811604,6.85699355469,30.7846449463,1.0,0.0,0.0,0.0,1.0,0.0,0.0,0.0,1.0
1464109369689851384,568,1464109369687171287,,26.1333618164,7.32427883148,-61.8029785156,0.00108700001147,1.0,0.0,0.0,0.0,1.0,0.0,0.0,0.0,1.0,-272.621948242,16.9512195587,34.6951217651,1.0,0.0,0.0,0.0,1.0,0.0,0.0,0.0,1.0,2.59531459961,14.8344734863,18.746598999,1.0,0.0,0.0,0.0,1.0,0.0,0.0,0.0,1.0
1464109369711440021,569,1464109369709002736,,26.1703910828,6.45129489899,-61.9963035583,0.00115100003313,1.0,0.0,0.0,0.0,1.0,0.0,0.0,0.0,1.0,103.353660583,71.2804870605,-20.8536586761,1.0,0.0,0.0,0.0,1.0,0.0,0.0,0.0,1.0,-3.05978972168,15.6772324707,12.976572998,1.0,0.0,0.0,0.0,1.0,0.0,0.0,0.0,1.0
1464109369731809600,570,1464109369729237836,,26.2369861603,6.25649833679,-61.9908370972,0.00110999995377,1.0,0.0,0.0,0.0,1.0,0.0,0.0,0.0,1.0,22.2560977936,14.9390249252,7.68292665482,1.0,0.0,0.0,0.0,1.0,0.0,0.0,0.0,1.0,0.751779321289,-5.31512768555,16.5391450684,1.0,0.0,0.0,0.0,1.0,0.0,0.0,0.0,1.0
1464109369752273292,571,1464109369749777362,,26.5577297211,5.78274250031,-62.2376976013,0.0011340000201,1.0,0.0,0.0,0.0,1.0,0.0,0.0,0.0,1.0,94.3292694092,-0.609756112099,-16.0975608826,1.0,0.0,0.0,0.0,1.0,0.0,0.0,0.0,1.0,-0.234631762695,-4.34787021484,10.0508585693,1.0,0.0,0.0,0.0,1.0,0.0,0.0,0.0,1.0
1464109369772735423,572,1464109369770153294,,26.9453392029,5.6447968483,-62.084854126,0.0010300000431,1.0,0.0,0.0,0.0,1.0,0.0,0.0,0.0,1.0,-78.9634170532,13.5365858078,7.98780536652,1.0,0.0,0.0,0.0,1.0,0.0,0.0,0.0,1.0,-3.3231519043,-0.866701000977,0.881066210937,1.0,0.0,0.0,0.0,1.0,0.0,0.0,0.0,1.0
1464109369793187084,573,1464109369790644279,,26.7619380951,5.95400476456,-62.1676139832,0.00101000000723,1.0,0.0,0.0,0.0,1.0,0.0,0.0,0.0,1.0,38.1097564697,18.0487823486,13.2317075729,1.0,0.0,0.0,0.0,1.0,0.0,0.0,0.0,1.0,3.15076938477,-8.14986245117,14.7434938232,1.0,0.0,0.0,0.0,1.0,0.0,0.0,0.0,1.0
1464109369814083119,574,1464109369812034688,,26.6703586578,5.6576962471,-61.9128036499,0.00102900003549,1.0,0.0,0.0,0.0,1.0,0.0,0.0,0.0,1.0,-54.1463432312,25.975610733,-1.95121955872,1.0,0.0,0.0,0.0,1.0,0.0,0.0,0.0,1.0,4.64475092844,-13.7187755127,36.4589052189,1.0,0.0,0.0,0.0,1.0,0.0,0.0,0.0,1.0
1464109369837767949,575,1464109369832637234,,26.8891181946,5.27548122406,-62.3942527771,0.00094200001331,1.0,0.0,0.0,0.0,1.0,0.0,0.0,0.0,1.0,-54.4512214661,25.6707324982,-5.12195110321,1.0,0.0,0.0,0.0,1.0,0.0,0.0,0.0,1.0,-3.09330854492,-8.76277807617,19.8766621826,1.0,0.0,0.0,0.0,1.0,0.0,0.0,0.0,1.0
1464109369857317530,576,1464109369853700717,,27.2358436584,4.99625682831,-62.0523109436,0.0011340000201,1.0,0.0,0.0,0.0,1.0,0.0,0.0,0.0,1.0,-210.792678833,-1.95121955872,38.8414649963,1.0,0.0,0.0,0.0,1.0,0.0,0.0,0.0,1.0,0.435744702148,-6.64151540527,40.1220314209,1.0,0.0,0.0,0.0,1.0,0.0,0.0,0.0,1.0
1464109369880370642,577,1464109369874588158,,27.1567306519,6.40955495834,-62.6653366089,0.00115400005598,1.0,0.0,0.0,0.0,1.0,0.0,0.0,0.0,1.0,114.085365295,36.0975646973,-12.6219520569,1.0,0.0,0.0,0.0,1.0,0.0,0.0,0.0,1.0,-0.497993945312,21.7728698975,2.92092602539,1.0,0.0,0.0,0.0,1.0,0.0,0.0,0.0,1.0
1464109369901897926,578,1464109369897039137,,27.4527263641,2.97925591469,-62.7944755554,0.00113300001249,1.0,0.0,0.0,0.0,1.0,0.0,0.0,0.0,1.0,-62.8048782349,43.9024391174,9.87804889679,1.0,0.0,0.0,0.0,1.0,0.0,0.0,0.0,1.0,2.43250888672,-29.3337587402,11.3389390625,1.0,0.0,0.0,0.0,1.0,0.0,0.0,0.0,1.0
1464109369922436722,579,1464109369916566947,,27.2547054291,4.12279033661,-62.797252655,0.00103599997237,1.0,0.0,0.0,0.0,1.0,0.0,0.0,0.0,1.0,-169.085372925,18.2317085266,-13.658536911,1.0,0.0,0.0,0.0,1.0,0.0,0.0,0.0,1.0,10.1178962158,-19.5366855469,-12.4450602295,1.0,0.0,0.0,0.0,1.0,0.0,0.0,0.0,1.0
1464109369944991451,580,1464109369938934749,,27.4829444885,5.08934116364,-62.9885177612,0.0014380000066,1.0,0.0,0.0,0.0,1.0,0.0,0.0,0.0,1.0,-52.0731697083,-33.6585388184,-9.39024448395,1.0,0.0,0.0,0.0,1.0,0.0,0.0,0.0,1.0,8.47068488911,5.34864650879,28.5915562256,1.0,0.0,0.0,0.0,1.0,0.0,0.0,0.0,1.0
1464109369966283110,581,1464109369963217077,,27.6019172668,4.99311828613,-63.5703735352,0.00400299998,1.0,0.0,0.0,0.0,1.0,0.0,0.0,0.0,1.0,-54.5731735229,4.2682929039,-4.93902444839,1.0,0.0,0.0,0.0,1.0,0.0,0.0,0.0,1.0,-3.84029946289,14.9398183594,16.3188785156,1.0,0.0,0.0,0.0,1.0,0.0,0.0,0.0,1.0
1464109369985132224,582,1464109369982069003,,27.1744632721,5.42517185211,-63.6703262329,0.00155399995856,1.0,0.0,0.0,0.0,1.0,0.0,0.0,0.0,1.0,107.012191772,-0.0609756112099,-15.1829271317,1.0,0.0,0.0,0.0,1.0,0.0,0.0,0.0,1.0,4.60165559082,-5.57370146484,4.83149924246,1.0,0.0,0.0,0.0,1.0,0.0,0.0,0.0,1.0
1464109370006088780,583,1464109370003522329,,27.2438983917,4.98267316818,-64.0780258179,0.00164899998344,1.0,0.0,0.0,0.0,1.0,0.0,0.0,0.0,1.0,-27.8048782349,-4.45121955872,-3.41463422775,1.0,0.0,0.0,0.0,1.0,0.0,0.0,0.0,1.0,4.22815983957,0.579396801758,-1.71903679199,1.0,0.0,0.0,0.0,1.0,0.0,0.0,0.0,1.0
1464109370032058082,584,1464109370029289548,,27.3816566467,4.2294716835,-64.3445205688,0.00611100019887,1.0,0.0,0.0,0.0,1.0,0.0,0.0,0.0,1.0,-154.085372925,-3.04878044128,-20.6097564697,1.0,0.0,0.0,0.0,1.0,0.0,0.0,0.0,1.0,1.04387185076,22.4671883789,-0.177170922852,1.0,0.0,0.0,0.0,1.0,0.0,0.0,0.0,1.0
1464109370053058440,585,1464109370050096730,,27.5837478638,1.67072582245,-64.5624237061,0.000976999988779,1.0,0.0,0.0,0.0,1.0,0.0,0.0,0.0,1.0,-25.8536586761,35.9146347046,56.7682952881,1.0,0.0,0.0,0.0,1.0,0.0,0.0,0.0,1.0,2.85388837891,-67.2100290039,125.724317578,1.0,0.0,0.0,0.0,1.0,0.0,0.0,0.0,1.0
1464109370078040245,586,1464109370071065629,,29.745847702,11.0376710892,-65.885093689,0.00102399999741,1.0,0.0,0.0,0.0,1.0,0.0,0.0,0.0,1.0,-38.7804870605,56.2804870605,40.0609741211,1.0,0.0,0.0,0.0,1.0,0.0,0.0,0.0,1.0,-34.6440956844,-23.3338893799,-5.33906970215,1.0,0.0,0.0,0.0,1.0,0.0,0.0,0.0,1.0
1464109370096387017,587,1464109370092993433,,30.0579338074,2.09778904915,-64.8760223389,0.00143599999137,1.0,0.0,0.0,0.0,1.0,0.0,0.0,0.0,1.0,-507.926849365,-6.89024400711,50.365852356,1.0,0.0,0.0,0.0,1.0,0.0,0.0,0.0,1.0,37.3351830266,-3.35188232422,156.901611597,1.0,0.0,0.0,0.0,1.0,0.0,0.0,0.0,1.0
1464109370115818837,588,1464109370113749052,,30.2469100952,6.63981294632,-65.0382003784,0.000969999993686,1.0,0.0,0.0,0.0,1.0,0.0,0.0,0.0,1.0,248.170730591,9.14634132385,-16.158536911,1.0,0.0,0.0,0.0,1.0,0.0,0.0,0.0,1.0,5.36780012207,-10.5871597412,0.933738647461,1.0,0.0,0.0,0.0,1.0,0.0,0.0,0.0,1.0
