%time,field.header.seq,field.header.stamp,field.header.frame_id,field.orientation.x,field.orientation.y,field.orientation.z,field.orientation.w,field.orientation_covariance0,field.orientation_covariance1,field.orientation_covariance2,field.orientation_covariance3,field.orientation_covariance4,field.orientation_covariance5,field.orientation_covariance6,field.orientation_covariance7,field.orientation_covariance8,field.angular_velocity.x,field.angular_velocity.y,field.angular_velocity.z,field.angular_velocity_covariance0,field.angular_velocity_covariance1,field.angular_velocity_covariance2,field.angular_velocity_covariance3,field.angular_velocity_covariance4,field.angular_velocity_covariance5,field.angular_velocity_covariance6,field.angular_velocity_covariance7,field.angular_velocity_covariance8,field.linear_acceleration.x,field.linear_acceleration.y,field.linear_acceleration.z,field.linear_acceleration_covariance0,field.linear_acceleration_covariance1,field.linear_acceleration_covariance2,field.linear_acceleration_covariance3,field.linear_acceleration_covariance4,field.linear_acceleration_covariance5,field.linear_acceleration_covariance6,field.linear_acceleration_covariance7,field.linear_acceleration_covariance8
1464117574873009335,176,1464117574661467624,,4.13822650909,107.964286804,-135.61946106,0.0180760007352,1.0,0.0,0.0,0.0,1.0,0.0,0.0,0.0,1.0,-1.03658533096,2.31707310677,-1.8902438879,1.0,0.0,0.0,0.0,1.0,0.0,0.0,0.0,1.0,-0.579396801758,-0.46447512207,10.2232410889,1.0,0.0,0.0,0.0,1.0,0.0,0.0,0.0,1.0
1464117574873392261,177,1464117574682478072,,4.2489566803,106.820274353,-135.663574219,0.00110700004734,1.0,0.0,0.0,0.0,1.0,0.0,0.0,0.0,1.0,-0.304878056049,-1.58536589146,-2.68292689323,1.0,0.0,0.0,0.0,1.0,0.0,0.0,0.0,1.0,-0.114921679688,-0.823605371094,10.5296989014,1.0,0.0,0.0,0.0,1.0,0.0,0.0,0.0,1.0
1464117574873429814,178,1464117574703557220,,4.32858753204,105.686767578,-135.711746216,0.00108299998101,1.0,0.0,0.0,0.0,1.0,0.0,0.0,0.0,1.0,-2.80487799644,1.03658533096,-5.06097555161,1.0,0.0,0.0,0.0,1.0,0.0,0.0,0.0,1.0,0.526724328702,-0.837970581055,9.99818613281,1.0,0.0,0.0,0.0,1.0,0.0,0.0,0.0,1.0
1464117574873516952,179,1464117574724209951,,4.41371917725,104.546974182,-135.648178101,0.00108800001908,1.0,0.0,0.0,0.0,1.0,0.0,0.0,0.0,1.0,-3.7804877758,3.04878044128,-0.914634168148,1.0,0.0,0.0,0.0,1.0,0.0,0.0,0.0,1.0,1.12048637695,-0.636857641602,10.7212350342,1.0,0.0,0.0,0.0,1.0,0.0,0.0,0.0,1.0
1464117574873699144,180,1464117574745588743,,4.41417121887,103.385673523,-135.626953125,0.00110700004734,1.0,0.0,0.0,0.0,1.0,0.0,0.0,0.0,1.0,-4.63414621353,4.20731735229,7.01219511032,1.0,0.0,0.0,0.0,1.0,0.0,0.0,0.0,1.0,-0.277727392578,-0.172382519531,9.99339772949,1.0,0.0,0.0,0.0,1.0,0.0,0.0,0.0,1.0
1464117574873742427,181,1464117574770158139,,4.31679582596,102.028579712,-135.584335327,0.00936499983072,1.0,0.0,0.0,0.0,1.0,0.0,0.0,0.0,1.0,-1.46341466904,5.18292713165,-0.548780500889,1.0,0.0,0.0,0.0,1.0,0.0,0.0,0.0,1.0,-0.320823022461,-0.861912597656,10.2136642822,1.0,0.0,0.0,0.0,1.0,0.0,0.0,0.0,1.0
1464117574873893681,182,1464117574790461590,,4.4475030899,100.899749756,-135.593444824,0.00218200008385,1.0,0.0,0.0,0.0,1.0,0.0,0.0,0.0,1.0,-0.975609779358,-0.609756112099,0.853658556938,1.0,0.0,0.0,0.0,1.0,0.0,0.0,0.0,1.0,-1.00556469727,-0.861912597656,10.5105452881,1.0,0.0,0.0,0.0,1.0,0.0,0.0,0.0,1.0
1464117574874117489,183,1464117574813071872,,4.48288822174,99.7510528564,-135.672058105,0.00156999996398,1.0,0.0,0.0,0.0,1.0,0.0,0.0,0.0,1.0,1.8292683363,-0.853658556938,-4.69512224197,1.0,0.0,0.0,0.0,1.0,0.0,0.0,0.0,1.0,0.450109912109,-1.22104284668,10.5344873047,1.0,0.0,0.0,0.0,1.0,0.0,0.0,0.0,1.0
1464117574874190251,184,1464117574832097581,,4.58685874939,98.6010055542,-135.689086914,0.00127500004601,1.0,0.0,0.0,0.0,1.0,0.0,0.0,0.0,1.0,3.84146332741,0.548780500889,-5.67073154449,1.0,0.0,0.0,0.0,1.0,0.0,0.0,0.0,1.0,-0.636857641602,-0.598550451572,10.314220752,1.0,0.0,0.0,0.0,1.0,0.0,0.0,0.0,1.0
1464117574874297754,185,1464117574853072404,,4.76770448685,97.4108047485,-135.736175537,0.00118200003635,1.0,0.0,0.0,0.0,1.0,0.0,0.0,0.0,1.0,2.19512200356,-1.8902438879,-2.74390244484,1.0,0.0,0.0,0.0,1.0,0.0,0.0,0.0,1.0,-0.656011254883,-0.325611425781,9.8784760498,1.0,0.0,0.0,0.0,1.0,0.0,0.0,0.0,1.0
1464117574896760793,186,1464117574879713521,,4.74953508377,95.8735809326,-135.727890015,0.00622100010514,1.0,0.0,0.0,0.0,1.0,0.0,0.0,0.0,1.0,-2.86585378647,7.19512224197,3.7804877758,1.0,0.0,0.0,0.0,1.0,0.0,0.0,0.0,1.0,-0.148440512063,-0.0191536132812,9.7587659668,1.0,0.0,0.0,0.0,1.0,0.0,0.0,0.0,1.0
1464117574904609020,187,1464117574900389951,,4.69921016693,94.6938400269,-135.651748657,0.00108600000385,1.0,0.0,0.0,0.0,1.0,0.0,0.0,0.0,1.0,-0.12195122242,5.18292713165,6.52439069748,1.0,0.0,0.0,0.0,1.0,0.0,0.0,0.0,1.0,-0.794874951172,-0.0191536132812,10.3908352051,1.0,0.0,0.0,0.0,1.0,0.0,0.0,0.0,1.0
1464117574924025781,188,1464117574921203779,,4.56494426727,93.4964904785,-135.617767334,0.0010529999854,1.0,0.0,0.0,0.0,1.0,0.0,0.0,0.0,1.0,-1.46341466904,4.69512224197,2.68292689323,1.0,0.0,0.0,0.0,1.0,0.0,0.0,0.0,1.0,0.210689746094,-0.167594116211,9.64384487163,1.0,0.0,0.0,0.0,1.0,0.0,0.0,0.0,1.0
1464117574944160790,189,1464117574942202926,,4.61608028412,92.282585144,-135.595046997,0.000982000026852,1.0,0.0,0.0,0.0,1.0,0.0,0.0,0.0,1.0,-2.74390244484,1.8292683363,-1.70731711388,1.0,0.0,0.0,0.0,1.0,0.0,0.0,0.0,1.0,-0.507570751953,-0.737414111328,10.4530844482,1.0,0.0,0.0,0.0,1.0,0.0,0.0,0.0,1.0
1464117574966570702,190,1464117574962836750,,4.63691186905,91.0938415527,-135.612411499,0.00121999997646,1.0,0.0,0.0,0.0,1.0,0.0,0.0,0.0,1.0,-1.8902438879,2.68292689323,1.8902438879,1.0,0.0,0.0,0.0,1.0,0.0,0.0,0.0,1.0,-0.0383072265625,-0.885854614258,10.2567599121,1.0,0.0,0.0,0.0,1.0,0.0,0.0,0.0,1.0
1464117574987437605,191,1464117574983823396,,4.63306427002,89.8754425049,-135.588287354,0.000980000011623,1.0,0.0,0.0,0.0,1.0,0.0,0.0,0.0,1.0,0.0609756112099,2.5,0.12195122242,1.0,0.0,0.0,0.0,1.0,0.0,0.0,0.0,1.0,-0.469263525391,-0.507570751953,10.3190091553,1.0,0.0,0.0,0.0,1.0,0.0,0.0,0.0,1.0
1464117575011746370,192,1464117575007929655,,4.75463247299,88.5269775391,-135.683166504,0.00678599998355,1.0,0.0,0.0,0.0,1.0,0.0,0.0,0.0,1.0,0.609756112099,-4.75609779358,-4.81707286835,1.0,0.0,0.0,0.0,1.0,0.0,0.0,0.0,1.0,-0.105344873047,-0.584185168546,10.0939541992,1.0,0.0,0.0,0.0,1.0,0.0,0.0,0.0,1.0
1464117575031255737,193,1464117575028355505,,4.83617687225,87.3322372437,-135.791824341,0.000977999996394,1.0,0.0,0.0,0.0,1.0,0.0,0.0,0.0,1.0,-0.365853667259,1.46341466904,-5.85365867615,1.0,0.0,0.0,0.0,1.0,0.0,0.0,0.0,1.0,0.325611425781,-0.909796630859,10.4818148682,1.0,0.0,0.0,0.0,1.0,0.0,0.0,0.0,1.0
1464117575055621378,194,1464117575052590778,,4.95284843445,86.1546401978,-135.742752075,0.00103599997237,1.0,0.0,0.0,0.0,1.0,0.0,0.0,0.0,1.0,0.0,-0.548780500889,6.34146356583,1.0,0.0,0.0,0.0,1.0,0.0,0.0,0.0,1.0,-0.943315454102,-0.92416184082,11.2288057861,1.0,0.0,0.0,0.0,1.0,0.0,0.0,0.0,1.0
1464117575074222388,195,1464117575069929932,,4.92961835861,84.9589233398,-135.682022095,0.00114499998745,1.0,0.0,0.0,0.0,1.0,0.0,0.0,0.0,1.0,-1.64634156227,5.36585378647,7.07317113876,1.0,0.0,0.0,0.0,1.0,0.0,0.0,0.0,1.0,-0.397437475586,-0.665588061523,10.405200415,1.0,0.0,0.0,0.0,1.0,0.0,0.0,0.0,1.0
1464117575094130412,196,1464117575090349271,,4.75842094421,83.7946166992,-135.626647949,0.00121799996123,1.0,0.0,0.0,0.0,1.0,0.0,0.0,0.0,1.0,-0.670731723309,4.32926845551,0.975609779358,1.0,0.0,0.0,0.0,1.0,0.0,0.0,0.0,1.0,0.320823022461,-0.119710083008,10.4291424316,1.0,0.0,0.0,0.0,1.0,0.0,0.0,0.0,1.0
1464117575114965700,197,1464117575112143386,,4.86706066132,82.5520706177,-135.626907349,0.0013490000274,1.0,0.0,0.0,0.0,1.0,0.0,0.0,0.0,1.0,-0.243902444839,0.365853667259,0.18292683363,1.0,0.0,0.0,0.0,1.0,0.0,0.0,0.0,1.0,-0.536301208408,-0.967257470703,10.285490332,1.0,0.0,0.0,0.0,1.0,0.0,0.0,0.0,1.0
1464117575136029275,198,1464117575132822888,,4.83258676529,81.3575515747,-135.635192871,0.00114599999506,1.0,0.0,0.0,0.0,1.0,0.0,0.0,0.0,1.0,-0.0609756112099,4.51219558716,1.64634156227,1.0,0.0,0.0,0.0,1.0,0.0,0.0,0.0,1.0,0.119710083008,-0.502782348633,10.1178962158,1.0,0.0,0.0,0.0,1.0,0.0,0.0,0.0,1.0
1464117575157340408,199,1464117575154081833,,4.86348581314,80.145324707,-135.619812012,0.00116099999286,1.0,0.0,0.0,0.0,1.0,0.0,0.0,0.0,1.0,0.0609756112099,1.40243899822,-0.853658556938,1.0,0.0,0.0,0.0,1.0,0.0,0.0,0.0,1.0,-0.713472094727,-0.478840332031,10.2807019287,1.0,0.0,0.0,0.0,1.0,0.0,0.0,0.0,1.0
1464117575177741466,200,1464117575175276297,,4.91294384003,78.9253082275,-135.649093628,0.00116099999286,1.0,0.0,0.0,0.0,1.0,0.0,0.0,0.0,1.0,-0.548780500889,2.37804889679,0.548780500889,1.0,0.0,0.0,0.0,1.0,0.0,0.0,0.0,1.0,-0.119710083008,-0.574608398438,9.99818613281,1.0,0.0,0.0,0.0,1.0,0.0,0.0,0.0,1.0
1464117575203159530,201,1464117575196304975,,4.92887592316,77.7326965332,-135.648574829,0.000987999956124,1.0,0.0,0.0,0.0,1.0,0.0,0.0,0.0,1.0,-0.548780500889,2.13414645195,-0.0609756112099,1.0,0.0,0.0,0.0,1.0,0.0,0.0,0.0,1.0,-0.349553442383,-0.488417138672,10.180145459,1.0,0.0,0.0,0.0,1.0,0.0,0.0,0.0,1.0
1464117575221288862,202,1464117575217537982,,4.959856987,76.520690918,-135.672286987,0.000967999978457,1.0,0.0,0.0,0.0,1.0,0.0,0.0,0.0,1.0,-0.304878056049,2.01219511032,-0.12195122242,1.0,0.0,0.0,0.0,1.0,0.0,0.0,0.0,1.0,-0.234631762695,-0.574608398438,10.165780249,1.0,0.0,0.0,0.0,1.0,0.0,0.0,0.0,1.0
1464117575242926150,203,1464117575239208760,,5.00244855881,75.3207931519,-135.693740845,0.00105099997018,1.0,0.0,0.0,0.0,1.0,0.0,0.0,0.0,1.0,0.548780500889,-1.58536589146,-1.58536589146,1.0,0.0,0.0,0.0,1.0,0.0,0.0,0.0,1.0,0.0239420166016,-0.488417138672,10.2950671387,1.0,0.0,0.0,0.0,1.0,0.0,0.0,0.0,1.0
1464117575262521353,204,1464117575259993786,,5.06387042999,74.1358642578,-135.824783325,0.00112200004514,1.0,0.0,0.0,0.0,1.0,0.0,0.0,0.0,1.0,-0.853658556938,-0.853658556938,-6.58536624908,1.0,0.0,0.0,0.0,1.0,0.0,0.0,0.0,1.0,0.651222851562,-0.215478149414,9.96945571289,1.0,0.0,0.0,0.0,1.0,0.0,0.0,0.0,1.0
1464117575283509405,205,1464117575280907617,,5.17531585693,72.9590377808,-135.845565796,0.00105500000063,1.0,0.0,0.0,0.0,1.0,0.0,0.0,0.0,1.0,-4.20731735229,6.70731735229,-2.31707310677,1.0,0.0,0.0,0.0,1.0,0.0,0.0,0.0,1.0,-1.35990654297,0.0287304199219,9.66299848491,1.0,0.0,0.0,0.0,1.0,0.0,0.0,0.0,1.0
1464117575304202449,206,1464117575301928743,,5.22319602966,71.821472168,-135.767959595,0.00102399999741,1.0,0.0,0.0,0.0,1.0,0.0,0.0,0.0,1.0,-2.80487799644,4.75609779358,6.40243911743,1.0,0.0,0.0,0.0,1.0,0.0,0.0,0.0,1.0,-0.45968671875,-0.0191536132812,10.0364933594,1.0,0.0,0.0,0.0,1.0,0.0,0.0,0.0,1.0
1464117575326447409,207,1464117575323369047,,5.07038259506,70.6683959961,-135.773574829,0.00103199994192,1.0,0.0,0.0,0.0,1.0,0.0,0.0,0.0,1.0,-2.19512200356,-0.365853667259,0.0609756112099,1.0,0.0,0.0,0.0,1.0,0.0,0.0,0.0,1.0,0.450109912109,-0.234631762695,10.2615483154,1.0,0.0,0.0,0.0,1.0,0.0,0.0,0.0,1.0
1464117575346122771,208,1464117575344035580,,5.18687677383,69.5165176392,-135.910263062,0.000972000008915,1.0,0.0,0.0,0.0,1.0,0.0,0.0,0.0,1.0,-1.8902438879,-1.2804877758,-7.74390268326,1.0,0.0,0.0,0.0,1.0,0.0,0.0,0.0,1.0,-0.0622492431641,-0.718260498047,10.5344873047,1.0,0.0,0.0,0.0,1.0,0.0,0.0,0.0,1.0
1464117575368016680,209,1464117575365284473,,5.26814937592,68.3444595337,-135.959762573,0.000980000011623,1.0,0.0,0.0,0.0,1.0,0.0,0.0,0.0,1.0,-1.8902438879,10.6097564697,2.25609779358,1.0,0.0,0.0,0.0,1.0,0.0,0.0,0.0,1.0,-2.43250888672,-0.679953271484,9.76834277344,1.0,0.0,0.0,0.0,1.0,0.0,0.0,0.0,1.0
1464117575391289792,210,1464117575385887723,,5.26857805252,67.2066192627,-135.855911255,0.000989999971353,1.0,0.0,0.0,0.0,1.0,0.0,0.0,0.0,1.0,-4.81707286835,5.36585378647,8.59756088257,1.0,0.0,0.0,0.0,1.0,0.0,0.0,0.0,1.0,-1.01992990723,-0.555454785156,10.3812583984,1.0,0.0,0.0,0.0,1.0,0.0,0.0,0.0,1.0
1464117575410200133,211,1464117575406494515,,5.18368291855,66.1256027222,-135.816757202,0.00109499995597,1.0,0.0,0.0,0.0,1.0,0.0,0.0,0.0,1.0,-1.34146344662,0.243902444839,-1.09756100178,1.0,0.0,0.0,0.0,1.0,0.0,0.0,0.0,1.0,0.296881024126,-0.957680664062,10.524910498,1.0,0.0,0.0,0.0,1.0,0.0,0.0,0.0,1.0
1464117575429869141,212,1464117575427123235,,5.27050209045,65.0112991333,-135.944778442,0.000969999993686,1.0,0.0,0.0,0.0,1.0,0.0,0.0,0.0,1.0,2.01219511032,0.0609756112099,-7.50000047684,1.0,0.0,0.0,0.0,1.0,0.0,0.0,0.0,1.0,-0.397437475586,-0.909796630859,10.3285859619,1.0,0.0,0.0,0.0,1.0,0.0,0.0,0.0,1.0
1464117575450970008,213,1464117575448711824,,5.40451431274,63.85912323,-136.091033936,0.00105600000825,1.0,0.0,0.0,0.0,1.0,0.0,0.0,0.0,1.0,2.43902444839,-2.43902444839,-3.35365867615,1.0,0.0,0.0,0.0,1.0,0.0,0.0,0.0,1.0,-0.191536132812,-0.325611425781,10.1370498291,1.0,0.0,0.0,0.0,1.0,0.0,0.0,0.0,1.0
1464117575474072283,214,1464117575469409764,,5.41832828522,62.7819061279,-136.14491272,0.00115100003313,1.0,0.0,0.0,0.0,1.0,0.0,0.0,0.0,1.0,-0.0609756112099,2.13414645195,1.46341466904,1.0,0.0,0.0,0.0,1.0,0.0,0.0,0.0,1.0,-0.191536132812,-0.301669427446,10.1705686523,1.0,0.0,0.0,0.0,1.0,0.0,0.0,0.0,1.0
1464117575493832542,215,1464117575489939106,,5.40600156784,61.7022666931,-136.142547607,0.00145500001963,1.0,0.0,0.0,0.0,1.0,0.0,0.0,0.0,1.0,-1.09756100178,2.56097555161,-1.15853655338,1.0,0.0,0.0,0.0,1.0,0.0,0.0,0.0,1.0,-0.253785375977,-0.359130249023,10.0556469727,1.0,0.0,0.0,0.0,1.0,0.0,0.0,0.0,1.0
1464117575513790775,216,1464117575511365868,,5.43140172958,60.5827026367,-136.18296814,0.00110500003211,1.0,0.0,0.0,0.0,1.0,0.0,0.0,0.0,1.0,-0.548780500889,2.62195134163,0.426829278469,1.0,0.0,0.0,0.0,1.0,0.0,0.0,0.0,1.0,0.162805712891,-0.684741674805,10.673351001,1.0,0.0,0.0,0.0,1.0,0.0,0.0,0.0,1.0
1464117575534128706,217,1464117575531879949,,5.42716884613,59.5254325867,-136.094665527,0.00106299994513,1.0,0.0,0.0,0.0,1.0,0.0,0.0,0.0,1.0,1.8902438879,4.51219558716,5.97560977936,1.0,0.0,0.0,0.0,1.0,0.0,0.0,0.0,1.0,0.694318481445,-1.05823706072,10.8505219238,1.0,0.0,0.0,0.0,1.0,0.0,0.0,0.0,1.0
1464117575556253455,218,1464117575553461402,,5.40936470032,58.4531288147,-135.960418701,0.00122099998407,1.0,0.0,0.0,0.0,1.0,0.0,0.0,0.0,1.0,3.41463422775,1.76829278469,8.10975551605,1.0,0.0,0.0,0.0,1.0,0.0,0.0,0.0,1.0,-0.699106884766,-0.201112939453,9.36132790669,1.0,0.0,0.0,0.0,1.0,0.0,0.0,0.0,1.0
1464117575579560266,219,1464117575573949493,,5.33285188675,57.4339027405,-136.044250488,0.00122700002976,1.0,0.0,0.0,0.0,1.0,0.0,0.0,0.0,1.0,3.59756112099,-2.07317066193,-6.15853643417,1.0,0.0,0.0,0.0,1.0,0.0,0.0,0.0,1.0,0.320823022461,-0.603338854892,10.0508585693,1.0,0.0,0.0,0.0,1.0,0.0,0.0,0.0,1.0
1464117575596897858,220,1464117575594472117,,5.43877601624,56.4008865356,-136.17767334,0.00130300002638,1.0,0.0,0.0,0.0,1.0,0.0,0.0,0.0,1.0,1.58536589146,0.0609756112099,-5.91463422775,1.0,0.0,0.0,0.0,1.0,0.0,0.0,0.0,1.0,-0.746990917969,-0.502782348633,9.50498117534,1.0,0.0,0.0,0.0,1.0,0.0,0.0,0.0,1.0
1464117575619688561,221,1464117575615720436,,5.52202177048,55.31772995,-136.283615112,0.00118999998085,1.0,0.0,0.0,0.0,1.0,0.0,0.0,0.0,1.0,-2.19512200356,-0.975609779358,-1.52439022064,1.0,0.0,0.0,0.0,1.0,0.0,0.0,0.0,1.0,0.114921679688,-0.320823022461,10.0652237793,1.0,0.0,0.0,0.0,1.0,0.0,0.0,0.0,1.0
1464117575639654764,222,1464117575636691561,,5.4846200943,54.2863235474,-136.303237915,0.00098600005731,1.0,0.0,0.0,0.0,1.0,0.0,0.0,0.0,1.0,-2.01219511032,3.10975623131,0.914634168148,1.0,0.0,0.0,0.0,1.0,0.0,0.0,0.0,1.0,0.359130249023,-0.397437475586,10.3190091553,1.0,0.0,0.0,0.0,1.0,0.0,0.0,0.0,1.0
1464117575660929907,223,1464117575657519765,,5.52081775665,53.2840385437,-136.325317383,0.000982000026852,1.0,0.0,0.0,0.0,1.0,0.0,0.0,0.0,1.0,-0.365853667259,1.03658533096,-0.914634168148,1.0,0.0,0.0,0.0,1.0,0.0,0.0,0.0,1.0,-0.292092584273,-0.737414111328,10.3573163818,1.0,0.0,0.0,0.0,1.0,0.0,0.0,0.0,1.0
1464117575681842801,224,1464117575678474222,,5.5099234581,52.2803611755,-136.358123779,0.000967999978457,1.0,0.0,0.0,0.0,1.0,0.0,0.0,0.0,1.0,-0.426829278469,2.86585378647,0.0609756112099,1.0,0.0,0.0,0.0,1.0,0.0,0.0,0.0,1.0,0.0383072265625,-0.584185168546,10.1562034424,1.0,0.0,0.0,0.0,1.0,0.0,0.0,0.0,1.0
1464117575702409331,225,1464117575699769522,,5.52091026306,51.2755851746,-136.362289429,0.00109799997881,1.0,0.0,0.0,0.0,1.0,0.0,0.0,0.0,1.0,-0.487804889679,2.25609779358,0.18292683363,1.0,0.0,0.0,0.0,1.0,0.0,0.0,0.0,1.0,-0.248996972656,-0.387860668945,10.2471831055,1.0,0.0,0.0,0.0,1.0,0.0,0.0,0.0,1.0
1464117575723387071,226,1464117575720301937,,5.53266096115,50.3121414185,-136.357421875,0.000988999963738,1.0,0.0,0.0,0.0,1.0,0.0,0.0,0.0,1.0,-1.8292683363,5.0,2.5,1.0,0.0,0.0,0.0,1.0,0.0,0.0,0.0,1.0,-0.359130249023,-0.277727392578,9.5193463853,1.0,0.0,0.0,0.0,1.0,0.0,0.0,0.0,1.0
1464117575743597394,227,1464117575740986075,,5.55899810791,49.3821411133,-136.236709595,0.000985000049695,1.0,0.0,0.0,0.0,1.0,0.0,0.0,0.0,1.0,-1.09756100178,6.70731735229,6.15853643417,1.0,0.0,0.0,0.0,1.0,0.0,0.0,0.0,1.0,-0.675164868164,-0.119710083008,10.3333743652,1.0,0.0,0.0,0.0,1.0,0.0,0.0,0.0,1.0
1464117575764891444,228,1464117575761965846,,5.53442668915,48.4583473206,-136.154953003,0.00105700001586,1.0,0.0,0.0,0.0,1.0,0.0,0.0,0.0,1.0,-0.792682945728,-1.64634156227,1.40243899822,1.0,0.0,0.0,0.0,1.0,0.0,0.0,0.0,1.0,0.416591088867,-0.0287304199219,9.82101520996,1.0,0.0,0.0,0.0,1.0,0.0,0.0,0.0,1.0
1464117575792264976,229,1464117575783490110,,5.49830293655,47.4686698914,-136.322906494,0.00128600001335,1.0,0.0,0.0,0.0,1.0,0.0,0.0,0.0,1.0,-3.29268312454,0.304878056049,-6.95121955872,1.0,0.0,0.0,0.0,1.0,0.0,0.0,0.0,1.0,0.531512805087,-0.76614453125,10.1753570557,1.0,0.0,0.0,0.0,1.0,0.0,0.0,0.0,1.0
1464117575813000574,230,1464117575804544935,,5.58428001404,46.4947013855,-136.385437012,0.000979000004008,1.0,0.0,0.0,0.0,1.0,0.0,0.0,0.0,1.0,-2.56097555161,5.12195110321,-1.03658533096,1.0,0.0,0.0,0.0,1.0,0.0,0.0,0.0,1.0,0.383072265625,-0.46447512207,10.9989624268,1.0,0.0,0.0,0.0,1.0,0.0,0.0,0.0,1.0
1464117575831366526,231,1464117575825672887,,5.67784166336,45.5978736877,-136.247589111,0.000980000011623,1.0,0.0,0.0,0.0,1.0,0.0,0.0,0.0,1.0,-4.69512224197,6.89024400711,8.04878044128,1.0,0.0,0.0,0.0,1.0,0.0,0.0,0.0,1.0,-1.22104284668,-0.541089611728,10.2328178955,1.0,0.0,0.0,0.0,1.0,0.0,0.0,0.0,1.0
1464117575852255878,232,1464117575846398744,,5.58888435364,44.7682609558,-136.185302734,0.0009710000013,1.0,0.0,0.0,0.0,1.0,0.0,0.0,0.0,1.0,-1.76829278469,-1.09756100178,-0.548780500889,1.0,0.0,0.0,0.0,1.0,0.0,0.0,0.0,1.0,0.718260498047,-0.512359155273,10.3094323486,1.0,0.0,0.0,0.0,1.0,0.0,0.0,0.0,1.0
1464117575874062337,233,1464117575867406849,,5.60315561295,43.8571586609,-136.35848999,0.0014969999902,1.0,0.0,0.0,0.0,1.0,0.0,0.0,0.0,1.0,2.31707310677,0.243902444839,-8.04878044128,1.0,0.0,0.0,0.0,1.0,0.0,0.0,0.0,1.0,-0.282515795898,-1.42215578613,10.7882726807,1.0,0.0,0.0,0.0,1.0,0.0,0.0,0.0,1.0
1464117575898183909,234,1464117575895980674,,5.67208957672,42.622303009,-136.51651001,0.0088630001992,1.0,0.0,0.0,0.0,1.0,0.0,0.0,0.0,1.0,-2.68292689323,2.25609779358,0.0609756112099,1.0,0.0,0.0,0.0,1.0,0.0,0.0,0.0,1.0,-0.143652099609,-0.45968671875,10.046070166,1.0,0.0,0.0,0.0,1.0,0.0,0.0,0.0,1.0
1464117575919785571,235,1464117575917248889,,5.65925216675,41.760597229,-136.48979187,0.00110899994615,1.0,0.0,0.0,0.0,1.0,0.0,0.0,0.0,1.0,-0.853658556938,1.15853655338,2.5,1.0,0.0,0.0,0.0,1.0,0.0,0.0,0.0,1.0,-0.622492431641,-0.0622492431641,10.3477395752,1.0,0.0,0.0,0.0,1.0,0.0,0.0,0.0,1.0
1464117575944186890,236,1464117575938366112,,5.62363767624,40.9004402161,-136.612854004,0.00102399999741,1.0,0.0,0.0,0.0,1.0,0.0,0.0,0.0,1.0,0.0609756112099,-1.09756100178,-5.42682933807,1.0,0.0,0.0,0.0,1.0,0.0,0.0,0.0,1.0,0.363918652344,-0.967257470703,10.3429511719,1.0,0.0,0.0,0.0,1.0,0.0,0.0,0.0,1.0
1464117575961905273,237,1464117575958890975,,5.64755296707,40.0612258911,-136.683334351,0.000986999948509,1.0,0.0,0.0,0.0,1.0,0.0,0.0,0.0,1.0,0.487804889679,3.7804877758,-1.58536589146,1.0,0.0,0.0,0.0,1.0,0.0,0.0,0.0,1.0,-0.61770402832,-0.545877978516,10.2232410889,1.0,0.0,0.0,0.0,1.0,0.0,0.0,0.0,1.0
1464117575990130859,238,1464117575979550476,,5.67374134064,39.2622108459,-136.696090698,0.00107500003651,1.0,0.0,0.0,0.0,1.0,0.0,0.0,0.0,1.0,-0.548780500889,1.2195122242,1.52439022064,1.0,0.0,0.0,0.0,1.0,0.0,0.0,0.0,1.0,-0.110133276367,-0.181959326172,10.0125513428,1.0,0.0,0.0,0.0,1.0,0.0,0.0,0.0,1.0
1464117576002461444,239,1464117576000854995,,5.66297626495,38.4512176514,-136.653839111,0.000972000008915,1.0,0.0,0.0,0.0,1.0,0.0,0.0,0.0,1.0,-1.70731711388,6.7682929039,2.13414645195,1.0,0.0,0.0,0.0,1.0,0.0,0.0,0.0,1.0,-0.138863696289,-0.229843359375,10.046070166,1.0,0.0,0.0,0.0,1.0,0.0,0.0,0.0,1.0
1464117576023837631,240,1464117576021321419,,5.69133090973,37.681968689,-136.543518066,0.000977999996394,1.0,0.0,0.0,0.0,1.0,0.0,0.0,0.0,1.0,-0.914634168148,5.67073154449,6.52439069748,1.0,0.0,0.0,0.0,1.0,0.0,0.0,0.0,1.0,-0.799663354492,-0.622492431641,10.3094323486,1.0,0.0,0.0,0.0,1.0,0.0,0.0,0.0,1.0
1464117576048456560,241,1464117576042301554,,5.62867116928,36.934967041,-136.444335938,0.0012379999971,1.0,0.0,0.0,0.0,1.0,0.0,0.0,0.0,1.0,0.18292683363,-2.07317066193,0.853658556938,1.0,0.0,0.0,0.0,1.0,0.0,0.0,0.0,1.0,0.933738647461,-0.15801730957,10.2759135254,1.0,0.0,0.0,0.0,1.0,0.0,0.0,0.0,1.0
1464117576067617481,242,1464117576063851600,,5.61148643494,36.1130485535,-136.606414795,0.00115899997763,1.0,0.0,0.0,0.0,1.0,0.0,0.0,0.0,1.0,-1.64634156227,0.12195122242,-5.54878091812,1.0,0.0,0.0,0.0,1.0,0.0,0.0,0.0,1.0,-0.076614453125,-0.76135612793,10.5584293213,1.0,0.0,0.0,0.0,1.0,0.0,0.0,0.0,1.0
1464117576087369615,243,1464117576084807412,,5.67754888535,35.3267440796,-136.7162323,0.00150000001304,1.0,0.0,0.0,0.0,1.0,0.0,0.0,0.0,1.0,1.09756100178,-0.670731723309,-1.58536589146,1.0,0.0,0.0,0.0,1.0,0.0,0.0,0.0,1.0,-0.799663354492,-0.823605371094,10.5680061279,1.0,0.0,0.0,0.0,1.0,0.0,0.0,0.0,1.0
1464117576111033779,244,1464117576105284045,,5.66764211655,34.5859031677,-136.751052856,0.00101799995173,1.0,0.0,0.0,0.0,1.0,0.0,0.0,0.0,1.0,1.70731711388,2.13414645195,1.03658533096,1.0,0.0,0.0,0.0,1.0,0.0,0.0,0.0,1.0,-0.0909796630859,-0.421379492187,10.1274730225,1.0,0.0,0.0,0.0,1.0,0.0,0.0,0.0,1.0
1464117576129605622,245,1464117576126151364,,5.63640022278,33.8695335388,-136.753845215,0.00141400005668,1.0,0.0,0.0,0.0,1.0,0.0,0.0,0.0,1.0,-0.243902444839,2.56097555161,-0.853658556938,1.0,0.0,0.0,0.0,1.0,0.0,0.0,0.0,1.0,-0.244208569336,-0.320823022461,10.1370498291,1.0,0.0,0.0,0.0,1.0,0.0,0.0,0.0,1.0
1464117576154994311,246,1464117576147408799,,5.65553283691,33.1248397827,-136.791946411,0.00114399997983,1.0,0.0,0.0,0.0,1.0,0.0,0.0,0.0,1.0,-1.2195122242,1.03658533096,0.609756112099,1.0,0.0,0.0,0.0,1.0,0.0,0.0,0.0,1.0,-0.258573779297,-0.723048901367,10.1945106689,1.0,0.0,0.0,0.0,1.0,0.0,0.0,0.0,1.0
1464117576171031764,247,1464117576167881264,,5.64229822159,32.420917511,-136.792373657,0.0011569999624,1.0,0.0,0.0,0.0,1.0,0.0,0.0,0.0,1.0,-0.609756112099,2.62195134163,0.792682945728,1.0,0.0,0.0,0.0,1.0,0.0,0.0,0.0,1.0,-0.181959326172,-0.569819995117,10.1705686523,1.0,0.0,0.0,0.0,1.0,0.0,0.0,0.0,1.0
1464117576192897808,248,1464117576189273650,,5.64294338226,31.7226715088,-136.813613892,0.00112300005276,1.0,0.0,0.0,0.0,1.0,0.0,0.0,0.0,1.0,0.0609756112099,2.01219511032,-0.853658556938,1.0,0.0,0.0,0.0,1.0,0.0,0.0,0.0,1.0,-0.0430956298828,-0.569819995117,10.419565625,1.0,0.0,0.0,0.0,1.0,0.0,0.0,0.0,1.0
1464117576217031776,249,1464117576210138626,,5.64972734451,31.0299510956,-136.832748413,0.00119500001892,1.0,0.0,0.0,0.0,1.0,0.0,0.0,0.0,1.0,0.487804889679,2.19512200356,0.670731723309,1.0,0.0,0.0,0.0,1.0,0.0,0.0,0.0,1.0,-0.100556469727,-0.493205541992,10.3285859619,1.0,0.0,0.0,0.0,1.0,0.0,0.0,0.0,1.0
1464117576238291554,250,1464117576231373508,,5.6447725296,30.3435840607,-136.836929321,0.00161699997261,1.0,0.0,0.0,0.0,1.0,0.0,0.0,0.0,1.0,-0.304878056049,3.10975623131,0.487804889679,1.0,0.0,0.0,0.0,1.0,0.0,0.0,0.0,1.0,0.354341845703,-0.76614453125,10.165780249,1.0,0.0,0.0,0.0,1.0,0.0,0.0,0.0,1.0
1464117576257006265,251,1464117576252950586,,5.70762205124,29.656879425,-136.764648438,0.00166900001932,1.0,0.0,0.0,0.0,1.0,0.0,0.0,0.0,1.0,0.914634168148,4.02439022064,6.34146356583,1.0,0.0,0.0,0.0,1.0,0.0,0.0,0.0,1.0,-0.138863696289,-0.871489404297,10.8505219238,1.0,0.0,0.0,0.0,1.0,0.0,0.0,0.0,1.0
1464117576279314665,252,1464117576274231927,,5.71469593048,29.0087242126,-136.623123169,0.00137099996209,1.0,0.0,0.0,0.0,1.0,0.0,0.0,0.0,1.0,0.853658556938,5.67073154449,5.91463422775,1.0,0.0,0.0,0.0,1.0,0.0,0.0,0.0,1.0,0.612915625,-0.46447512207,10.3381627686,1.0,0.0,0.0,0.0,1.0,0.0,0.0,0.0,1.0
1464117576298039480,253,1464117576295276907,,5.70559644699,28.376449585,-136.543609619,0.0016309999628,1.0,0.0,0.0,0.0,1.0,0.0,0.0,0.0,1.0,0.914634168148,4.14634132385,0.914634168148,1.0,0.0,0.0,0.0,1.0,0.0,0.0,0.0,1.0,-0.847547387695,-0.670376464844,10.1897222656,1.0,0.0,0.0,0.0,1.0,0.0,0.0,0.0,1.0
1464117576319350510,254,1464117576316634501,,5.72331666946,27.7276268005,-136.586700439,0.00137499999255,1.0,0.0,0.0,0.0,1.0,0.0,0.0,0.0,1.0,0.609756112099,-2.07317066193,-1.52439022064,1.0,0.0,0.0,0.0,1.0,0.0,0.0,0.0,1.0,-0.517147558594,-1.05823706072,10.285490332,1.0,0.0,0.0,0.0,1.0,0.0,0.0,0.0,1.0
1464117576340526431,255,1464117576337596354,,5.65125513077,27.0810031891,-136.72467041,0.00155299995095,1.0,0.0,0.0,0.0,1.0,0.0,0.0,0.0,1.0,0.914634168148,-2.07317066193,-6.15853643417,1.0,0.0,0.0,0.0,1.0,0.0,0.0,0.0,1.0,0.76614453125,-0.531512805087,10.0891657959,1.0,0.0,0.0,0.0,1.0,0.0,0.0,0.0,1.0
1464117576361584746,256,1464117576358723837,,5.66777324677,26.452665329,-136.813766479,0.0010300000431,1.0,0.0,0.0,0.0,1.0,0.0,0.0,0.0,1.0,-2.13414645195,5.97560977936,-1.58536589146,1.0,0.0,0.0,0.0,1.0,0.0,0.0,0.0,1.0,-0.861912597656,-0.339976635742,9.65821008159,1.0,0.0,0.0,0.0,1.0,0.0,0.0,0.0,1.0
1464117576383824133,257,1464117576380254091,,5.76383876801,25.8647556305,-136.735595703,0.00128199998289,1.0,0.0,0.0,0.0,1.0,0.0,0.0,0.0,1.0,-1.15853655338,5.79268312454,5.54878091812,1.0,0.0,0.0,0.0,1.0,0.0,0.0,0.0,1.0,0.0909796630859,0.201112939453,10.3237975586,1.0,0.0,0.0,0.0,1.0,0.0,0.0,0.0,1.0
1464117576404781663,258,1464117576401126150,,5.70680618286,25.3390483856,-136.649963379,0.00109799997881,1.0,0.0,0.0,0.0,1.0,0.0,0.0,0.0,1.0,-0.243902444839,0.365853667259,-0.487804889679,1.0,0.0,0.0,0.0,1.0,0.0,0.0,0.0,1.0,0.287304199219,0.976834277344,10.1753570557,1.0,0.0,0.0,0.0,1.0,0.0,0.0,0.0,1.0
1464117576424274832,259,1464117576421785652,,5.6611123085,24.7452888489,-136.821212769,0.00101600005291,1.0,0.0,0.0,0.0,1.0,0.0,0.0,0.0,1.0,-3.7804877758,-1.95121955872,-7.25609779358,1.0,0.0,0.0,0.0,1.0,0.0,0.0,0.0,1.0,-0.129286889648,-1.1540052002,10.1753570557,1.0,0.0,0.0,0.0,1.0,0.0,0.0,0.0,1.0
1464117576444744590,260,1464117576442351245,,5.65790176392,24.157365799,-136.97857666,0.0011569999624,1.0,0.0,0.0,0.0,1.0,0.0,0.0,0.0,1.0,-1.46341466904,0.365853667259,-3.41463422775,1.0,0.0,0.0,0.0,1.0,0.0,0.0,0.0,1.0,-0.531512805087,-1.01992990723,10.5584293213,1.0,0.0,0.0,0.0,1.0,0.0,0.0,0.0,1.0
1464117576466445160,261,1464117576463721391,,5.67013168335,23.6071376801,-137.005371094,0.00101000000723,1.0,0.0,0.0,0.0,1.0,0.0,0.0,0.0,1.0,0.670731723309,2.19512200356,2.37804889679,1.0,0.0,0.0,0.0,1.0,0.0,0.0,0.0,1.0,-0.359130249023,-0.426167895508,10.3477395752,1.0,0.0,0.0,0.0,1.0,0.0,0.0,0.0,1.0
1464117576488258182,262,1464117576484906479,,5.64257049561,23.0865077972,-136.992523193,0.0010379999876,1.0,0.0,0.0,0.0,1.0,0.0,0.0,0.0,1.0,-0.12195122242,2.37804889679,0.365853667259,1.0,0.0,0.0,0.0,1.0,0.0,0.0,0.0,1.0,-0.100556469727,-0.330399829102,10.180145459,1.0,0.0,0.0,0.0,1.0,0.0,0.0,0.0,1.0
1464117576509126387,263,1464117576506254697,,5.64219093323,22.5266704559,-137.020278931,0.000999000039883,1.0,0.0,0.0,0.0,1.0,0.0,0.0,0.0,1.0,-0.853658556938,1.95121955872,0.0,1.0,0.0,0.0,0.0,1.0,0.0,0.0,0.0,1.0,-0.292092584273,-0.751779321289,10.3812583984,1.0,0.0,0.0,0.0,1.0,0.0,0.0,0.0,1.0
1464117576533186343,264,1464117576527288272,,5.66173601151,21.9835910797,-136.975967407,0.00105199997779,1.0,0.0,0.0,0.0,1.0,0.0,0.0,0.0,1.0,-2.13414645195,10.0,2.68292689323,1.0,0.0,0.0,0.0,1.0,0.0,0.0,0.0,1.0,-0.526724328702,0.110133276367,9.7587659668,1.0,0.0,0.0,0.0,1.0,0.0,0.0,0.0,1.0
1464117576555367864,265,1464117576548476381,,5.73782157898,21.4874286652,-136.818878174,0.00108099996578,1.0,0.0,0.0,0.0,1.0,0.0,0.0,0.0,1.0,-2.13414645195,6.28048801422,8.17073154449,1.0,0.0,0.0,0.0,1.0,0.0,0.0,0.0,1.0,-0.469263525391,-0.694318481445,10.4961800781,1.0,0.0,0.0,0.0,1.0,0.0,0.0,0.0,1.0
1464117576574593214,266,1464117576569664022,,5.7339425087,21.0110759735,-136.699111938,0.00118499994278,1.0,0.0,0.0,0.0,1.0,0.0,0.0,0.0,1.0,-0.548780500889,2.92682933807,1.95121955872,1.0,0.0,0.0,0.0,1.0,0.0,0.0,0.0,1.0,0.474051928711,-0.344765039063,10.2471831055,1.0,0.0,0.0,0.0,1.0,0.0,0.0,0.0,1.0
1464117576594599053,267,1464117576590091590,,5.7385058403,20.5219097137,-136.725784302,0.00132899999153,1.0,0.0,0.0,0.0,1.0,0.0,0.0,0.0,1.0,-0.18292683363,1.34146344662,-1.70731711388,1.0,0.0,0.0,0.0,1.0,0.0,0.0,0.0,1.0,-0.521935925381,-0.675164868164,10.2902787354,1.0,0.0,0.0,0.0,1.0,0.0,0.0,0.0,1.0
1464117576614805782,268,1464117576610811771,,5.74684095383,20.0145549774,-136.740600586,0.0014380000066,1.0,0.0,0.0,0.0,1.0,0.0,0.0,0.0,1.0,-0.792682945728,2.98780488968,1.2195122242,1.0,0.0,0.0,0.0,1.0,0.0,0.0,0.0,1.0,-0.15322890625,-0.636857641602,10.1466266357,1.0,0.0,0.0,0.0,1.0,0.0,0.0,0.0,1.0
1464117576634278586,269,1464117576631414032,,5.75058460236,19.5532779694,-136.735931396,0.00167400005739,1.0,0.0,0.0,0.0,1.0,0.0,0.0,0.0,1.0,-0.0609756112099,1.46341466904,-0.365853667259,1.0,0.0,0.0,0.0,1.0,0.0,0.0,0.0,1.0,-0.526724328702,-0.330399829102,10.4291424316,1.0,0.0,0.0,0.0,1.0,0.0,0.0,0.0,1.0
1464117576656083379,270,1464117576653218043,,5.68668031693,19.0709705353,-136.868881226,0.00144499994349,1.0,0.0,0.0,0.0,1.0,0.0,0.0,0.0,1.0,1.52439022064,-3.84146332741,-6.46341466904,1.0,0.0,0.0,0.0,1.0,0.0,0.0,0.0,1.0,-0.143652099609,-1.01514150391,10.2088758789,1.0,0.0,0.0,0.0,1.0,0.0,0.0,0.0,1.0
1464117576680408706,271,1464117576674031403,,5.6217045784,18.5956096649,-137.035552979,0.00158899999224,1.0,0.0,0.0,0.0,1.0,0.0,0.0,0.0,1.0,2.68292689323,-0.243902444839,-5.60975599289,1.0,0.0,0.0,0.0,1.0,0.0,0.0,0.0,1.0,-0.239420166016,-0.31124621582,9.84016882324,1.0,0.0,0.0,0.0,1.0,0.0,0.0,0.0,1.0
1464117576697758850,272,1464117576695380975,,5.65397834778,18.1464385986,-137.119613647,0.00121300003957,1.0,0.0,0.0,0.0,1.0,0.0,0.0,0.0,1.0,-0.853658556938,-0.12195122242,-1.2195122242,1.0,0.0,0.0,0.0,1.0,0.0,0.0,0.0,1.0,-0.292092584273,-0.191536132812,10.0700121826,1.0,0.0,0.0,0.0,1.0,0.0,0.0,0.0,1.0
1464117576718896333,273,1464117576715693124,,5.61730098724,17.7173843384,-137.117431641,0.00145800004248,1.0,0.0,0.0,0.0,1.0,0.0,0.0,0.0,1.0,-1.64634156227,5.42682933807,2.37804889679,1.0,0.0,0.0,0.0,1.0,0.0,0.0,0.0,1.0,0.531512805087,-0.550666381836,9.89284125977,1.0,0.0,0.0,0.0,1.0,0.0,0.0,0.0,1.0
1464117576739197284,274,1464117576736226841,,5.72361755371,17.3055515289,-136.999526978,0.00137600000016,1.0,0.0,0.0,0.0,1.0,0.0,0.0,0.0,1.0,2.37804889679,8.71951198578,7.62195110321,1.0,0.0,0.0,0.0,1.0,0.0,0.0,0.0,1.0,-1.67115275879,-1.19710090314,9.92157167969,1.0,0.0,0.0,0.0,1.0,0.0,0.0,0.0,1.0
1464117576760099657,275,1464117576757580684,,5.710916996,16.9068870544,-136.847488403,0.00112399994396,1.0,0.0,0.0,0.0,1.0,0.0,0.0,0.0,1.0,3.04878044128,-0.670731723309,1.03658533096,1.0,0.0,0.0,0.0,1.0,0.0,0.0,0.0,1.0,2.32237546422,-0.181959326172,10.7356002441,1.0,0.0,0.0,0.0,1.0,0.0,0.0,0.0,1.0
1464117576781152242,276,1464117576778678427,,5.62467384338,16.502363205,-136.948440552,0.00105600000825,1.0,0.0,0.0,0.0,1.0,0.0,0.0,0.0,1.0,0.0609756112099,-0.731707334518,-7.43902492523,1.0,0.0,0.0,0.0,1.0,0.0,0.0,0.0,1.0,0.368707055664,-0.282515795898,9.7348239502,1.0,0.0,0.0,0.0,1.0,0.0,0.0,0.0,1.0
1464117576803622156,277,1464117576800026957,,5.66429376602,16.0293827057,-137.089294434,0.00106200005393,1.0,0.0,0.0,0.0,1.0,0.0,0.0,0.0,1.0,-3.84146332741,2.31707310677,-3.35365867615,1.0,0.0,0.0,0.0,1.0,0.0,0.0,0.0,1.0,-0.507570751953,-0.679953271484,9.61990285503,1.0,0.0,0.0,0.0,1.0,0.0,0.0,0.0,1.0
1464117576824753962,278,1464117576820805577,,5.75202178955,15.6328449249,-136.998840332,0.00115300004836,1.0,0.0,0.0,0.0,1.0,0.0,0.0,0.0,1.0,-5.12195110321,8.41463470459,7.56097555161,1.0,0.0,0.0,0.0,1.0,0.0,0.0,0.0,1.0,-0.756567724609,-0.502782348633,10.1370498291,1.0,0.0,0.0,0.0,1.0,0.0,0.0,0.0,1.0
1464117576852763501,279,1464117576842017124,,5.76153755188,15.2810707092,-136.822311401,0.00184299994726,1.0,0.0,0.0,0.0,1.0,0.0,0.0,0.0,1.0,-3.41463422775,6.28048801422,5.54878091812,1.0,0.0,0.0,0.0,1.0,0.0,0.0,0.0,1.0,0.0191536132812,-0.0957680664062,10.1992990723,1.0,0.0,0.0,0.0,1.0,0.0,0.0,0.0,1.0
1464117576864777567,280,1464117576862325888,,5.76889896393,14.9071655273,-136.829116821,0.00110100000165,1.0,0.0,0.0,0.0,1.0,0.0,0.0,0.0,1.0,-1.34146344662,1.40243899822,-2.56097555161,1.0,0.0,0.0,0.0,1.0,0.0,0.0,0.0,1.0,-0.296881024126,-0.876277807617,10.2088758789,1.0,0.0,0.0,0.0,1.0,0.0,0.0,0.0,1.0
1464117576886331050,281,1464117576883143102,,5.7446808815,14.5010480881,-136.889953613,0.00107500003651,1.0,0.0,0.0,0.0,1.0,0.0,0.0,0.0,1.0,-0.12195122242,0.0,-1.58536589146,1.0,0.0,0.0,0.0,1.0,0.0,0.0,0.0,1.0,-0.560243188477,-0.632069238281,9.73003554687,1.0,0.0,0.0,0.0,1.0,0.0,0.0,0.0,1.0
1464117576910802996,282,1464117576904060006,,5.63944625854,14.0962762833,-137.006469727,0.00094200001331,1.0,0.0,0.0,0.0,1.0,0.0,0.0,0.0,1.0,-2.62195134163,1.40243899822,-4.32926845551,1.0,0.0,0.0,0.0,1.0,0.0,0.0,0.0,1.0,0.263362164351,-0.905008227539,10.0843773926,1.0,0.0,0.0,0.0,1.0,0.0,0.0,0.0,1.0
1464117576930817117,283,1464117576924709612,,5.69202709198,13.7218551636,-137.068939209,0.00101100001484,1.0,0.0,0.0,0.0,1.0,0.0,0.0,0.0,1.0,-3.29268312454,4.08536577225,-0.731707334518,1.0,0.0,0.0,0.0,1.0,0.0,0.0,0.0,1.0,0.00957680664062,-0.679953271484,11.511321582,1.0,0.0,0.0,0.0,1.0,0.0,0.0,0.0,1.0
1464117576949222236,284,1464117576946060903,,5.72082138062,13.3920679092,-136.968322754,0.000965000013821,1.0,0.0,0.0,0.0,1.0,0.0,0.0,0.0,1.0,-4.14634132385,5.36585378647,6.89024400711,1.0,0.0,0.0,0.0,1.0,0.0,0.0,0.0,1.0,-0.517147558594,-0.229843359375,9.88326445312,1.0,0.0,0.0,0.0,1.0,0.0,0.0,0.0,1.0
1464117576972568007,285,1464117576966661289,,5.68209314346,13.1083850861,-136.882080078,0.00100100005511,1.0,0.0,0.0,0.0,1.0,0.0,0.0,0.0,1.0,-3.71951246262,4.14634132385,0.12195122242,1.0,0.0,0.0,0.0,1.0,0.0,0.0,0.0,1.0,0.440533105469,-0.0622492431641,10.2471831055,1.0,0.0,0.0,0.0,1.0,0.0,0.0,0.0,1.0
1464117576992269410,286,1464117576989722416,,5.72041320801,12.7302942276,-136.923965454,0.0019570000004,1.0,0.0,0.0,0.0,1.0,0.0,0.0,0.0,1.0,-0.12195122242,0.18292683363,0.243902444839,1.0,0.0,0.0,0.0,1.0,0.0,0.0,0.0,1.0,-0.359130249023,-0.967257470703,10.5823713379,1.0,0.0,0.0,0.0,1.0,0.0,0.0,0.0,1.0
1464117577016668959,287,1464117577013062301,,5.70631217957,12.3471755981,-136.895462036,0.00380500010215,1.0,0.0,0.0,0.0,1.0,0.0,0.0,0.0,1.0,1.34146344662,3.59756112099,1.40243899822,1.0,0.0,0.0,0.0,1.0,0.0,0.0,0.0,1.0,-0.229843359375,-0.411802685547,10.0125513428,1.0,0.0,0.0,0.0,1.0,0.0,0.0,0.0,1.0
1464117577039503257,288,1464117577034294631,,5.70939588547,12.0348672867,-136.921875,0.00155399995856,1.0,0.0,0.0,0.0,1.0,0.0,0.0,0.0,1.0,0.304878056049,-1.03658533096,-2.5,1.0,0.0,0.0,0.0,1.0,0.0,0.0,0.0,1.0,-0.268150604204,-0.234631762695,10.2328178955,1.0,0.0,0.0,0.0,1.0,0.0,0.0,0.0,1.0
1464117577060819964,289,1464117577055425291,,5.61620521545,11.6915655136,-137.040374756,0.00263500004075,1.0,0.0,0.0,0.0,1.0,0.0,0.0,0.0,1.0,0.426829278469,-3.71951246262,-5.48780488968,1.0,0.0,0.0,0.0,1.0,0.0,0.0,0.0,1.0,0.373495458984,-1.12527478027,10.2902787354,1.0,0.0,0.0,0.0,1.0,0.0,0.0,0.0,1.0
1464117577081087372,290,1464117577077344826,,5.5540933609,11.3588123322,-137.173156738,0.00542399985716,1.0,0.0,0.0,0.0,1.0,0.0,0.0,0.0,1.0,0.853658556938,0.487804889679,-5.36585378647,1.0,0.0,0.0,0.0,1.0,0.0,0.0,0.0,1.0,-0.0718260498047,-0.191536132812,9.94551369629,1.0,0.0,0.0,0.0,1.0,0.0,0.0,0.0,1.0
1464117577102005214,291,1464117577097899793,,5.55711269379,11.0528297424,-137.250366211,0.00111800001469,1.0,0.0,0.0,0.0,1.0,0.0,0.0,0.0,1.0,-1.09756100178,-0.304878056049,-1.76829278469,1.0,0.0,0.0,0.0,1.0,0.0,0.0,0.0,1.0,-0.0143652099609,-0.186747729492,10.0364933594,1.0,0.0,0.0,0.0,1.0,0.0,0.0,0.0,1.0
1464117577121696722,292,1464117577119082694,,5.54661417007,10.7501134872,-137.234298706,0.0010529999854,1.0,0.0,0.0,0.0,1.0,0.0,0.0,0.0,1.0,-3.10975623131,7.13414621353,3.47560977936,1.0,0.0,0.0,0.0,1.0,0.0,0.0,0.0,1.0,-0.588973571866,0.31124621582,10.0891657959,1.0,0.0,0.0,0.0,1.0,0.0,0.0,0.0,1.0
1464117577142333983,293,1464117577140121113,,5.67086219788,10.4909572601,-137.104278564,0.00112499995157,1.0,0.0,0.0,0.0,1.0,0.0,0.0,0.0,1.0,-1.09756100178,5.12195110321,6.82926845551,1.0,0.0,0.0,0.0,1.0,0.0,0.0,0.0,1.0,0.129286889648,0.124498486328,10.4004120117,1.0,0.0,0.0,0.0,1.0,0.0,0.0,0.0,1.0
1464117577163682774,294,1464117577161211928,,5.67177534103,10.2363901138,-136.958099365,0.0010300000431,1.0,0.0,0.0,0.0,1.0,0.0,0.0,0.0,1.0,-1.8292683363,8.41463470459,3.84146332741,1.0,0.0,0.0,0.0,1.0,0.0,0.0,0.0,1.0,-0.138863696289,0.248996972656,9.41400034321,1.0,0.0,0.0,0.0,1.0,0.0,0.0,0.0,1.0
1464117577189009013,295,1464117577182416288,,5.70325756073,9.94244003296,-136.964187622,0.000992999994196,1.0,0.0,0.0,0.0,1.0,0.0,0.0,0.0,1.0,-3.23170733452,1.76829278469,-2.31707310677,1.0,0.0,0.0,0.0,1.0,0.0,0.0,0.0,1.0,-0.493205541992,-0.569819995117,10.299855542,1.0,0.0,0.0,0.0,1.0,0.0,0.0,0.0,1.0
1464117577209988628,296,1464117577203718775,,5.67538118362,9.63577747345,-137.003616333,0.000982000026852,1.0,0.0,0.0,0.0,1.0,0.0,0.0,0.0,1.0,-1.09756100178,-0.792682945728,-1.15853655338,1.0,0.0,0.0,0.0,1.0,0.0,0.0,0.0,1.0,-0.0526724365234,-0.804451757813,9.95987890625,1.0,0.0,0.0,0.0,1.0,0.0,0.0,0.0,1.0
1464117577235737013,297,1464117577224754902,,5.54775619507,9.33002948761,-137.111480713,0.00101799995173,1.0,0.0,0.0,0.0,1.0,0.0,0.0,0.0,1.0,-2.43902444839,2.25609779358,-3.90243911743,1.0,0.0,0.0,0.0,1.0,0.0,0.0,0.0,1.0,0.162805712891,-0.857124194336,10.2280294922,1.0,0.0,0.0,0.0,1.0,0.0,0.0,0.0,1.0
1464117577249663942,298,1464117577245989158,,5.62582015991,9.05477333069,-137.166809082,0.00114099995699,1.0,0.0,0.0,0.0,1.0,0.0,0.0,0.0,1.0,-2.31707310677,6.52439069748,-0.548780500889,1.0,0.0,0.0,0.0,1.0,0.0,0.0,0.0,1.0,0.110133276367,-1.06781401349,10.8936175537,1.0,0.0,0.0,0.0,1.0,0.0,0.0,0.0,1.0
1464117577273305398,299,1464117577268484021,,5.7162694931,8.82638454437,-137.056167603,0.00104700005613,1.0,0.0,0.0,0.0,1.0,0.0,0.0,0.0,1.0,-3.41463422775,4.63414621353,6.28048801422,1.0,0.0,0.0,0.0,1.0,0.0,0.0,0.0,1.0,-0.15801730957,-0.143652099609,10.2711251221,1.0,0.0,0.0,0.0,1.0,0.0,0.0,0.0,1.0
1464117577298179542,300,1464117577288296729,,5.53496932983,8.6560049057,-137.04927063,0.000992999994196,1.0,0.0,0.0,0.0,1.0,0.0,0.0,0.0,1.0,-0.731707334518,-1.70731711388,-3.96341490746,1.0,0.0,0.0,0.0,1.0,0.0,0.0,0.0,1.0,-0.349553442383,-0.641646044922,10.5967365479,1.0,0.0,0.0,0.0,1.0,0.0,0.0,0.0,1.0
1464117577312722007,301,1464117577310339236,,5.46534013748,8.36148071289,-137.247192383,0.00133999995887,1.0,0.0,0.0,0.0,1.0,0.0,0.0,0.0,1.0,2.86585378647,-0.487804889679,-6.82926845551,1.0,0.0,0.0,0.0,1.0,0.0,0.0,0.0,1.0,0.0335188255255,-0.61770402832,10.3573163818,1.0,0.0,0.0,0.0,1.0,0.0,0.0,0.0,1.0
1464117577340398204,302,1464117577334990041,,5.58249092102,8.07039928436,-137.233901978,0.00458899978548,1.0,0.0,0.0,0.0,1.0,0.0,0.0,0.0,1.0,3.65853667259,4.32926845551,5.0,1.0,0.0,0.0,0.0,1.0,0.0,0.0,0.0,1.0,-0.675164868164,-0.426167895508,10.3860468018,1.0,0.0,0.0,0.0,1.0,0.0,0.0,0.0,1.0
1464117577359175157,303,1464117577355636782,,5.63077735901,7.85567569733,-137.073532104,0.001304000034,1.0,0.0,0.0,0.0,1.0,0.0,0.0,0.0,1.0,1.52439022064,7.07317113876,7.98780536652,1.0,0.0,0.0,0.0,1.0,0.0,0.0,0.0,1.0,-0.172382519531,-0.00478840332031,9.71567033691,1.0,0.0,0.0,0.0,1.0,0.0,0.0,0.0,1.0
1464117577379439127,304,1464117577376371494,,5.68479156494,7.58961772919,-137.019012451,0.00233999988995,1.0,0.0,0.0,0.0,1.0,0.0,0.0,0.0,1.0,0.0609756112099,1.95121955872,0.487804889679,1.0,0.0,0.0,0.0,1.0,0.0,0.0,0.0,1.0,-0.244208569336,-0.526724328702,10.4674496582,1.0,0.0,0.0,0.0,1.0,0.0,0.0,0.0,1.0
1464117577402201341,305,1464117577397542624,,5.66965103149,7.32566452026,-137.043777466,0.000982000026852,1.0,0.0,0.0,0.0,1.0,0.0,0.0,0.0,1.0,-0.548780500889,1.8902438879,0.12195122242,1.0,0.0,0.0,0.0,1.0,0.0,0.0,0.0,1.0,-0.0478840332031,-0.814028564453,10.1562034424,1.0,0.0,0.0,0.0,1.0,0.0,0.0,0.0,1.0
1464117577424541251,306,1464117577420730109,,5.68861913681,7.08415317535,-137.033905029,0.00189199997112,1.0,0.0,0.0,0.0,1.0,0.0,0.0,0.0,1.0,-0.975609779358,2.56097555161,0.365853667259,1.0,0.0,0.0,0.0,1.0,0.0,0.0,0.0,1.0,-0.272938989258,-0.392649072266,10.4530844482,1.0,0.0,0.0,0.0,1.0,0.0,0.0,0.0,1.0
1464117577444854077,307,1464117577441683265,,5.67781352997,6.84496164322,-137.058746338,0.00489499978721,1.0,0.0,0.0,0.0,1.0,0.0,0.0,0.0,1.0,-0.975609779358,2.07317066193,-1.46341466904,1.0,0.0,0.0,0.0,1.0,0.0,0.0,0.0,1.0,-0.196324536133,-0.603338854892,10.1562034424,1.0,0.0,0.0,0.0,1.0,0.0,0.0,0.0,1.0
1464117577466689964,308,1464117577462698401,,5.69447660446,6.62625980377,-137.068939209,0.00110800005496,1.0,0.0,0.0,0.0,1.0,0.0,0.0,0.0,1.0,-0.304878056049,2.31707310677,0.670731723309,1.0,0.0,0.0,0.0,1.0,0.0,0.0,0.0,1.0,-0.373495458984,-0.488417138672,10.2519715088,1.0,0.0,0.0,0.0,1.0,0.0,0.0,0.0,1.0
1464117577486799660,309,1464117577483341392,,5.68634653091,6.42807292938,-137.060928345,0.00102800002787,1.0,0.0,0.0,0.0,1.0,0.0,0.0,0.0,1.0,0.0,1.58536589146,0.365853667259,1.0,0.0,0.0,0.0,1.0,0.0,0.0,0.0,1.0,0.00478840332031,-0.483628735352,10.2711251221,1.0,0.0,0.0,0.0,1.0,0.0,0.0,0.0,1.0
1464117577507631666,310,1464117577504674245,,5.68416309357,6.21182060242,-137.072250366,0.000958000018727,1.0,0.0,0.0,0.0,1.0,0.0,0.0,0.0,1.0,-0.12195122242,2.62195134163,0.0,1.0,0.0,0.0,0.0,1.0,0.0,0.0,0.0,1.0,-0.383072265625,-0.588973571866,10.2376062988,1.0,0.0,0.0,0.0,1.0,0.0,0.0,0.0,1.0
1464117577531972203,311,1464117577525656932,,5.65379953384,6.01702737808,-137.111129761,0.000973000016529,1.0,0.0,0.0,0.0,1.0,0.0,0.0,0.0,1.0,0.0609756112099,-2.98780488968,-4.08536577225,1.0,0.0,0.0,0.0,1.0,0.0,0.0,0.0,1.0,-0.330399829102,-0.325611425781,10.6685625977,1.0,0.0,0.0,0.0,1.0,0.0,0.0,0.0,1.0
1464117577552726811,312,1464117577547778295,,5.53938293457,5.78860998154,-137.233795166,0.00124999997206,1.0,0.0,0.0,0.0,1.0,0.0,0.0,0.0,1.0,-1.70731711388,0.792682945728,-4.51219558716,1.0,0.0,0.0,0.0,1.0,0.0,0.0,0.0,1.0,-0.0143652099609,-0.593762048251,10.1418382324,1.0,0.0,0.0,0.0,1.0,0.0,0.0,0.0,1.0
1464117577585770649,313,1464117577575581579,,5.52349805832,5.55854845047,-137.357635498,0.00834699999541,1.0,0.0,0.0,0.0,1.0,0.0,0.0,0.0,1.0,0.914634168148,-1.46341466904,-2.13414645195,1.0,0.0,0.0,0.0,1.0,0.0,0.0,0.0,1.0,-0.138863696289,-0.15801730957,9.97903251953,1.0,0.0,0.0,0.0,1.0,0.0,0.0,0.0,1.0
1464117577601332361,314,1464117577596488014,,5.49811792374,5.38109779358,-137.349639893,0.00112000002991,1.0,0.0,0.0,0.0,1.0,0.0,0.0,0.0,1.0,-1.52439022064,2.74390244484,0.853658556938,1.0,0.0,0.0,0.0,1.0,0.0,0.0,0.0,1.0,0.435744702148,-0.225054956055,9.98860932617,1.0,0.0,0.0,0.0,1.0,0.0,0.0,0.0,1.0
1464117577621422889,315,1464117577617008606,,5.51308584213,5.21573591232,-137.356369019,0.000983000034466,1.0,0.0,0.0,0.0,1.0,0.0,0.0,0.0,1.0,-1.76829278469,1.8292683363,-0.731707334518,1.0,0.0,0.0,0.0,1.0,0.0,0.0,0.0,1.0,-0.0622492431641,-0.612915625,10.4243540283,1.0,0.0,0.0,0.0,1.0,0.0,0.0,0.0,1.0
1464117577641694777,316,1464117577638071244,,5.49967622757,5.01430368423,-137.339050293,0.00103599997237,1.0,0.0,0.0,0.0,1.0,0.0,0.0,0.0,1.0,-1.15853655338,6.52439069748,2.19512200356,1.0,0.0,0.0,0.0,1.0,0.0,0.0,0.0,1.0,-0.143652099609,-1.24019645996,10.0364933594,1.0,0.0,0.0,0.0,1.0,0.0,0.0,0.0,1.0
1464117577663306699,317,1464117577658833144,,5.62560510635,4.82222938538,-137.228164673,0.000987999956124,1.0,0.0,0.0,0.0,1.0,0.0,0.0,0.0,1.0,0.609756112099,7.07317113876,6.89024400711,1.0,0.0,0.0,0.0,1.0,0.0,0.0,0.0,1.0,-0.756567724609,-0.574608398438,10.299855542,1.0,0.0,0.0,0.0,1.0,0.0,0.0,0.0,1.0
1464117577682911798,318,1464117577679998284,,5.65633487701,4.69709300995,-137.089538574,0.00127200002316,1.0,0.0,0.0,0.0,1.0,0.0,0.0,0.0,1.0,-0.609756112099,-0.548780500889,1.58536589146,1.0,0.0,0.0,0.0,1.0,0.0,0.0,0.0,1.0,0.335188232422,0.392649072266,9.47146118306,1.0,0.0,0.0,0.0,1.0,0.0,0.0,0.0,1.0
1464117577703725419,319,1464117577701105558,,5.53165149689,4.52090740204,-137.217468262,0.00110300001688,1.0,0.0,0.0,0.0,1.0,0.0,0.0,0.0,1.0,-4.08536577225,1.46341466904,-6.89024400711,1.0,0.0,0.0,0.0,1.0,0.0,0.0,0.0,1.0,0.196324536133,-0.349553442383,10.1226846191,1.0,0.0,0.0,0.0,1.0,0.0,0.0,0.0,1.0
1464117577726130279,320,1464117577722500184,,5.55023002625,4.31616926193,-137.369796753,0.00120199995581,1.0,0.0,0.0,0.0,1.0,0.0,0.0,0.0,1.0,-2.13414645195,-1.95121955872,-4.69512224197,1.0,0.0,0.0,0.0,1.0,0.0,0.0,0.0,1.0,-0.900219824219,-0.885854614258,10.4961800781,1.0,0.0,0.0,0.0,1.0,0.0,0.0,0.0,1.0
1464117577746391958,321,1464117577743775118,,5.50798177719,4.14884328842,-137.425506592,0.0010300000431,1.0,0.0,0.0,0.0,1.0,0.0,0.0,0.0,1.0,0.426829278469,0.731707334518,0.0609756112099,1.0,0.0,0.0,0.0,1.0,0.0,0.0,0.0,1.0,-0.0287304199219,-0.651222851562,10.5440641113,1.0,0.0,0.0,0.0,1.0,0.0,0.0,0.0,1.0
1464117577766964687,322,1464117577764425505,,5.48425579071,4.00988435745,-137.393707275,0.00106399995275,1.0,0.0,0.0,0.0,1.0,0.0,0.0,0.0,1.0,0.487804889679,3.29268312454,1.15853655338,1.0,0.0,0.0,0.0,1.0,0.0,0.0,0.0,1.0,-0.430956298828,-0.186747729492,9.99818613281,1.0,0.0,0.0,0.0,1.0,0.0,0.0,0.0,1.0
1464117577788641403,323,1464117577785052819,,5.48326158524,3.84636926651,-137.427062988,0.00101999996696,1.0,0.0,0.0,0.0,1.0,0.0,0.0,0.0,1.0,-0.18292683363,0.670731723309,-0.365853667259,1.0,0.0,0.0,0.0,1.0,0.0,0.0,0.0,1.0,-0.0814028564453,-0.60812722168,10.2184526855,1.0,0.0,0.0,0.0,1.0,0.0,0.0,0.0,1.0
1464117577808980375,324,1464117577806255147,,5.48446464539,3.66469693184,-137.395462036,0.00104999996256,1.0,0.0,0.0,0.0,1.0,0.0,0.0,0.0,1.0,-2.37804889679,10.2439022064,3.10975623131,1.0,0.0,0.0,0.0,1.0,0.0,0.0,0.0,1.0,0.220266552734,-1.10612116699,10.8361567139,1.0,0.0,0.0,0.0,1.0,0.0,0.0,0.0,1.0
1464117577831433883,325,1464117577826617298,,5.61980247498,3.54431724548,-137.251907349,0.00102199998219,1.0,0.0,0.0,0.0,1.0,0.0,0.0,0.0,1.0,-3.90243911743,6.70731735229,7.92682981491,1.0,0.0,0.0,0.0,1.0,0.0,0.0,0.0,1.0,-0.857124194336,-0.392649072266,10.0700121826,1.0,0.0,0.0,0.0,1.0,0.0,0.0,0.0,1.0
1464117577852858926,326,1464117577848207032,,5.65454530716,3.425604105,-137.12902832,0.0010379999876,1.0,0.0,0.0,0.0,1.0,0.0,0.0,0.0,1.0,-1.64634156227,4.69512224197,3.47560977936,1.0,0.0,0.0,0.0,1.0,0.0,0.0,0.0,1.0,0.483628735352,-0.373495458984,10.539275708,1.0,0.0,0.0,0.0,1.0,0.0,0.0,0.0,1.0
1464117577874829660,327,1464117577869794111,,5.67392539978,3.28106212616,-137.141571045,0.00128500000574,1.0,0.0,0.0,0.0,1.0,0.0,0.0,0.0,1.0,0.548780500889,0.670731723309,-1.52439022064,1.0,0.0,0.0,0.0,1.0,0.0,0.0,0.0,1.0,-0.76135612793,-0.708683691406,10.5009684814,1.0,0.0,0.0,0.0,1.0,0.0,0.0,0.0,1.0
1464117577897460099,328,1464117577892219909,,5.53762769699,3.07779622078,-137.23890686,0.00339199998416,1.0,0.0,0.0,0.0,1.0,0.0,0.0,0.0,1.0,1.58536589146,-3.47560977936,-3.65853667259,1.0,0.0,0.0,0.0,1.0,0.0,0.0,0.0,1.0,-0.00478840332031,-1.28329208984,10.285490332,1.0,0.0,0.0,0.0,1.0,0.0,0.0,0.0,1.0
1464117577915717819,329,1464117577913410310,,5.43492746353,2.92537045479,-137.36088562,0.00139800005127,1.0,0.0,0.0,0.0,1.0,0.0,0.0,0.0,1.0,2.68292689323,3.53658556938,-4.14634132385,1.0,0.0,0.0,0.0,1.0,0.0,0.0,0.0,1.0,0.0478840332031,-0.46447512207,10.0652237793,1.0,0.0,0.0,0.0,1.0,0.0,0.0,0.0,1.0
1464117577936424457,330,1464117577934075229,,5.55644035339,2.77562952042,-137.354507446,0.00167400005739,1.0,0.0,0.0,0.0,1.0,0.0,0.0,0.0,1.0,3.71951246262,6.52439069748,6.0365858078,1.0,0.0,0.0,0.0,1.0,0.0,0.0,0.0,1.0,-1.24498486328,-0.483628735352,10.4818148682,1.0,0.0,0.0,0.0,1.0,0.0,0.0,0.0,1.0
1464117577958034557,331,1464117577954732751,,5.62980937958,2.68829989433,-137.216445923,0.00132499996107,1.0,0.0,0.0,0.0,1.0,0.0,0.0,0.0,1.0,3.23170733452,-2.37804889679,6.95121955872,1.0,0.0,0.0,0.0,1.0,0.0,0.0,0.0,1.0,1.24019645996,-0.497993945312,9.94072529297,1.0,0.0,0.0,0.0,1.0,0.0,0.0,0.0,1.0
1464117577978535461,332,1464117577975425431,,5.50823068619,2.62193512917,-137.265228271,0.00133999995887,1.0,0.0,0.0,0.0,1.0,0.0,0.0,0.0,1.0,1.03658533096,-1.34146344662,-8.35365867615,1.0,0.0,0.0,0.0,1.0,0.0,0.0,0.0,1.0,0.134075302102,-0.301669427446,10.0795889893,1.0,0.0,0.0,0.0,1.0,0.0,0.0,0.0,1.0
1464117577999673153,333,1464117577996767086,,5.47535896301,2.42133808136,-137.426971436,0.0010300000431,1.0,0.0,0.0,0.0,1.0,0.0,0.0,0.0,1.0,-2.74390244484,2.92682933807,-3.71951246262,1.0,0.0,0.0,0.0,1.0,0.0,0.0,0.0,1.0,-1.23061965332,-1.01035310059,9.39484672993,1.0,0.0,0.0,0.0,1.0,0.0,0.0,0.0,1.0
1464117578020980223,334,1464117578018173587,,5.57875442505,2.30292201042,-137.36541748,0.00102399999741,1.0,0.0,0.0,0.0,1.0,0.0,0.0,0.0,1.0,-0.548780500889,7.19512224197,5.79268312454,1.0,0.0,0.0,0.0,1.0,0.0,0.0,0.0,1.0,0.272938989258,-0.0909796630859,10.2376062988,1.0,0.0,0.0,0.0,1.0,0.0,0.0,0.0,1.0
1464117578041546962,335,1464117578038913456,,5.56972789764,2.21305012703,-137.191711426,0.000968999986071,1.0,0.0,0.0,0.0,1.0,0.0,0.0,0.0,1.0,-1.03658533096,5.42682933807,5.48780488968,1.0,0.0,0.0,0.0,1.0,0.0,0.0,0.0,1.0,-0.0430956298828,0.569819995117,8.96867941895,1.0,0.0,0.0,0.0,1.0,0.0,0.0,0.0,1.0
1464117578068533297,336,1464117578059885622,,5.40623617172,2.08635997772,-137.292373657,0.0011569999624,1.0,0.0,0.0,0.0,1.0,0.0,0.0,0.0,1.0,-3.10975623131,1.15853655338,-8.29268264771,1.0,0.0,0.0,0.0,1.0,0.0,0.0,0.0,1.0,0.411802685547,-0.598550451572,10.2471831055,1.0,0.0,0.0,0.0,1.0,0.0,0.0,0.0,1.0
1464117578084523406,337,1464117578080620334,,5.44273138046,1.91613864899,-137.418258667,0.00136300001759,1.0,0.0,0.0,0.0,1.0,0.0,0.0,0.0,1.0,-2.13414645195,0.853658556938,-1.8292683363,1.0,0.0,0.0,0.0,1.0,0.0,0.0,0.0,1.0,-1.14921679688,-1.20667770978,10.2328178955,1.0,0.0,0.0,0.0,1.0,0.0,0.0,0.0,1.0
1464117578104132828,338,1464117578101518749,,5.47783708572,1.78560292721,-137.401626587,0.00121799996123,1.0,0.0,0.0,0.0,1.0,0.0,0.0,0.0,1.0,1.2804877758,3.71951246262,2.86585378647,1.0,0.0,0.0,0.0,1.0,0.0,0.0,0.0,1.0,-0.857124194336,-1.06781401349,10.5105452881,1.0,0.0,0.0,0.0,1.0,0.0,0.0,0.0,1.0
1464117578125551777,339,1464117578122737953,,5.48663759232,1.70345473289,-137.315261841,0.00104300002567,1.0,0.0,0.0,0.0,1.0,0.0,0.0,0.0,1.0,2.37804889679,3.23170733452,3.71951246262,1.0,0.0,0.0,0.0,1.0,0.0,0.0,0.0,1.0,0.593762048251,-0.143652099609,10.0795889893,1.0,0.0,0.0,0.0,1.0,0.0,0.0,0.0,1.0
1464117578145775538,340,1464117578143460164,,5.54080438614,1.60350215435,-137.28414917,0.00103100005072,1.0,0.0,0.0,0.0,1.0,0.0,0.0,0.0,1.0,0.914634168148,3.41463422775,0.487804889679,1.0,0.0,0.0,0.0,1.0,0.0,0.0,0.0,1.0,-0.316034619141,-0.545877978516,9.89284125977,1.0,0.0,0.0,0.0,1.0,0.0,0.0,0.0,1.0
1464117578167901016,341,1464117578164561605,,5.5434012413,1.48039674759,-137.263793945,0.0010229999898,1.0,0.0,0.0,0.0,1.0,0.0,0.0,0.0,1.0,-0.304878056049,2.25609779358,1.03658533096,1.0,0.0,0.0,0.0,1.0,0.0,0.0,0.0,1.0,0.0335188255255,-0.426167895508,9.95030209961,1.0,0.0,0.0,0.0,1.0,0.0,0.0,0.0,1.0
1464117578191236369,342,1464117578185709036,,5.55894708633,1.35991346836,-137.254638672,0.00113500002772,1.0,0.0,0.0,0.0,1.0,0.0,0.0,0.0,1.0,-0.548780500889,3.10975623131,0.365853667259,1.0,0.0,0.0,0.0,1.0,0.0,0.0,0.0,1.0,-0.536301208408,-0.579396801758,10.1274730225,1.0,0.0,0.0,0.0,1.0,0.0,0.0,0.0,1.0
1464117578215266845,343,1464117578207297313,,5.51786279678,1.26311397552,-137.305511475,0.00113200000487,1.0,0.0,0.0,0.0,1.0,0.0,0.0,0.0,1.0,0.487804889679,-4.45121955872,-5.30487823486,1.0,0.0,0.0,0.0,1.0,0.0,0.0,0.0,1.0,0.363918652344,-0.790086547852,10.2567599121,1.0,0.0,0.0,0.0,1.0,0.0,0.0,0.0,1.0
1464117578234118539,344,1464117578227932178,,5.3706202507,1.13056218624,-137.427215576,0.0011490000179,1.0,0.0,0.0,0.0,1.0,0.0,0.0,0.0,1.0,1.03658533096,1.8292683363,-4.45121955872,1.0,0.0,0.0,0.0,1.0,0.0,0.0,0.0,1.0,-0.076614453125,-0.9193734375,10.2807019287,1.0,0.0,0.0,0.0,1.0,0.0,0.0,0.0,1.0
1464117578256421626,345,1464117578249820671,,5.42812824249,1.03965914249,-137.500732422,0.00149900000542,1.0,0.0,0.0,0.0,1.0,0.0,0.0,0.0,1.0,2.80487799644,-1.2195122242,-0.731707334518,1.0,0.0,0.0,0.0,1.0,0.0,0.0,0.0,1.0,-0.823605371094,-0.502782348633,10.4387192383,1.0,0.0,0.0,0.0,1.0,0.0,0.0,0.0,1.0
1464117578276097195,346,1464117578271852657,,5.37988090515,0.961701929569,-137.493453979,0.0019270000048,1.0,0.0,0.0,0.0,1.0,0.0,0.0,0.0,1.0,0.18292683363,2.56097555161,1.09756100178,1.0,0.0,0.0,0.0,1.0,0.0,0.0,0.0,1.0,0.392649072266,0.0287304199219,9.92157167969,1.0,0.0,0.0,0.0,1.0,0.0,0.0,0.0,1.0
1464117578297716410,347,1464117578292158503,,5.38822984695,0.882563412189,-137.479064941,0.00115200004075,1.0,0.0,0.0,0.0,1.0,0.0,0.0,0.0,1.0,-1.34146344662,2.98780488968,-0.792682945728,1.0,0.0,0.0,0.0,1.0,0.0,0.0,0.0,1.0,-0.478840332031,-0.450109912109,10.0939541992,1.0,0.0,0.0,0.0,1.0,0.0,0.0,0.0,1.0
1464117578318547114,348,1464117578313680267,,5.38647890091,0.762362420559,-137.492004395,0.00124799995683,1.0,0.0,0.0,0.0,1.0,0.0,0.0,0.0,1.0,-0.670731723309,0.853658556938,1.2804877758,1.0,0.0,0.0,0.0,1.0,0.0,0.0,0.0,1.0,0.0574608398438,-0.60812722168,10.2471831055,1.0,0.0,0.0,0.0,1.0,0.0,0.0,0.0,1.0
1464117578338033877,349,1464117578334790771,,5.38402175903,0.667282700539,-137.48286438,0.00106599996798,1.0,0.0,0.0,0.0,1.0,0.0,0.0,0.0,1.0,0.12195122242,2.92682933807,-0.12195122242,1.0,0.0,0.0,0.0,1.0,0.0,0.0,0.0,1.0,-0.0622492431641,-0.430956298828,10.1897222656,1.0,0.0,0.0,0.0,1.0,0.0,0.0,0.0,1.0
1464117578360705255,350,1464117578356115498,,5.39507865906,0.580437600613,-137.494354248,0.00106200005393,1.0,0.0,0.0,0.0,1.0,0.0,0.0,0.0,1.0,-0.304878056049,1.2195122242,-0.853658556938,1.0,0.0,0.0,0.0,1.0,0.0,0.0,0.0,1.0,0.0,-0.526724328702,10.0700121826,1.0,0.0,0.0,0.0,1.0,0.0,0.0,0.0,1.0
1464117578382650832,351,1464117578377168344,,5.38782691956,0.490348100662,-137.49079895,0.000997000024654,1.0,0.0,0.0,0.0,1.0,0.0,0.0,0.0,1.0,-0.853658556938,2.92682933807,0.853658556938,1.0,0.0,0.0,0.0,1.0,0.0,0.0,0.0,1.0,-0.0478840332031,-0.440533105469,10.299855542,1.0,0.0,0.0,0.0,1.0,0.0,0.0,0.0,1.0
1464117578401313615,352,1464117578398404163,,5.41409635544,0.395433664322,-137.4793396,0.000981000019237,1.0,0.0,0.0,0.0,1.0,0.0,0.0,0.0,1.0,-1.2804877758,5.42682933807,2.13414645195,1.0,0.0,0.0,0.0,1.0,0.0,0.0,0.0,1.0,-0.229843359375,-1.14442839355,9.8545340332,1.0,0.0,0.0,0.0,1.0,0.0,0.0,0.0,1.0
1464117578423525293,353,1464117578419566751,,5.52558994293,0.323884606361,-137.384307861,0.000989999971353,1.0,0.0,0.0,0.0,1.0,0.0,0.0,0.0,1.0,0.12195122242,6.89024400711,5.85365867615,1.0,0.0,0.0,0.0,1.0,0.0,0.0,0.0,1.0,-0.679953271484,-0.574608398438,10.4530844482,1.0,0.0,0.0,0.0,1.0,0.0,0.0,0.0,1.0
1464117578443890516,354,1464117578440348131,,5.58504629135,0.261515766382,-137.270370483,0.000983000034466,1.0,0.0,0.0,0.0,1.0,0.0,0.0,0.0,1.0,0.304878056049,1.2804877758,1.15853655338,1.0,0.0,0.0,0.0,1.0,0.0,0.0,0.0,1.0,-0.536301208408,0.076614453125,9.27513723145,1.0,0.0,0.0,0.0,1.0,0.0,0.0,0.0,1.0
1464117578463976357,355,1464117578460838045,,5.42433786392,0.17255936563,-137.368270874,0.00103100005072,1.0,0.0,0.0,0.0,1.0,0.0,0.0,0.0,1.0,-3.23170733452,0.243902444839,-6.7682929039,1.0,0.0,0.0,0.0,1.0,0.0,0.0,0.0,1.0,0.45968671875,-0.411802685547,9.92636008301,1.0,0.0,0.0,0.0,1.0,0.0,0.0,0.0,1.0
1464117578484533564,356,1464117578481962715,,5.46075057983,0.0444711074233,-137.480026245,0.000964000006206,1.0,0.0,0.0,0.0,1.0,0.0,0.0,0.0,1.0,-4.57317066193,1.03658533096,-1.58536589146,1.0,0.0,0.0,0.0,1.0,0.0,0.0,0.0,1.0,0.569819995117,0.0574608398438,9.84016882324,1.0,0.0,0.0,0.0,1.0,0.0,0.0,0.0,1.0
1464117578506101215,357,1464117578502962851,,5.58027935028,-0.0191923137754,-137.3775177,0.000966000021435,1.0,0.0,0.0,0.0,1.0,0.0,0.0,0.0,1.0,-5.0,8.5365858078,7.50000047684,1.0,0.0,0.0,0.0,1.0,0.0,0.0,0.0,1.0,-0.790086547852,-0.45968671875,10.3046439453,1.0,0.0,0.0,0.0,1.0,0.0,0.0,0.0,1.0
1464117578527626052,358,1464117578523844755,,5.67081546783,-0.0563577339053,-137.210266113,0.000990999978967,1.0,0.0,0.0,0.0,1.0,0.0,0.0,0.0,1.0,-3.10975623131,4.45121955872,6.15853643417,1.0,0.0,0.0,0.0,1.0,0.0,0.0,0.0,1.0,0.0239420166016,-0.124498486328,9.60074924175,1.0,0.0,0.0,0.0,1.0,0.0,0.0,0.0,1.0
1464117578550166020,359,1464117578544844109,,5.6491856575,-0.115675106645,-137.201538086,0.000977999996394,1.0,0.0,0.0,0.0,1.0,0.0,0.0,0.0,1.0,-1.8902438879,3.47560977936,-3.29268312454,1.0,0.0,0.0,0.0,1.0,0.0,0.0,0.0,1.0,-0.368707055664,-0.732625708008,10.3668931885,1.0,0.0,0.0,0.0,1.0,0.0,0.0,0.0,1.0
1464117578572346500,360,1464117578565990759,,5.62407064438,-0.220795035362,-137.252670288,0.00097499997355,1.0,0.0,0.0,0.0,1.0,0.0,0.0,0.0,1.0,0.0609756112099,-4.87804889679,-1.70731711388,1.0,0.0,0.0,0.0,1.0,0.0,0.0,0.0,1.0,-0.191536132812,-0.823605371094,10.4243540283,1.0,0.0,0.0,0.0,1.0,0.0,0.0,0.0,1.0
1464117578594903551,361,1464117578587232568,,5.47650146484,-0.329182296991,-137.367477417,0.000960999983363,1.0,0.0,0.0,0.0,1.0,0.0,0.0,0.0,1.0,-0.12195122242,1.34146344662,-5.0,1.0,0.0,0.0,0.0,1.0,0.0,0.0,0.0,1.0,0.124498486328,-0.852335791016,10.4482960449,1.0,0.0,0.0,0.0,1.0,0.0,0.0,0.0,1.0
1464117578616677822,362,1464117578608667455,,5.50177288055,-0.391247183084,-137.462997437,0.00101799995173,1.0,0.0,0.0,0.0,1.0,0.0,0.0,0.0,1.0,2.19512200356,-1.76829278469,-3.53658556938,1.0,0.0,0.0,0.0,1.0,0.0,0.0,0.0,1.0,-0.948103857422,-0.732625708008,10.5823713379,1.0,0.0,0.0,0.0,1.0,0.0,0.0,0.0,1.0
1464117578633523942,363,1464117578629816918,,5.43236207962,-0.442567437887,-137.50793457,0.00130899995565,1.0,0.0,0.0,0.0,1.0,0.0,0.0,0.0,1.0,1.8902438879,0.487804889679,0.12195122242,1.0,0.0,0.0,0.0,1.0,0.0,0.0,0.0,1.0,0.0574608398438,-0.536301208408,10.0364933594,1.0,0.0,0.0,0.0,1.0,0.0,0.0,0.0,1.0
1464117578654736271,364,1464117578650659758,,5.42869663239,-0.485122263432,-137.500289917,0.00159999995958,1.0,0.0,0.0,0.0,1.0,0.0,0.0,0.0,1.0,0.426829278469,3.41463422775,-0.609756112099,1.0,0.0,0.0,0.0,1.0,0.0,0.0,0.0,1.0,-0.708683691406,-0.359130249023,10.2088758789,1.0,0.0,0.0,0.0,1.0,0.0,0.0,0.0,1.0
1464117578676671848,365,1464117578672008340,,5.422996521,-0.560471475124,-137.504501343,0.00118400005158,1.0,0.0,0.0,0.0,1.0,0.0,0.0,0.0,1.0,-0.609756112099,2.56097555161,0.670731723309,1.0,0.0,0.0,0.0,1.0,0.0,0.0,0.0,1.0,0.814028564453,-0.732625708008,10.2902787354,1.0,0.0,0.0,0.0,1.0,0.0,0.0,0.0,1.0
1464117578695883552,366,1464117578692866441,,5.51133537292,-0.633576929569,-137.429626465,0.00115799997002,1.0,0.0,0.0,0.0,1.0,0.0,0.0,0.0,1.0,1.46341466904,5.97560977936,5.97560977936,1.0,0.0,0.0,0.0,1.0,0.0,0.0,0.0,1.0,0.110133276367,-1.08696755371,10.7882726807,1.0,0.0,0.0,0.0,1.0,0.0,0.0,0.0,1.0
1464117578719021556,367,1464117578713386095,,5.6915640831,-0.682405233383,-137.271316528,0.00123199995141,1.0,0.0,0.0,0.0,1.0,0.0,0.0,0.0,1.0,2.37804889679,0.487804889679,8.5365858078,1.0,0.0,0.0,0.0,1.0,0.0,0.0,0.0,1.0,-1.07260241682,-0.957680664062,10.2040874756,1.0,0.0,0.0,0.0,1.0,0.0,0.0,0.0,1.0
1464117578738967758,368,1464117578733906531,,5.53833913803,-0.713556647301,-137.290756226,0.00128299999051,1.0,0.0,0.0,0.0,1.0,0.0,0.0,0.0,1.0,3.65853667259,-1.64634156227,-6.58536624908,1.0,0.0,0.0,0.0,1.0,0.0,0.0,0.0,1.0,0.397437475586,-0.780509741211,10.3908352051,1.0,0.0,0.0,0.0,1.0,0.0,0.0,0.0,1.0
1464117578758432020,369,1464117578755073650,,5.48831701279,-0.797757685184,-137.447280884,0.00111700000707,1.0,0.0,0.0,0.0,1.0,0.0,0.0,0.0,1.0,1.03658533096,-0.853658556938,-6.28048801422,1.0,0.0,0.0,0.0,1.0,0.0,0.0,0.0,1.0,-0.727837304687,0.0191536132812,9.89284125977,1.0,0.0,0.0,0.0,1.0,0.0,0.0,0.0,1.0
1464117578780960634,370,1464117578776305146,,5.4535369873,-0.879994213581,-137.528488159,0.000999000039883,1.0,0.0,0.0,0.0,1.0,0.0,0.0,0.0,1.0,-2.25609779358,-1.03658533096,-2.19512200356,1.0,0.0,0.0,0.0,1.0,0.0,0.0,0.0,1.0,0.076614453125,-0.421379492187,10.2232410889,1.0,0.0,0.0,0.0,1.0,0.0,0.0,0.0,1.0
1464117578801446641,371,1464117578797605030,,5.4260969162,-0.945241808891,-137.51600647,0.00108700001147,1.0,0.0,0.0,0.0,1.0,0.0,0.0,0.0,1.0,-1.95121955872,5.91463422775,3.41463422775,1.0,0.0,0.0,0.0,1.0,0.0,0.0,0.0,1.0,0.100556469727,-0.938527050781,10.0891657959,1.0,0.0,0.0,0.0,1.0,0.0,0.0,0.0,1.0
1464117578822212396,372,1464117578818549227,,5.58880376816,-0.982796669006,-137.402801514,0.000997000024654,1.0,0.0,0.0,0.0,1.0,0.0,0.0,0.0,1.0,1.8292683363,6.70731735229,6.95121955872,1.0,0.0,0.0,0.0,1.0,0.0,0.0,0.0,1.0,-0.876277807617,-0.248996972656,10.3477395752,1.0,0.0,0.0,0.0,1.0,0.0,0.0,0.0,1.0
1464117578844413813,373,1464117578839131643,,5.64130067825,-1.00031888485,-137.255065918,0.000974000024144,1.0,0.0,0.0,0.0,1.0,0.0,0.0,0.0,1.0,0.304878056049,5.30487823486,4.2682929039,1.0,0.0,0.0,0.0,1.0,0.0,0.0,0.0,1.0,0.660799658203,-0.0383072265625,9.92636008301,1.0,0.0,0.0,0.0,1.0,0.0,0.0,0.0,1.0
1464117578863424678,374,1464117578860188134,,5.66455316544,-1.04921782017,-137.238876343,0.00100299995393,1.0,0.0,0.0,0.0,1.0,0.0,0.0,0.0,1.0,-1.52439022064,1.76829278469,-2.07317066193,1.0,0.0,0.0,0.0,1.0,0.0,0.0,0.0,1.0,-0.229843359375,-0.435744702148,10.1370498291,1.0,0.0,0.0,0.0,1.0,0.0,0.0,0.0,1.0
1464117578886857794,375,1464117578881120560,,5.66776227951,-1.14127266407,-137.253417969,0.00105600000825,1.0,0.0,0.0,0.0,1.0,0.0,0.0,0.0,1.0,-2.31707310677,2.98780488968,1.15853655338,1.0,0.0,0.0,0.0,1.0,0.0,0.0,0.0,1.0,-0.162805712891,-0.77093293457,10.2184526855,1.0,0.0,0.0,0.0,1.0,0.0,0.0,0.0,1.0
1464117578905543234,376,1464117578901773603,,5.67664718628,-1.20456838608,-137.226623535,0.00101100001484,1.0,0.0,0.0,0.0,1.0,0.0,0.0,0.0,1.0,-1.15853655338,2.31707310677,0.0,1.0,0.0,0.0,0.0,1.0,0.0,0.0,0.0,1.0,-0.110133276367,-0.541089611728,10.5009684814,1.0,0.0,0.0,0.0,1.0,0.0,0.0,0.0,1.0
1464117578931293755,377,1464117578922550400,,5.63529062271,-1.24448549747,-137.279129028,0.00111399998423,1.0,0.0,0.0,0.0,1.0,0.0,0.0,0.0,1.0,0.914634168148,-1.34146344662,-4.63414621353,1.0,0.0,0.0,0.0,1.0,0.0,0.0,0.0,1.0,-0.550666381836,-0.612915625,10.285490332,1.0,0.0,0.0,0.0,1.0,0.0,0.0,0.0,1.0
1464117578945097139,378,1464117578942956562,,5.4723815918,-1.32158100605,-137.412200928,0.000962999998592,1.0,0.0,0.0,0.0,1.0,0.0,0.0,0.0,1.0,-2.25609779358,-0.975609779358,-6.95121955872,1.0,0.0,0.0,0.0,1.0,0.0,0.0,0.0,1.0,0.435744702148,-0.502782348633,10.0556469727,1.0,0.0,0.0,0.0,1.0,0.0,0.0,0.0,1.0
1464117578965876123,379,1464117578963761953,,5.4751996994,-1.38099229336,-137.498062134,0.000962999998592,1.0,0.0,0.0,0.0,1.0,0.0,0.0,0.0,1.0,-4.14634132385,4.81707286835,-1.2195122242,1.0,0.0,0.0,0.0,1.0,0.0,0.0,0.0,1.0,0.660799658203,-1.06781401349,11.405976709,1.0,0.0,0.0,0.0,1.0,0.0,0.0,0.0,1.0
1464117578987178663,380,1464117578984285878,,5.58104991913,-1.37791872025,-137.377548218,0.000972000008915,1.0,0.0,0.0,0.0,1.0,0.0,0.0,0.0,1.0,-5.30487823486,6.40243911743,7.74390268326,1.0,0.0,0.0,0.0,1.0,0.0,0.0,0.0,1.0,-0.804451757813,-0.31124621582,10.3573163818,1.0,0.0,0.0,0.0,1.0,0.0,0.0,0.0,1.0
1464117579009102625,381,1464117579005595554,,5.53712034225,-1.35534608364,-137.269989014,0.00112499995157,1.0,0.0,0.0,0.0,1.0,0.0,0.0,0.0,1.0,-2.31707310677,-0.853658556938,-1.2195122242,1.0,0.0,0.0,0.0,1.0,0.0,0.0,0.0,1.0,0.541089611728,-0.488417138672,10.3860468018,1.0,0.0,0.0,0.0,1.0,0.0,0.0,0.0,1.0
1464117579028985856,382,1464117579026585741,,5.43205118179,-1.41792857647,-137.441940308,0.00100399996154,1.0,0.0,0.0,0.0,1.0,0.0,0.0,0.0,1.0,1.8902438879,0.731707334518,-8.35365867615,1.0,0.0,0.0,0.0,1.0,0.0,0.0,0.0,1.0,-0.383072265625,-0.967257470703,10.6398321777,1.0,0.0,0.0,0.0,1.0,0.0,0.0,0.0,1.0
1464117579049673171,383,1464117579047306807,,5.4756360054,-1.50181114674,-137.506896973,0.000966000021435,1.0,0.0,0.0,0.0,1.0,0.0,0.0,0.0,1.0,0.12195122242,0.365853667259,6.89024400711,1.0,0.0,0.0,0.0,1.0,0.0,0.0,0.0,1.0,-1.31681091309,-0.234631762695,10.4626612549,1.0,0.0,0.0,0.0,1.0,0.0,0.0,0.0,1.0
1464117579071502235,384,1464117579069335980,,5.62485837936,-1.54389715195,-137.374160767,0.00116700003855,1.0,0.0,0.0,0.0,1.0,0.0,0.0,0.0,1.0,0.609756112099,5.30487823486,7.37804937363,1.0,0.0,0.0,0.0,1.0,0.0,0.0,0.0,1.0,-0.694318481445,-0.186747729492,10.8122146973,1.0,0.0,0.0,0.0,1.0,0.0,0.0,0.0,1.0
1464117579093289788,385,1464117579090635916,,5.63965368271,-1.53305804729,-137.231384277,0.00120599998627,1.0,0.0,0.0,0.0,1.0,0.0,0.0,0.0,1.0,0.853658556938,3.53658556938,2.86585378647,1.0,0.0,0.0,0.0,1.0,0.0,0.0,0.0,1.0,-0.330399829102,-0.641646044922,10.1897222656,1.0,0.0,0.0,0.0,1.0,0.0,0.0,0.0,1.0
1464117579113704023,386,1464117579111451776,,5.64639854431,-1.58199548721,-137.264587402,0.00138399994466,1.0,0.0,0.0,0.0,1.0,0.0,0.0,0.0,1.0,1.40243899822,1.2195122242,-1.40243899822,1.0,0.0,0.0,0.0,1.0,0.0,0.0,0.0,1.0,-0.670376464844,-0.943315454102,10.4004120117,1.0,0.0,0.0,0.0,1.0,0.0,0.0,0.0,1.0
1464117579135531784,387,1464117579133044323,,5.65044927597,-1.65708053112,-137.263153076,0.00127500004601,1.0,0.0,0.0,0.0,1.0,0.0,0.0,0.0,1.0,0.426829278469,2.92682933807,1.09756100178,1.0,0.0,0.0,0.0,1.0,0.0,0.0,0.0,1.0,-0.0287304199219,-0.689530078125,10.0652237793,1.0,0.0,0.0,0.0,1.0,0.0,0.0,0.0,1.0
1464117579156568536,388,1464117579154326237,,5.65341949463,-1.68466234207,-137.25213623,0.00122600002214,1.0,0.0,0.0,0.0,1.0,0.0,0.0,0.0,1.0,-0.670731723309,0.853658556938,-1.2195122242,1.0,0.0,0.0,0.0,1.0,0.0,0.0,0.0,1.0,-0.76135612793,-0.268150604204,10.1418382324,1.0,0.0,0.0,0.0,1.0,0.0,0.0,0.0,1.0
1464117579177420178,389,1464117579175319810,,5.54413938522,-1.73672306538,-137.348342896,0.00112300005276,1.0,0.0,0.0,0.0,1.0,0.0,0.0,0.0,1.0,0.304878056049,-3.71951246262,-5.73170757294,1.0,0.0,0.0,0.0,1.0,0.0,0.0,0.0,1.0,0.478840332031,-1.01035310059,10.2471831055,1.0,0.0,0.0,0.0,1.0,0.0,0.0,0.0,1.0
1464117579199911968,390,1464117579196433282,,5.45746994019,-1.78831362724,-137.472000122,0.000989999971353,1.0,0.0,0.0,0.0,1.0,0.0,0.0,0.0,1.0,1.15853655338,3.10975623131,-4.14634132385,1.0,0.0,0.0,0.0,1.0,0.0,0.0,0.0,1.0,-0.220266552734,-0.785298144531,9.7587659668,1.0,0.0,0.0,0.0,1.0,0.0,0.0,0.0,1.0
1464117579221088462,391,1464117579217616756,,5.58182048798,-1.82434010506,-137.429321289,0.000980000011623,1.0,0.0,0.0,0.0,1.0,0.0,0.0,0.0,1.0,1.95121955872,1.46341466904,5.12195110321,1.0,0.0,0.0,0.0,1.0,0.0,0.0,0.0,1.0,-0.143652099609,-0.215478149414,10.6398321777,1.0,0.0,0.0,0.0,1.0,0.0,0.0,0.0,1.0
1464117579241701817,392,1464117579238436992,,5.61222410202,-1.81557273865,-137.298736572,0.000962999998592,1.0,0.0,0.0,0.0,1.0,0.0,0.0,0.0,1.0,1.52439022064,4.20731735229,2.56097555161,1.0,0.0,0.0,0.0,1.0,0.0,0.0,0.0,1.0,0.373495458984,0.0861912597656,9.59117243511,1.0,0.0,0.0,0.0,1.0,0.0,0.0,0.0,1.0
1464117579263398065,393,1464117579259359573,,5.49908590317,-1.84607279301,-137.382766724,0.00105399999302,1.0,0.0,0.0,0.0,1.0,0.0,0.0,0.0,1.0,-3.29268312454,-0.670731723309,-8.59756088257,1.0,0.0,0.0,0.0,1.0,0.0,0.0,0.0,1.0,0.359130249023,-0.497993945312,10.0795889893,1.0,0.0,0.0,0.0,1.0,0.0,0.0,0.0,1.0
1464117579284876078,394,1464117579280344657,,5.44293022156,-1.93452858925,-137.530700684,0.001007999992,1.0,0.0,0.0,0.0,1.0,0.0,0.0,0.0,1.0,-2.74390244484,-1.2804877758,-5.24390268326,1.0,0.0,0.0,0.0,1.0,0.0,0.0,0.0,1.0,-0.512359155273,-0.976834277344,10.4291424316,1.0,0.0,0.0,0.0,1.0,0.0,0.0,0.0,1.0
1464117579303846942,395,1464117579300945615,,5.40608549118,-1.97911131382,-137.584182739,0.0010529999854,1.0,0.0,0.0,0.0,1.0,0.0,0.0,0.0,1.0,-0.487804889679,2.07317066193,-0.12195122242,1.0,0.0,0.0,0.0,1.0,0.0,0.0,0.0,1.0,0.110133276367,-0.828393774414,10.6111017578,1.0,0.0,0.0,0.0,1.0,0.0,0.0,0.0,1.0
1464117579324208519,396,1464117579322079140,,5.41525650024,-1.9897595644,-137.547088623,0.000999000039883,1.0,0.0,0.0,0.0,1.0,0.0,0.0,0.0,1.0,0.426829278469,2.62195134163,1.34146344662,1.0,0.0,0.0,0.0,1.0,0.0,0.0,0.0,1.0,-0.162805712891,-0.411802685547,10.0939541992,1.0,0.0,0.0,0.0,1.0,0.0,0.0,0.0,1.0
1464117579345992113,397,1464117579343124589,,5.40826940536,-2.02040457726,-137.556365967,0.000960999983363,1.0,0.0,0.0,0.0,1.0,0.0,0.0,0.0,1.0,-0.426829278469,0.914634168148,-0.609756112099,1.0,0.0,0.0,0.0,1.0,0.0,0.0,0.0,1.0,-0.119710083008,-0.679953271484,10.2423947021,1.0,0.0,0.0,0.0,1.0,0.0,0.0,0.0,1.0
1464117579367051625,398,1464117579364083839,,5.43232059479,-2.07773280144,-137.538589478,0.000972000008915,1.0,0.0,0.0,0.0,1.0,0.0,0.0,0.0,1.0,-3.53658556938,6.15853643417,3.7804877758,1.0,0.0,0.0,0.0,1.0,0.0,0.0,0.0,1.0,0.100556469727,0.363918652344,9.85932243652,1.0,0.0,0.0,0.0,1.0,0.0,0.0,0.0,1.0
1464117579389035589,399,1464117579385305855,,5.59276676178,-2.10339450836,-137.408569336,0.000988999963738,1.0,0.0,0.0,0.0,1.0,0.0,0.0,0.0,1.0,-4.2682929039,7.25609779358,8.41463470459,1.0,0.0,0.0,0.0,1.0,0.0,0.0,0.0,1.0,-0.632069238281,-0.258573779297,10.2040874756,1.0,0.0,0.0,0.0,1.0,0.0,0.0,0.0,1.0
1464117579410909394,400,1464117579406301824,,5.5619893074,-2.10067391396,-137.321853638,0.00109300005715,1.0,0.0,0.0,0.0,1.0,0.0,0.0,0.0,1.0,-2.07317066193,0.426829278469,-1.70731711388,1.0,0.0,0.0,0.0,1.0,0.0,0.0,0.0,1.0,-0.445321508789,-0.727837304687,10.3381627686,1.0,0.0,0.0,0.0,1.0,0.0,0.0,0.0,1.0
1464117579432390219,401,1464117579427045443,,5.42401075363,-2.16426467896,-137.462692261,0.00096700002905,1.0,0.0,0.0,0.0,1.0,0.0,0.0,0.0,1.0,0.304878056049,1.64634156227,-7.98780536652,1.0,0.0,0.0,0.0,1.0,0.0,0.0,0.0,1.0,0.0335188255255,-1.00077629395,10.4818148682,1.0,0.0,0.0,0.0,1.0,0.0,0.0,0.0,1.0
1464117579451904639,402,1464117579448585697,,5.50208902359,-2.22848963737,-137.525375366,0.000990999978967,1.0,0.0,0.0,0.0,1.0,0.0,0.0,0.0,1.0,0.792682945728,0.670731723309,6.21951246262,1.0,0.0,0.0,0.0,1.0,0.0,0.0,0.0,1.0,-0.679953271484,-0.742202514648,11.4442839355,1.0,0.0,0.0,0.0,1.0,0.0,0.0,0.0,1.0
1464117579471655679,403,1464117579469439423,,5.65231275558,-2.25219464302,-137.384628296,0.00115899997763,1.0,0.0,0.0,0.0,1.0,0.0,0.0,0.0,1.0,1.46341466904,7.50000047684,8.29268264771,1.0,0.0,0.0,0.0,1.0,0.0,0.0,0.0,1.0,-1.19710090314,-0.694318481445,10.3668931885,1.0,0.0,0.0,0.0,1.0,0.0,0.0,0.0,1.0
1464117579492671232,404,1464117579490595500,,5.58378648758,-2.21649765968,-137.300445557,0.00119199999608,1.0,0.0,0.0,0.0,1.0,0.0,0.0,0.0,1.0,1.95121955872,-5.24390268326,-3.96341490746,1.0,0.0,0.0,0.0,1.0,0.0,0.0,0.0,1.0,1.60890351563,-0.689530078125,10.539275708,1.0,0.0,0.0,0.0,1.0,0.0,0.0,0.0,1.0
1464117579517598554,405,1464117579511683607,,5.49550676346,-2.26868104935,-137.457595825,0.0011340000201,1.0,0.0,0.0,0.0,1.0,0.0,0.0,0.0,1.0,3.41463422775,1.70731711388,-7.68292665482,1.0,0.0,0.0,0.0,1.0,0.0,0.0,0.0,1.0,-1.01035310059,-0.92416184082,9.52892319194,1.0,0.0,0.0,0.0,1.0,0.0,0.0,0.0,1.0
1464117579538991617,406,1464117579532987241,,5.46598863602,-2.30803203583,-137.557540894,0.00117800000589,1.0,0.0,0.0,0.0,1.0,0.0,0.0,0.0,1.0,-0.548780500889,-2.86585378647,-2.5,1.0,0.0,0.0,0.0,1.0,0.0,0.0,0.0,1.0,-0.373495458984,-0.320823022461,9.90241806641,1.0,0.0,0.0,0.0,1.0,0.0,0.0,0.0,1.0
1464117579555985710,407,1464117579553720859,,5.4384021759,-2.34388589859,-137.587966919,0.00116200000048,1.0,0.0,0.0,0.0,1.0,0.0,0.0,0.0,1.0,-1.70731711388,3.41463422775,2.62195134163,1.0,0.0,0.0,0.0,1.0,0.0,0.0,0.0,1.0,0.253785375977,-1.09654436035,10.2615483154,1.0,0.0,0.0,0.0,1.0,0.0,0.0,0.0,1.0
1464117579577436795,408,1464117579574584116,,5.52935361862,-2.3727889061,-137.467193604,0.00113600003533,1.0,0.0,0.0,0.0,1.0,0.0,0.0,0.0,1.0,2.25609779358,11.0975618362,7.25609779358,1.0,0.0,0.0,0.0,1.0,0.0,0.0,0.0,1.0,-0.574608398438,-1.04387185076,10.7212350342,1.0,0.0,0.0,0.0,1.0,0.0,0.0,0.0,1.0
1464117579598979341,409,1464117579595324401,,5.68349647522,-2.35548019409,-137.305679321,0.00109200004954,1.0,0.0,0.0,0.0,1.0,0.0,0.0,0.0,1.0,2.80487799644,-1.03658533096,3.59756112099,1.0,0.0,0.0,0.0,1.0,0.0,0.0,0.0,1.0,0.00478840332031,-0.181959326172,9.95509050293,1.0,0.0,0.0,0.0,1.0,0.0,0.0,0.0,1.0
1464117579619624936,410,1464117579616033019,,5.51623296738,-2.3689084053,-137.380615234,0.00101699994411,1.0,0.0,0.0,0.0,1.0,0.0,0.0,0.0,1.0,1.46341466904,-2.68292689323,-7.98780536652,1.0,0.0,0.0,0.0,1.0,0.0,0.0,0.0,1.0,0.612915625,-0.584185168546,10.0317049561,1.0,0.0,0.0,0.0,1.0,0.0,0.0,0.0,1.0
1464117579640087558,411,1464117579636519600,,5.4743309021,-2.44672441483,-137.514434814,0.00100399996154,1.0,0.0,0.0,0.0,1.0,0.0,0.0,0.0,1.0,-1.64634156227,3.90243911743,-5.0,1.0,0.0,0.0,0.0,1.0,0.0,0.0,0.0,1.0,-0.679953271484,-0.866701000977,9.61032604839,1.0,0.0,0.0,0.0,1.0,0.0,0.0,0.0,1.0
1464117579659679584,412,1464117579657227228,,5.59684514999,-2.47826528549,-137.482452393,0.00104300002567,1.0,0.0,0.0,0.0,1.0,0.0,0.0,0.0,1.0,0.0609756112099,3.35365867615,5.54878091812,1.0,0.0,0.0,0.0,1.0,0.0,0.0,0.0,1.0,0.0718260498047,-0.277727392578,10.1705686523,1.0,0.0,0.0,0.0,1.0,0.0,0.0,0.0,1.0
1464117579681920898,413,1464117579677744903,,5.68205595016,-2.47182583809,-137.337249756,0.00108299998101,1.0,0.0,0.0,0.0,1.0,0.0,0.0,0.0,1.0,0.975609779358,5.06097555161,4.08536577225,1.0,0.0,0.0,0.0,1.0,0.0,0.0,0.0,1.0,0.45968671875,0.320823022461,9.8305920166,1.0,0.0,0.0,0.0,1.0,0.0,0.0,0.0,1.0
1464117579703335055,414,1464117579699084579,,5.50747394562,-2.46254515648,-137.378082275,0.00102099997457,1.0,0.0,0.0,0.0,1.0,0.0,0.0,0.0,1.0,-2.25609779358,0.609756112099,-8.41463470459,1.0,0.0,0.0,0.0,1.0,0.0,0.0,0.0,1.0,0.646434448242,-0.435744702148,10.2184526855,1.0,0.0,0.0,0.0,1.0,0.0,0.0,0.0,1.0
1464117579723209641,415,1464117579720004036,,5.51000642776,-2.53517723083,-137.546035767,0.00123199995141,1.0,0.0,0.0,0.0,1.0,0.0,0.0,0.0,1.0,-3.04878044128,-2.62195134163,-5.97560977936,1.0,0.0,0.0,0.0,1.0,0.0,0.0,0.0,1.0,-1.01514150391,-0.679953271484,10.524910498,1.0,0.0,0.0,0.0,1.0,0.0,0.0,0.0,1.0
1464117579744903493,416,1464117579741514654,,5.42549133301,-2.5666744709,-137.613006592,0.00113099999726,1.0,0.0,0.0,0.0,1.0,0.0,0.0,0.0,1.0,-0.304878056049,1.8292683363,-2.37804889679,1.0,0.0,0.0,0.0,1.0,0.0,0.0,0.0,1.0,-0.196324536133,-0.775721337891,10.4722380615,1.0,0.0,0.0,0.0,1.0,0.0,0.0,0.0,1.0
1464117579770663702,417,1464117579762520675,,5.4216799736,-2.56602048874,-137.588241577,0.00105600000825,1.0,0.0,0.0,0.0,1.0,0.0,0.0,0.0,1.0,0.304878056049,1.76829278469,2.80487799644,1.0,0.0,0.0,0.0,1.0,0.0,0.0,0.0,1.0,-0.215478149414,-0.229843359375,10.2471831055,1.0,0.0,0.0,0.0,1.0,0.0,0.0,0.0,1.0
1464117579790428805,418,1464117579783170958,,5.43100500107,-2.57626843452,-137.58241272,0.00105500000063,1.0,0.0,0.0,0.0,1.0,0.0,0.0,0.0,1.0,-0.0609756112099,1.8902438879,-0.243902444839,1.0,0.0,0.0,0.0,1.0,0.0,0.0,0.0,1.0,-0.076614453125,-0.61770402832,10.0795889893,1.0,0.0,0.0,0.0,1.0,0.0,0.0,0.0,1.0
1464117579811117995,419,1464117579804211459,,5.4402141571,-2.61908817291,-137.557312012,0.00108600000385,1.0,0.0,0.0,0.0,1.0,0.0,0.0,0.0,1.0,-3.65853667259,7.07317113876,3.23170733452,1.0,0.0,0.0,0.0,1.0,0.0,0.0,0.0,1.0,0.0478840332031,-0.0383072265625,10.0795889893,1.0,0.0,0.0,0.0,1.0,0.0,0.0,0.0,1.0
1464117579833321913,420,1464117579825500717,,5.59687805176,-2.63406419754,-137.442810059,0.00111399998423,1.0,0.0,0.0,0.0,1.0,0.0,0.0,0.0,1.0,-4.32926845551,7.01219511032,7.80487823486,1.0,0.0,0.0,0.0,1.0,0.0,0.0,0.0,1.0,-0.948103857422,-0.392649072266,10.6111017578,1.0,0.0,0.0,0.0,1.0,0.0,0.0,0.0,1.0
1464117579850495437,421,1464117579846379496,,5.65285778046,-2.63462162018,-137.316162109,0.00113200000487,1.0,0.0,0.0,0.0,1.0,0.0,0.0,0.0,1.0,-3.17073178291,3.84146332741,3.53658556938,1.0,0.0,0.0,0.0,1.0,0.0,0.0,0.0,1.0,0.244208569336,-0.296881024126,10.3046439453,1.0,0.0,0.0,0.0,1.0,0.0,0.0,0.0,1.0
1464117579871697505,422,1464117579867697973,,5.66483306885,-2.65465521812,-137.326095581,0.00111399998423,1.0,0.0,0.0,0.0,1.0,0.0,0.0,0.0,1.0,-1.03658533096,1.2195122242,-2.25609779358,1.0,0.0,0.0,0.0,1.0,0.0,0.0,0.0,1.0,-0.622492431641,-0.876277807617,10.6494089844,1.0,0.0,0.0,0.0,1.0,0.0,0.0,0.0,1.0
1464117579896084918,423,1464117579888539303,,5.57284975052,-2.68710899353,-137.383758545,0.00109499995597,1.0,0.0,0.0,0.0,1.0,0.0,0.0,0.0,1.0,0.792682945728,-4.2682929039,-2.92682933807,1.0,0.0,0.0,0.0,1.0,0.0,0.0,0.0,1.0,0.31124621582,-0.976834277344,10.3477395752,1.0,0.0,0.0,0.0,1.0,0.0,0.0,0.0,1.0
1464117579913743872,424,1464117579909170575,,5.44613409042,-2.74481320381,-137.48638916,0.00124799995683,1.0,0.0,0.0,0.0,1.0,0.0,0.0,0.0,1.0,1.58536589146,2.07317066193,-4.2682929039,1.0,0.0,0.0,0.0,1.0,0.0,0.0,0.0,1.0,-0.114921679688,-0.981622680664,10.5440641113,1.0,0.0,0.0,0.0,1.0,0.0,0.0,0.0,1.0
1464117579934009093,425,1464117579930386497,,5.46972036362,-2.75330376625,-137.568832397,0.00141899997834,1.0,0.0,0.0,0.0,1.0,0.0,0.0,0.0,1.0,2.80487799644,-0.426829278469,-2.86585378647,1.0,0.0,0.0,0.0,1.0,0.0,0.0,0.0,1.0,-1.08696755371,-0.60812722168,10.0652237793,1.0,0.0,0.0,0.0,1.0,0.0,0.0,0.0,1.0
1464117579955469970,426,1464117579951746382,,5.41606760025,-2.75314188004,-137.594039917,0.00175499997567,1.0,0.0,0.0,0.0,1.0,0.0,0.0,0.0,1.0,1.34146344662,1.58536589146,0.304878056049,1.0,0.0,0.0,0.0,1.0,0.0,0.0,0.0,1.0,0.0383072265625,-0.349553442383,10.0364933594,1.0,0.0,0.0,0.0,1.0,0.0,0.0,0.0,1.0
1464117579976380051,427,1464117579972386977,,5.42298841476,-2.75088453293,-137.590545654,0.00147200003266,1.0,0.0,0.0,0.0,1.0,0.0,0.0,0.0,1.0,-0.365853667259,2.74390244484,-0.548780500889,1.0,0.0,0.0,0.0,1.0,0.0,0.0,0.0,1.0,-0.46447512207,-0.316034619141,10.1178962158,1.0,0.0,0.0,0.0,1.0,0.0,0.0,0.0,1.0
1464117579998867101,428,1464117579993899418,,5.41658258438,-2.77954339981,-137.590026855,0.00130300002638,1.0,0.0,0.0,0.0,1.0,0.0,0.0,0.0,1.0,-1.09756100178,3.41463422775,2.13414645195,1.0,0.0,0.0,0.0,1.0,0.0,0.0,0.0,1.0,0.320823022461,-0.694318481445,10.2567599121,1.0,0.0,0.0,0.0,1.0,0.0,0.0,0.0,1.0
1464117580017741139,429,1464117580015054454,,5.51730060577,-2.80658340454,-137.508560181,0.0012300000526,1.0,0.0,0.0,0.0,1.0,0.0,0.0,0.0,1.0,2.19512200356,8.84146404266,6.95121955872,1.0,0.0,0.0,0.0,1.0,0.0,0.0,0.0,1.0,-0.76614453125,-0.76614453125,10.5057568848,1.0,0.0,0.0,0.0,1.0,0.0,0.0,0.0,1.0
1464117580041529265,430,1464117580036325951,,5.63153934479,-2.80863904953,-137.35005188,0.00114800001029,1.0,0.0,0.0,0.0,1.0,0.0,0.0,0.0,1.0,3.65853667259,1.2804877758,2.43902444839,1.0,0.0,0.0,0.0,1.0,0.0,0.0,0.0,1.0,1.63284553223,-0.148440512063,10.7643306641,1.0,0.0,0.0,0.0,1.0,0.0,0.0,0.0,1.0
1464117580061527343,431,1464117580057684325,,5.48776388168,-2.80172657967,-137.414779663,0.00125500001013,1.0,0.0,0.0,0.0,1.0,0.0,0.0,0.0,1.0,0.243902444839,-1.64634156227,-8.04878044128,1.0,0.0,0.0,0.0,1.0,0.0,0.0,0.0,1.0,0.708683691406,-0.253785375977,9.88805285645,1.0,0.0,0.0,0.0,1.0,0.0,0.0,0.0,1.0
1464117580081423856,432,1464117580078542478,,5.48054790497,-2.87268877029,-137.55305481,0.00134399998933,1.0,0.0,0.0,0.0,1.0,0.0,0.0,0.0,1.0,-2.68292689323,2.25609779358,-3.71951246262,1.0,0.0,0.0,0.0,1.0,0.0,0.0,0.0,1.0,-0.900219824219,-0.708683691406,9.92157167969,1.0,0.0,0.0,0.0,1.0,0.0,0.0,0.0,1.0
1464117580102848378,433,1464117580100415970,,5.52400779724,-2.91470956802,-137.540206909,0.00130999996327,1.0,0.0,0.0,0.0,1.0,0.0,0.0,0.0,1.0,-1.15853655338,3.84146332741,3.29268312454,1.0,0.0,0.0,0.0,1.0,0.0,0.0,0.0,1.0,-0.852335791016,-0.905008227539,10.6494089844,1.0,0.0,0.0,0.0,1.0,0.0,0.0,0.0,1.0
1464117580123612310,434,1464117580120657284,,5.52058601379,-2.90257501602,-137.467559814,0.000987999956124,1.0,0.0,0.0,0.0,1.0,0.0,0.0,0.0,1.0,1.09756100178,4.45121955872,3.59756112099,1.0,0.0,0.0,0.0,1.0,0.0,0.0,0.0,1.0,0.411802685547,-0.521935925381,10.5344873047,1.0,0.0,0.0,0.0,1.0,0.0,0.0,0.0,1.0
1464117580143139074,435,1464117580141119593,,5.59754943848,-2.9018201828,-137.432388306,0.000967999978457,1.0,0.0,0.0,0.0,1.0,0.0,0.0,0.0,1.0,1.64634156227,3.10975623131,1.64634156227,1.0,0.0,0.0,0.0,1.0,0.0,0.0,0.0,1.0,-0.699106884766,-0.416591088867,10.2519715088,1.0,0.0,0.0,0.0,1.0,0.0,0.0,0.0,1.0
1464117580164122334,436,1464117580161704614,,5.58400630951,-2.91714096069,-137.400741577,0.00107300002128,1.0,0.0,0.0,0.0,1.0,0.0,0.0,0.0,1.0,0.487804889679,2.56097555161,1.09756100178,1.0,0.0,0.0,0.0,1.0,0.0,0.0,0.0,1.0,0.220266552734,-0.292092584273,10.0891657959,1.0,0.0,0.0,0.0,1.0,0.0,0.0,0.0,1.0
1464117580184625477,437,1464117580182561986,,5.61553239822,-2.94289922714,-137.393707275,0.00096700002905,1.0,0.0,0.0,0.0,1.0,0.0,0.0,0.0,1.0,-0.12195122242,3.10975623131,0.304878056049,1.0,0.0,0.0,0.0,1.0,0.0,0.0,0.0,1.0,-0.474051928711,-0.545877978516,10.2376062988,1.0,0.0,0.0,0.0,1.0,0.0,0.0,0.0,1.0
1464117580206135470,438,1464117580203989216,,5.61844921112,-2.96112918854,-137.390533447,0.000953999988269,1.0,0.0,0.0,0.0,1.0,0.0,0.0,0.0,1.0,-0.12195122242,1.64634156227,0.426829278469,1.0,0.0,0.0,0.0,1.0,0.0,0.0,0.0,1.0,0.0909796630859,-0.478840332031,10.2615483154,1.0,0.0,0.0,0.0,1.0,0.0,0.0,0.0,1.0
1464117580230301054,439,1464117580224630853,,5.61485815048,-2.97558617592,-137.388839722,0.000960999983363,1.0,0.0,0.0,0.0,1.0,0.0,0.0,0.0,1.0,0.426829278469,2.56097555161,0.0609756112099,1.0,0.0,0.0,0.0,1.0,0.0,0.0,0.0,1.0,-0.426167895508,-0.593762048251,10.1897222656,1.0,0.0,0.0,0.0,1.0,0.0,0.0,0.0,1.0
1464117580248636901,440,1464117580245444317,,5.57457923889,-2.98015213013,-137.422454834,0.000960999983363,1.0,0.0,0.0,0.0,1.0,0.0,0.0,0.0,1.0,0.12195122242,-5.42682933807,-3.23170733452,1.0,0.0,0.0,0.0,1.0,0.0,0.0,0.0,1.0,0.00957680664062,-0.335188232422,10.2328178955,1.0,0.0,0.0,0.0,1.0,0.0,0.0,0.0,1.0
1464117580271350676,441,1464117580266539247,,5.39562749863,-3.03574347496,-137.551879883,0.000953999988269,1.0,0.0,0.0,0.0,1.0,0.0,0.0,0.0,1.0,-1.40243899822,2.43902444839,-4.93902444839,1.0,0.0,0.0,0.0,1.0,0.0,0.0,0.0,1.0,0.383072265625,-0.938527050781,10.4291424316,1.0,0.0,0.0,0.0,1.0,0.0,0.0,0.0,1.0
1464117580293752307,442,1464117580287771681,,5.49397230148,-3.06200790405,-137.588790894,0.00098600005731,1.0,0.0,0.0,0.0,1.0,0.0,0.0,0.0,1.0,-1.52439022064,12.1341466904,3.84146332741,1.0,0.0,0.0,0.0,1.0,0.0,0.0,0.0,1.0,-2.65277543945,-0.603338854892,9.84495722656,1.0,0.0,0.0,0.0,1.0,0.0,0.0,0.0,1.0
1464117580315201673,443,1464117580309170212,,5.63996887207,-3.0498008728,-137.427230835,0.00104100001045,1.0,0.0,0.0,0.0,1.0,0.0,0.0,0.0,1.0,-3.35365867615,7.25609779358,9.14634132385,1.0,0.0,0.0,0.0,1.0,0.0,0.0,0.0,1.0,-0.933738647461,-0.833182177734,10.5057568848,1.0,0.0,0.0,0.0,1.0,0.0,0.0,0.0,1.0
1464117580333022611,444,1464117580329823620,,5.58154630661,-2.98413348198,-137.340835571,0.00137399998493,1.0,0.0,0.0,0.0,1.0,0.0,0.0,0.0,1.0,0.304878056049,-5.06097555161,-3.53658556938,1.0,0.0,0.0,0.0,1.0,0.0,0.0,0.0,1.0,1.24498486328,-0.670376464844,10.927136377,1.0,0.0,0.0,0.0,1.0,0.0,0.0,0.0,1.0
1464117580354925843,445,1464117580351278976,,5.4987745285,-3.01389789581,-137.504638672,0.00110500003211,1.0,0.0,0.0,0.0,1.0,0.0,0.0,0.0,1.0,3.71951246262,1.2804877758,-7.74390268326,1.0,0.0,0.0,0.0,1.0,0.0,0.0,0.0,1.0,-1.09654436035,-0.632069238281,9.65821008159,1.0,0.0,0.0,0.0,1.0,0.0,0.0,0.0,1.0
1464117580375905614,446,1464117580372511879,,5.45003080368,-3.04508209229,-137.593948364,0.00121899996884,1.0,0.0,0.0,0.0,1.0,0.0,0.0,0.0,1.0,0.487804889679,-1.40243899822,-1.70731711388,1.0,0.0,0.0,0.0,1.0,0.0,0.0,0.0,1.0,-0.435744702148,-0.46447512207,9.68693991699,1.0,0.0,0.0,0.0,1.0,0.0,0.0,0.0,1.0
1464117580397639831,447,1464117580393435137,,5.43330860138,-3.07304811478,-137.614562988,0.00118799996562,1.0,0.0,0.0,0.0,1.0,0.0,0.0,0.0,1.0,-1.8292683363,3.65853667259,3.10975623131,1.0,0.0,0.0,0.0,1.0,0.0,0.0,0.0,1.0,0.330399829102,-0.962469067383,10.2471831055,1.0,0.0,0.0,0.0,1.0,0.0,0.0,0.0,1.0
1464117580417189304,448,1464117580414186933,,5.52138280869,-3.08528518677,-137.499542236,0.00113700004295,1.0,0.0,0.0,0.0,1.0,0.0,0.0,0.0,1.0,2.01219511032,11.0975618362,7.43902492523,1.0,0.0,0.0,0.0,1.0,0.0,0.0,0.0,1.0,-0.138863696289,-0.723048901367,10.8265799072,1.0,0.0,0.0,0.0,1.0,0.0,0.0,0.0,1.0
1464117580437105505,449,1464117580434911489,,5.68407392502,-3.05416464806,-137.335601807,0.00120199995581,1.0,0.0,0.0,0.0,1.0,0.0,0.0,0.0,1.0,3.59756112099,0.243902444839,4.32926845551,1.0,0.0,0.0,0.0,1.0,0.0,0.0,0.0,1.0,-0.263362164351,0.00957680664062,9.92636008301,1.0,0.0,0.0,0.0,1.0,0.0,0.0,0.0,1.0
1464117580459112490,450,1464117580455592137,,5.5158200264,-3.05482769012,-137.394119263,0.00107799994294,1.0,0.0,0.0,0.0,1.0,0.0,0.0,0.0,1.0,2.37804889679,-2.25609779358,-7.31707334518,1.0,0.0,0.0,0.0,1.0,0.0,0.0,0.0,1.0,0.76614453125,-0.61770402832,10.1514150391,1.0,0.0,0.0,0.0,1.0,0.0,0.0,0.0,1.0
1464117580479488703,451,1464117580476067415,,5.47028446198,-3.10071182251,-137.523651123,0.00106899999082,1.0,0.0,0.0,0.0,1.0,0.0,0.0,0.0,1.0,-0.243902444839,1.09756100178,-6.52439069748,1.0,0.0,0.0,0.0,1.0,0.0,0.0,0.0,1.0,-0.469263525391,-0.344765039063,9.91678327637,1.0,0.0,0.0,0.0,1.0,0.0,0.0,0.0,1.0
1464117580499670068,452,1464117580497441572,,5.45702791214,-3.12794923782,-137.603134155,0.0010450000409,1.0,0.0,0.0,0.0,1.0,0.0,0.0,0.0,1.0,-2.19512200356,-0.853658556938,-1.8902438879,1.0,0.0,0.0,0.0,1.0,0.0,0.0,0.0,1.0,-0.0718260498047,-0.478840332031,10.405200415,1.0,0.0,0.0,0.0,1.0,0.0,0.0,0.0,1.0
1464117580520684318,453,1464117580518058364,,5.43379640579,-3.13960027695,-137.589111328,0.00103599997237,1.0,0.0,0.0,0.0,1.0,0.0,0.0,0.0,1.0,-2.25609779358,5.79268312454,4.32926845551,1.0,0.0,0.0,0.0,1.0,0.0,0.0,0.0,1.0,0.320823022461,-0.555454785156,9.77791958008,1.0,0.0,0.0,0.0,1.0,0.0,0.0,0.0,1.0
1464117580541611484,454,1464117580538978341,,5.59438562393,-3.14429354668,-137.461212158,0.00105500000063,1.0,0.0,0.0,0.0,1.0,0.0,0.0,0.0,1.0,0.0609756112099,9.14634132385,8.04878044128,1.0,0.0,0.0,0.0,1.0,0.0,0.0,0.0,1.0,-0.579396801758,-0.383072265625,10.6302553711,1.0,0.0,0.0,0.0,1.0,0.0,0.0,0.0,1.0
1464117580562770269,455,1464117580560269006,,5.67769575119,-3.11143040657,-137.304534912,0.00141000002623,1.0,0.0,0.0,0.0,1.0,0.0,0.0,0.0,1.0,-0.975609779358,-1.8292683363,0.18292683363,1.0,0.0,0.0,0.0,1.0,0.0,0.0,0.0,1.0,0.656011254883,0.445321508789,10.0077629395,1.0,0.0,0.0,0.0,1.0,0.0,0.0,0.0,1.0
1464117580584113747,456,1464117580580976477,,5.49297857285,-3.13933563232,-137.424255371,0.00106399995275,1.0,0.0,0.0,0.0,1.0,0.0,0.0,0.0,1.0,-4.2682929039,1.03658533096,-7.92682981491,1.0,0.0,0.0,0.0,1.0,0.0,0.0,0.0,1.0,0.478840332031,-0.579396801758,10.2615483154,1.0,0.0,0.0,0.0,1.0,0.0,0.0,0.0,1.0
1464117580605201229,457,1464117580602151774,,5.48338651657,-3.19776749611,-137.570907593,0.00096700002905,1.0,0.0,0.0,0.0,1.0,0.0,0.0,0.0,1.0,-2.07317066193,-1.8902438879,-5.18292713165,1.0,0.0,0.0,0.0,1.0,0.0,0.0,0.0,1.0,-0.818816967773,-1.24019645996,10.2902787354,1.0,0.0,0.0,0.0,1.0,0.0,0.0,0.0,1.0
1464117580626000318,458,1464117580623290247,,5.43689012527,-3.21681451797,-137.62210083,0.00097499997355,1.0,0.0,0.0,0.0,1.0,0.0,0.0,0.0,1.0,-0.18292683363,1.8902438879,-0.731707334518,1.0,0.0,0.0,0.0,1.0,0.0,0.0,0.0,1.0,-0.325611425781,-0.670376464844,10.4818148682,1.0,0.0,0.0,0.0,1.0,0.0,0.0,0.0,1.0
1464117580647314421,459,1464117580643991260,,5.44996547699,-3.21138858795,-137.568954468,0.000953999988269,1.0,0.0,0.0,0.0,1.0,0.0,0.0,0.0,1.0,-2.74390244484,6.28048801422,5.48780488968,1.0,0.0,0.0,0.0,1.0,0.0,0.0,0.0,1.0,0.641646044922,0.478840332031,9.72045874023,1.0,0.0,0.0,0.0,1.0,0.0,0.0,0.0,1.0
1464117580668249659,460,1464117580664647324,,5.62901687622,-3.20173358917,-137.415390015,0.000960999983363,1.0,0.0,0.0,0.0,1.0,0.0,0.0,0.0,1.0,-4.32926845551,9.26829242706,9.14634132385,1.0,0.0,0.0,0.0,1.0,0.0,0.0,0.0,1.0,-0.555454785156,-0.229843359375,10.2759135254,1.0,0.0,0.0,0.0,1.0,0.0,0.0,0.0,1.0
1464117580693079635,461,1464117580685638762,,5.69568347931,-3.19311356544,-137.281600952,0.000956000003498,1.0,0.0,0.0,0.0,1.0,0.0,0.0,0.0,1.0,-3.29268312454,3.96341490746,3.23170733452,1.0,0.0,0.0,0.0,1.0,0.0,0.0,0.0,1.0,-0.205901342773,-0.45968671875,10.0221281494,1.0,0.0,0.0,0.0,1.0,0.0,0.0,0.0,1.0
1464117580711935652,462,1464117580706081696,,5.67262077332,-3.21458268166,-137.298721313,0.0009710000013,1.0,0.0,0.0,0.0,1.0,0.0,0.0,0.0,1.0,-1.2804877758,2.19512200356,-1.70731711388,1.0,0.0,0.0,0.0,1.0,0.0,0.0,0.0,1.0,-0.483628735352,-0.943315454102,10.6781394043,1.0,0.0,0.0,0.0,1.0,0.0,0.0,0.0,1.0
1464117580734464942,463,1464117580726730416,,5.64851903915,-3.23719525337,-137.341751099,0.000959000026342,1.0,0.0,0.0,0.0,1.0,0.0,0.0,0.0,1.0,1.15853655338,-4.02439022064,-3.53658556938,1.0,0.0,0.0,0.0,1.0,0.0,0.0,0.0,1.0,-0.378283862305,-0.77093293457,10.060435376,1.0,0.0,0.0,0.0,1.0,0.0,0.0,0.0,1.0
1464117580752410102,464,1464117580747739354,,5.48456048965,-3.2772102356,-137.452377319,0.000966000021435,1.0,0.0,0.0,0.0,1.0,0.0,0.0,0.0,1.0,-0.243902444839,1.64634156227,-5.30487823486,1.0,0.0,0.0,0.0,1.0,0.0,0.0,0.0,1.0,0.407014282227,-0.60812722168,10.5871597412,1.0,0.0,0.0,0.0,1.0,0.0,0.0,0.0,1.0
1464117580773901188,465,1464117580768398075,,5.5920419693,-3.29277873039,-137.503265381,0.000997000024654,1.0,0.0,0.0,0.0,1.0,0.0,0.0,0.0,1.0,-0.914634168148,6.7682929039,5.42682933807,1.0,0.0,0.0,0.0,1.0,0.0,0.0,0.0,1.0,-2.65277543945,-0.699106884766,10.0652237793,1.0,0.0,0.0,0.0,1.0,0.0,0.0,0.0,1.0
1464117580793898069,466,1464117580789481442,,5.71316432953,-3.28558182716,-137.364730835,0.00122800003737,1.0,0.0,0.0,0.0,1.0,0.0,0.0,0.0,1.0,-1.34146344662,5.24390268326,7.07317113876,1.0,0.0,0.0,0.0,1.0,0.0,0.0,0.0,1.0,-0.60812722168,-1.21625444336,10.7882726807,1.0,0.0,0.0,0.0,1.0,0.0,0.0,0.0,1.0
1464117580815050917,467,1464117580810185945,,5.70874404907,-3.23735308647,-137.257614136,0.00131800002418,1.0,0.0,0.0,0.0,1.0,0.0,0.0,0.0,1.0,-0.426829278469,2.5,1.70731711388,1.0,0.0,0.0,0.0,1.0,0.0,0.0,0.0,1.0,0.569819995117,-0.239420166016,10.5584293213,1.0,0.0,0.0,0.0,1.0,0.0,0.0,0.0,1.0
1464117580836988004,468,1464117580831153736,,5.73578929901,-3.25273990631,-137.297454834,0.00109100004192,1.0,0.0,0.0,0.0,1.0,0.0,0.0,0.0,1.0,2.07317066193,0.975609779358,-0.670731723309,1.0,0.0,0.0,0.0,1.0,0.0,0.0,0.0,1.0,-1.04387185076,-1.04866025408,10.2902787354,1.0,0.0,0.0,0.0,1.0,0.0,0.0,0.0,1.0
1464117580856156477,469,1464117580852372628,,5.64263057709,-3.27333235741,-137.331192017,0.00106100004632,1.0,0.0,0.0,0.0,1.0,0.0,0.0,0.0,1.0,1.2195122242,-2.98780488968,-3.41463422775,1.0,0.0,0.0,0.0,1.0,0.0,0.0,0.0,1.0,0.129286889648,-1.07739082014,10.2615483154,1.0,0.0,0.0,0.0,1.0,0.0,0.0,0.0,1.0
1464117580881445320,470,1464117580873679022,,5.5435667038,-3.30587267876,-137.434646606,0.00120900000911,1.0,0.0,0.0,0.0,1.0,0.0,0.0,0.0,1.0,2.43902444839,4.45121955872,-3.65853667259,1.0,0.0,0.0,0.0,1.0,0.0,0.0,0.0,1.0,-0.292092584273,-0.517147558594,10.4578728516,1.0,0.0,0.0,0.0,1.0,0.0,0.0,0.0,1.0
1464117580900991928,471,1464117580894357638,,5.67919063568,-3.31833529472,-137.416290283,0.00116400001571,1.0,0.0,0.0,0.0,1.0,0.0,0.0,0.0,1.0,2.80487799644,5.24390268326,5.18292713165,1.0,0.0,0.0,0.0,1.0,0.0,0.0,0.0,1.0,-0.497993945312,-0.584185168546,10.7739074707,1.0,0.0,0.0,0.0,1.0,0.0,0.0,0.0,1.0
1464117580919547520,472,1464117580915681012,,5.79194259644,-3.30011510849,-137.295654297,0.00111599999946,1.0,0.0,0.0,0.0,1.0,0.0,0.0,0.0,1.0,1.76829278469,1.34146344662,5.67073154449,1.0,0.0,0.0,0.0,1.0,0.0,0.0,0.0,1.0,0.268150604204,-0.263362164351,10.0508585693,1.0,0.0,0.0,0.0,1.0,0.0,0.0,0.0,1.0
1464117580939991183,473,1464117580936214781,,5.68713378906,-3.26573371887,-137.249923706,0.000983000034466,1.0,0.0,0.0,0.0,1.0,0.0,0.0,0.0,1.0,0.487804889679,3.90243911743,-2.01219511032,1.0,0.0,0.0,0.0,1.0,0.0,0.0,0.0,1.0,-0.105344873047,-0.339976635742,10.1562034424,1.0,0.0,0.0,0.0,1.0,0.0,0.0,0.0,1.0
1464117580960433127,474,1464117580956664955,,5.74741458893,-3.30736041069,-137.303848267,0.00097499997355,1.0,0.0,0.0,0.0,1.0,0.0,0.0,0.0,1.0,-1.76829278469,0.914634168148,0.243902444839,1.0,0.0,0.0,0.0,1.0,0.0,0.0,0.0,1.0,-0.560243188477,-0.718260498047,9.8784760498,1.0,0.0,0.0,0.0,1.0,0.0,0.0,0.0,1.0
1464117580980890071,475,1464117580977757958,,5.73906707764,-3.33023071289,-137.277435303,0.000972000008915,1.0,0.0,0.0,0.0,1.0,0.0,0.0,0.0,1.0,-1.15853655338,3.7804877758,1.2195122242,1.0,0.0,0.0,0.0,1.0,0.0,0.0,0.0,1.0,0.162805712891,-0.488417138672,10.2615483154,1.0,0.0,0.0,0.0,1.0,0.0,0.0,0.0,1.0
1464117581001010757,476,1464117580998848200,,5.74322128296,-3.32491707802,-137.273391724,0.000954999995884,1.0,0.0,0.0,0.0,1.0,0.0,0.0,0.0,1.0,-1.03658533096,1.46341466904,-0.975609779358,1.0,0.0,0.0,0.0,1.0,0.0,0.0,0.0,1.0,-0.641646044922,-0.588973571866,10.3477395752,1.0,0.0,0.0,0.0,1.0,0.0,0.0,0.0,1.0
1464117581022724141,477,1464117581019496243,,5.73541402817,-3.35169577599,-137.291931152,0.000991999986582,1.0,0.0,0.0,0.0,1.0,0.0,0.0,0.0,1.0,-0.18292683363,1.8902438879,0.792682945728,1.0,0.0,0.0,0.0,1.0,0.0,0.0,0.0,1.0,-0.114921679688,-0.665588061523,10.285490332,1.0,0.0,0.0,0.0,1.0,0.0,0.0,0.0,1.0
1464117581042447784,478,1464117581040319968,,5.72320604324,-3.34035420418,-137.284332275,0.00097499997355,1.0,0.0,0.0,0.0,1.0,0.0,0.0,0.0,1.0,0.853658556938,-0.914634168148,-3.41463422775,1.0,0.0,0.0,0.0,1.0,0.0,0.0,0.0,1.0,0.277727392578,-0.253785375977,11.0660000732,1.0,0.0,0.0,0.0,1.0,0.0,0.0,0.0,1.0
1464117581063692354,479,1464117581061143797,,5.57915019989,-3.36173605919,-137.387390137,0.000992999994196,1.0,0.0,0.0,0.0,1.0,0.0,0.0,0.0,1.0,-2.25609779358,-0.853658556938,-6.70731735229,1.0,0.0,0.0,0.0,1.0,0.0,0.0,0.0,1.0,0.584185168546,-0.248996972656,9.63905646831,1.0,0.0,0.0,0.0,1.0,0.0,0.0,0.0,1.0
1464117581084501859,480,1464117581081662826,,5.56926727295,-3.37757182121,-137.491744995,0.000957000011113,1.0,0.0,0.0,0.0,1.0,0.0,0.0,0.0,1.0,-2.92682933807,2.37804889679,-1.76829278469,1.0,0.0,0.0,0.0,1.0,0.0,0.0,0.0,1.0,-1.14921679688,-0.593762048251,10.2711251221,1.0,0.0,0.0,0.0,1.0,0.0,0.0,0.0,1.0
1464117581105324386,481,1464117581102385090,,5.60529470444,-3.37937927246,-137.468215942,0.000962999998592,1.0,0.0,0.0,0.0,1.0,0.0,0.0,0.0,1.0,-0.914634168148,2.56097555161,2.13414645195,1.0,0.0,0.0,0.0,1.0,0.0,0.0,0.0,1.0,-0.45968671875,-0.541089611728,10.5488525146,1.0,0.0,0.0,0.0,1.0,0.0,0.0,0.0,1.0
1464117581125820186,482,1464117581123663775,,5.59756135941,-3.35367369652,-137.39704895,0.000959999975748,1.0,0.0,0.0,0.0,1.0,0.0,0.0,0.0,1.0,0.0,4.45121955872,3.47560977936,1.0,0.0,0.0,0.0,1.0,0.0,0.0,0.0,1.0,0.392649072266,-0.507570751953,10.5440641113,1.0,0.0,0.0,0.0,1.0,0.0,0.0,0.0,1.0
1464117581149186530,483,1464117581144329840,,5.67990112305,-3.36227440834,-137.365478516,0.000962999998592,1.0,0.0,0.0,0.0,1.0,0.0,0.0,0.0,1.0,1.03658533096,2.62195134163,1.03658533096,1.0,0.0,0.0,0.0,1.0,0.0,0.0,0.0,1.0,-0.790086547852,-0.751779321289,10.1609918457,1.0,0.0,0.0,0.0,1.0,0.0,0.0,0.0,1.0
1464117581167357060,484,1464117581165178513,,5.61049747467,-3.36595201492,-137.367355347,0.000975999981165,1.0,0.0,0.0,0.0,1.0,0.0,0.0,0.0,1.0,1.64634156227,-2.25609779358,-2.92682933807,1.0,0.0,0.0,0.0,1.0,0.0,0.0,0.0,1.0,0.0574608398438,-0.699106884766,10.5009684814,1.0,0.0,0.0,0.0,1.0,0.0,0.0,0.0,1.0
1464117581192572984,485,1464117581186217921,,5.48060178757,-3.41468691826,-137.477752686,0.000964000006206,1.0,0.0,0.0,0.0,1.0,0.0,0.0,0.0,1.0,0.853658556938,2.13414645195,-4.32926845551,1.0,0.0,0.0,0.0,1.0,0.0,0.0,0.0,1.0,0.067037651051,-1.01992990723,10.180145459,1.0,0.0,0.0,0.0,1.0,0.0,0.0,0.0,1.0
1464117581215792918,486,1464117581206768982,,5.55181741714,-3.42545390129,-137.529220581,0.00097499997355,1.0,0.0,0.0,0.0,1.0,0.0,0.0,0.0,1.0,-0.792682945728,8.90243911743,0.609756112099,1.0,0.0,0.0,0.0,1.0,0.0,0.0,0.0,1.0,-1.00556469727,0.325611425781,10.7308118408,1.0,0.0,0.0,0.0,1.0,0.0,0.0,0.0,1.0
1464117581232377937,487,1464117581227759170,,5.70051240921,-3.41746926308,-137.386779785,0.00096700002905,1.0,0.0,0.0,0.0,1.0,0.0,0.0,0.0,1.0,-4.20731735229,8.5365858078,9.08536529541,1.0,0.0,0.0,0.0,1.0,0.0,0.0,0.0,1.0,-0.694318481445,-0.316034619141,10.2807019287,1.0,0.0,0.0,0.0,1.0,0.0,0.0,0.0,1.0
1464117581253650945,488,1464117581249106502,,5.6873793602,-3.37871265411,-137.290359497,0.00103899999522,1.0,0.0,0.0,0.0,1.0,0.0,0.0,0.0,1.0,-0.243902444839,-5.48780488968,-2.19512200356,1.0,0.0,0.0,0.0,1.0,0.0,0.0,0.0,1.0,1.16358193377,-0.651222851562,10.9223479736,1.0,0.0,0.0,0.0,1.0,0.0,0.0,0.0,1.0
1464117581272866711,489,1464117581270312685,,5.56418371201,-3.40398073196,-137.424362183,0.00118899997324,1.0,0.0,0.0,0.0,1.0,0.0,0.0,0.0,1.0,4.02439022064,2.5,-7.80487823486,1.0,0.0,0.0,0.0,1.0,0.0,0.0,0.0,1.0,-0.814028564453,-1.17794714373,10.1897222656,1.0,0.0,0.0,0.0,1.0,0.0,0.0,0.0,1.0
1464117581296223679,490,1464117581290980833,,5.54876470566,-3.42005228996,-137.526916504,0.0012080000015,1.0,0.0,0.0,0.0,1.0,0.0,0.0,0.0,1.0,1.76829278469,-4.20731735229,-2.86585378647,1.0,0.0,0.0,0.0,1.0,0.0,0.0,0.0,1.0,-0.15801730957,-0.225054956055,9.85932243652,1.0,0.0,0.0,0.0,1.0,0.0,0.0,0.0,1.0
1464117581317630597,491,1464117581312109306,,5.50595331192,-3.43159246445,-137.571914673,0.00122400000691,1.0,0.0,0.0,0.0,1.0,0.0,0.0,0.0,1.0,-1.76829278469,3.47560977936,0.731707334518,1.0,0.0,0.0,0.0,1.0,0.0,0.0,0.0,1.0,0.0430956298828,-0.15801730957,10.3429511719,1.0,0.0,0.0,0.0,1.0,0.0,0.0,0.0,1.0
1464117581337898161,492,1464117581333062982,,5.569231987,-3.44685792923,-137.462783813,0.00118400005158,1.0,0.0,0.0,0.0,1.0,0.0,0.0,0.0,1.0,1.46341466904,9.08536529541,7.86585378647,1.0,0.0,0.0,0.0,1.0,0.0,0.0,0.0,1.0,0.138863696289,-0.450109912109,10.7834842773,1.0,0.0,0.0,0.0,1.0,0.0,0.0,0.0,1.0
1464117581357124084,493,1464117581353834622,,5.75746107101,-3.4103603363,-137.298828125,0.00116999994498,1.0,0.0,0.0,0.0,1.0,0.0,0.0,0.0,1.0,2.62195134163,0.304878056049,5.24390268326,1.0,0.0,0.0,0.0,1.0,0.0,0.0,0.0,1.0,-0.0143652099609,0.138863696289,9.90720646973,1.0,0.0,0.0,0.0,1.0,0.0,0.0,0.0,1.0
1464117581377895359,494,1464117581374887103,,5.59208202362,-3.38674974442,-137.353820801,0.00112100003753,1.0,0.0,0.0,0.0,1.0,0.0,0.0,0.0,1.0,2.07317066193,-2.25609779358,-8.23170757294,1.0,0.0,0.0,0.0,1.0,0.0,0.0,0.0,1.0,0.421379492187,-0.488417138672,10.0843773926,1.0,0.0,0.0,0.0,1.0,0.0,0.0,0.0,1.0
1464117581398708511,495,1464117581395765256,,5.53161525726,-3.4480509758,-137.4896698,0.00114399997983,1.0,0.0,0.0,0.0,1.0,0.0,0.0,0.0,1.0,-0.853658556938,3.23170733452,-3.90243911743,1.0,0.0,0.0,0.0,1.0,0.0,0.0,0.0,1.0,-0.751779321289,-1.42215578613,9.52413478862,1.0,0.0,0.0,0.0,1.0,0.0,0.0,0.0,1.0
1464117581422183504,496,1464117581416422779,,5.66279888153,-3.46168375015,-137.455993652,0.0010450000409,1.0,0.0,0.0,0.0,1.0,0.0,0.0,0.0,1.0,0.426829278469,4.87804889679,5.60975599289,1.0,0.0,0.0,0.0,1.0,0.0,0.0,0.0,1.0,0.277727392578,-0.110133276367,10.3573163818,1.0,0.0,0.0,0.0,1.0,0.0,0.0,0.0,1.0
1464117581440663625,497,1464117581437006810,,5.8289732933,-3.4516954422,-137.306915283,0.00100899999961,1.0,0.0,0.0,0.0,1.0,0.0,0.0,0.0,1.0,0.975609779358,4.32926845551,5.97560977936,1.0,0.0,0.0,0.0,1.0,0.0,0.0,0.0,1.0,0.0239420166016,-0.421379492187,10.2423947021,1.0,0.0,0.0,0.0,1.0,0.0,0.0,0.0,1.0
1464117581461047130,498,1464117581457775377,,5.74765396118,-3.41339612007,-137.21144104,0.000965000013821,1.0,0.0,0.0,0.0,1.0,0.0,0.0,0.0,1.0,-0.243902444839,2.62195134163,0.243902444839,1.0,0.0,0.0,0.0,1.0,0.0,0.0,0.0,1.0,0.656011254883,-0.105344873047,10.2232410889,1.0,0.0,0.0,0.0,1.0,0.0,0.0,0.0,1.0
1464117581481656579,499,1464117581479081302,,5.78807115555,-3.4431180954,-137.290649414,0.000964000006206,1.0,0.0,0.0,0.0,1.0,0.0,0.0,0.0,1.0,-1.64634156227,-2.19512200356,-4.75609779358,1.0,0.0,0.0,0.0,1.0,0.0,0.0,0.0,1.0,-0.636857641602,-0.823605371094,10.2423947021,1.0,0.0,0.0,0.0,1.0,0.0,0.0,0.0,1.0
1464117581511313348,500,1464117581500359831,,5.60569143295,-3.47236132622,-137.404037476,0.00097499997355,1.0,0.0,0.0,0.0,1.0,0.0,0.0,0.0,1.0,-1.46341466904,-3.04878044128,-8.84146404266,1.0,0.0,0.0,0.0,1.0,0.0,0.0,0.0,1.0,0.881066210937,-0.579396801758,10.1226846191,1.0,0.0,0.0,0.0,1.0,0.0,0.0,0.0,1.0
1464117581533547787,501,1464117581521317726,,5.53482675552,-3.48346328735,-137.525650024,0.000962999998592,1.0,0.0,0.0,0.0,1.0,0.0,0.0,0.0,1.0,-2.25609779358,1.76829278469,-4.02439022064,1.0,0.0,0.0,0.0,1.0,0.0,0.0,0.0,1.0,-1.19231249982,-0.31124621582,9.94551369629,1.0,0.0,0.0,0.0,1.0,0.0,0.0,0.0,1.0
1464117581546706884,502,1464117581542612974,,5.53045988083,-3.48492264748,-137.565460205,0.000954999995884,1.0,0.0,0.0,0.0,1.0,0.0,0.0,0.0,1.0,-2.56097555161,2.25609779358,-1.40243899822,1.0,0.0,0.0,0.0,1.0,0.0,0.0,0.0,1.0,-0.373495458984,-0.622492431641,10.3094323486,1.0,0.0,0.0,0.0,1.0,0.0,0.0,0.0,1.0
1464117581567122942,503,1464117581563387375,,5.56016302109,-3.49818897247,-137.540359497,0.000962999998592,1.0,0.0,0.0,0.0,1.0,0.0,0.0,0.0,1.0,-4.08536577225,2.56097555161,5.18292713165,1.0,0.0,0.0,0.0,1.0,0.0,0.0,0.0,1.0,1.48919343262,-1.13006318359,9.64863327495,1.0,0.0,0.0,0.0,1.0,0.0,0.0,0.0,1.0
1464117581589524833,504,1464117581584615746,,5.67191553116,-3.47743797302,-137.390563965,0.000957000011113,1.0,0.0,0.0,0.0,1.0,0.0,0.0,0.0,1.0,-3.59756112099,9.08536529541,7.86585378647,1.0,0.0,0.0,0.0,1.0,0.0,0.0,0.0,1.0,-0.746990917969,-0.0909796630859,10.4913916748,1.0,0.0,0.0,0.0,1.0,0.0,0.0,0.0,1.0
1464117581610006414,505,1464117581606030215,,5.76698207855,-3.46987986565,-137.263259888,0.000958000018727,1.0,0.0,0.0,0.0,1.0,0.0,0.0,0.0,1.0,-2.98780488968,3.53658556938,3.10975623131,1.0,0.0,0.0,0.0,1.0,0.0,0.0,0.0,1.0,-0.253785375977,-0.541089611728,10.1753570557,1.0,0.0,0.0,0.0,1.0,0.0,0.0,0.0,1.0
1464117581632311063,506,1464117581626447836,,5.73741102219,-3.47775530815,-137.274200439,0.000965000013821,1.0,0.0,0.0,0.0,1.0,0.0,0.0,0.0,1.0,-1.09756100178,2.5,-1.52439022064,1.0,0.0,0.0,0.0,1.0,0.0,0.0,0.0,1.0,-0.263362164351,-1.16358193377,10.7978494873,1.0,0.0,0.0,0.0,1.0,0.0,0.0,0.0,1.0
1464117581654819832,507,1464117581647309062,,5.71567487717,-3.49400091171,-137.314880371,0.000954999995884,1.0,0.0,0.0,0.0,1.0,0.0,0.0,0.0,1.0,0.914634168148,-4.2682929039,-3.23170733452,1.0,0.0,0.0,0.0,1.0,0.0,0.0,0.0,1.0,-0.220266552734,-0.660799658203,10.2376062988,1.0,0.0,0.0,0.0,1.0,0.0,0.0,0.0,1.0
1464117581671424904,508,1464117581668031638,,5.56130409241,-3.53483939171,-137.423614502,0.0010529999854,1.0,0.0,0.0,0.0,1.0,0.0,0.0,0.0,1.0,-0.0609756112099,0.18292683363,-4.93902444839,1.0,0.0,0.0,0.0,1.0,0.0,0.0,0.0,1.0,0.210689746094,-0.646434448242,10.4961800781,1.0,0.0,0.0,0.0,1.0,0.0,0.0,0.0,1.0
1464117581692705308,509,1464117581689254957,,5.56006765366,-3.53302574158,-137.526641846,0.00105700001586,1.0,0.0,0.0,0.0,1.0,0.0,0.0,0.0,1.0,1.70731711388,-0.243902444839,-3.71951246262,1.0,0.0,0.0,0.0,1.0,0.0,0.0,0.0,1.0,-1.00077629395,-0.723048901367,10.4243540283,1.0,0.0,0.0,0.0,1.0,0.0,0.0,0.0,1.0
1464117581714025452,510,1464117581710065244,,5.51248216629,-3.51946544647,-137.563598633,0.0017269999953,1.0,0.0,0.0,0.0,1.0,0.0,0.0,0.0,1.0,1.8292683363,0.304878056049,0.365853667259,1.0,0.0,0.0,0.0,1.0,0.0,0.0,0.0,1.0,0.110133276367,-0.330399829102,10.285490332,1.0,0.0,0.0,0.0,1.0,0.0,0.0,0.0,1.0
1464117581737846183,511,1464117581731448567,,5.56723499298,-3.5118906498,-137.495925903,0.00112599995919,1.0,0.0,0.0,0.0,1.0,0.0,0.0,0.0,1.0,1.2804877758,4.87804889679,5.85365867615,1.0,0.0,0.0,0.0,1.0,0.0,0.0,0.0,1.0,0.349553442383,-1.29286889648,10.6158901611,1.0,0.0,0.0,0.0,1.0,0.0,0.0,0.0,1.0
1464117581757000020,512,1464117581753280339,,5.71504259109,-3.49362421036,-137.339660645,0.00143299996853,1.0,0.0,0.0,0.0,1.0,0.0,0.0,0.0,1.0,1.8292683363,5.06097555161,7.56097555161,1.0,0.0,0.0,0.0,1.0,0.0,0.0,0.0,1.0,-0.60812722168,-0.785298144531,10.5584293213,1.0,0.0,0.0,0.0,1.0,0.0,0.0,0.0,1.0
1464117581778027188,513,1464117581774634494,,5.70161437988,-3.46993923187,-137.285476685,0.00126799999271,1.0,0.0,0.0,0.0,1.0,0.0,0.0,0.0,1.0,2.5,2.5,-1.2804877758,1.0,0.0,0.0,0.0,1.0,0.0,0.0,0.0,1.0,-0.0430956298828,-0.526724328702,10.3764699951,1.0,0.0,0.0,0.0,1.0,0.0,0.0,0.0,1.0
1464117581798286367,514,1464117581795737914,,5.72304677963,-3.49501538277,-137.31036377,0.00116400001571,1.0,0.0,0.0,0.0,1.0,0.0,0.0,0.0,1.0,0.426829278469,1.34146344662,1.15853655338,1.0,0.0,0.0,0.0,1.0,0.0,0.0,0.0,1.0,-0.407014282227,-0.670376464844,10.0364933594,1.0,0.0,0.0,0.0,1.0,0.0,0.0,0.0,1.0
1464117581821310254,515,1464117581816998578,,5.72225236893,-3.52263855934,-137.266906738,0.00131399999373,1.0,0.0,0.0,0.0,1.0,0.0,0.0,0.0,1.0,-0.975609779358,3.35365867615,1.58536589146,1.0,0.0,0.0,0.0,1.0,0.0,0.0,0.0,1.0,0.129286889648,-0.383072265625,10.0748005859,1.0,0.0,0.0,0.0,1.0,0.0,0.0,0.0,1.0
1464117581841712405,516,1464117581837179421,,5.7195224762,-3.5290286541,-137.279251099,0.00119500001892,1.0,0.0,0.0,0.0,1.0,0.0,0.0,0.0,1.0,-1.15853655338,1.8292683363,-1.46341466904,1.0,0.0,0.0,0.0,1.0,0.0,0.0,0.0,1.0,-0.272938989258,-0.560243188477,10.3860468018,1.0,0.0,0.0,0.0,1.0,0.0,0.0,0.0,1.0
1464117581863850279,517,1464117581858016532,,5.72315979004,-3.54929876328,-137.301895142,0.0011340000201,1.0,0.0,0.0,0.0,1.0,0.0,0.0,0.0,1.0,-0.426829278469,2.43902444839,0.548780500889,1.0,0.0,0.0,0.0,1.0,0.0,0.0,0.0,1.0,-0.344765039063,-0.593762048251,10.1705686523,1.0,0.0,0.0,0.0,1.0,0.0,0.0,0.0,1.0
1464117581892696767,518,1464117581880543218,,5.73126554489,-3.53273367882,-137.291397095,0.00124000001233,1.0,0.0,0.0,0.0,1.0,0.0,0.0,0.0,1.0,-0.12195122242,2.07317066193,0.0609756112099,1.0,0.0,0.0,0.0,1.0,0.0,0.0,0.0,1.0,-0.225054956055,-0.292092584273,10.3094323486,1.0,0.0,0.0,0.0,1.0,0.0,0.0,0.0,1.0
1464117581906078109,519,1464117581900882139,,5.7278676033,-3.52734994888,-137.303100586,0.00188400002662,1.0,0.0,0.0,0.0,1.0,0.0,0.0,0.0,1.0,-0.426829278469,2.19512200356,-0.12195122242,1.0,0.0,0.0,0.0,1.0,0.0,0.0,0.0,1.0,-0.363918652344,-0.488417138672,10.1466266357,1.0,0.0,0.0,0.0,1.0,0.0,0.0,0.0,1.0
1464117581929807639,520,1464117581921910036,,5.73735380173,-3.53495502472,-137.290039062,0.00112599995919,1.0,0.0,0.0,0.0,1.0,0.0,0.0,0.0,1.0,-0.731707334518,2.19512200356,0.731707334518,1.0,0.0,0.0,0.0,1.0,0.0,0.0,0.0,1.0,-0.181959326172,-0.493205541992,10.3573163818,1.0,0.0,0.0,0.0,1.0,0.0,0.0,0.0,1.0
1464117581953654152,521,1464117581943278254,,5.72663211823,-3.53376150131,-137.289886475,0.00117399997544,1.0,0.0,0.0,0.0,1.0,0.0,0.0,0.0,1.0,-0.304878056049,2.19512200356,-0.731707334518,1.0,0.0,0.0,0.0,1.0,0.0,0.0,0.0,1.0,-0.220266552734,-0.531512805087,10.2423947021,1.0,0.0,0.0,0.0,1.0,0.0,0.0,0.0,1.0
1464117581973504987,522,1464117581963829993,,5.73036241531,-3.54187560081,-137.299667358,0.00107600004412,1.0,0.0,0.0,0.0,1.0,0.0,0.0,0.0,1.0,-0.365853667259,2.13414645195,0.12195122242,1.0,0.0,0.0,0.0,1.0,0.0,0.0,0.0,1.0,-0.3064578125,-0.536301208408,10.3812583984,1.0,0.0,0.0,0.0,1.0,0.0,0.0,0.0,1.0
1464117581992599239,523,1464117581984696427,,5.72766304016,-3.54156708717,-137.292800903,0.0010150000453,1.0,0.0,0.0,0.0,1.0,0.0,0.0,0.0,1.0,-0.365853667259,2.13414645195,0.304878056049,1.0,0.0,0.0,0.0,1.0,0.0,0.0,0.0,1.0,-0.129286889648,-0.421379492187,10.2136642822,1.0,0.0,0.0,0.0,1.0,0.0,0.0,0.0,1.0
1464117582009273428,524,1464117582005736147,,5.71816730499,-3.5447511673,-137.298141479,0.00104600004852,1.0,0.0,0.0,0.0,1.0,0.0,0.0,0.0,1.0,-0.487804889679,2.07317066193,-0.243902444839,1.0,0.0,0.0,0.0,1.0,0.0,0.0,0.0,1.0,-0.225054956055,-0.588973571866,10.2088758789,1.0,0.0,0.0,0.0,1.0,0.0,0.0,0.0,1.0
1464117582030433359,525,1464117582026650552,,5.72363328934,-3.55846142769,-137.296112061,0.00101699994411,1.0,0.0,0.0,0.0,1.0,0.0,0.0,0.0,1.0,-0.18292683363,2.19512200356,0.426829278469,1.0,0.0,0.0,0.0,1.0,0.0,0.0,0.0,1.0,-0.272938989258,-0.584185168546,10.2184526855,1.0,0.0,0.0,0.0,1.0,0.0,0.0,0.0,1.0
1464117582051354483,526,1464117582047327241,,5.71804237366,-3.56137990952,-137.298934937,0.00101000000723,1.0,0.0,0.0,0.0,1.0,0.0,0.0,0.0,1.0,-0.304878056049,2.07317066193,-0.426829278469,1.0,0.0,0.0,0.0,1.0,0.0,0.0,0.0,1.0,-0.191536132812,-0.584185168546,10.1466266357,1.0,0.0,0.0,0.0,1.0,0.0,0.0,0.0,1.0
1464117582075219746,527,1464117582068899788,,5.72005939484,-3.56445288658,-137.307830811,0.00110600003973,1.0,0.0,0.0,0.0,1.0,0.0,0.0,0.0,1.0,-0.304878056049,1.8902438879,0.12195122242,1.0,0.0,0.0,0.0,1.0,0.0,0.0,0.0,1.0,-0.292092584273,-0.531512805087,10.299855542,1.0,0.0,0.0,0.0,1.0,0.0,0.0,0.0,1.0
1464117582099090582,528,1464117582091540696,,5.69363546371,-3.56801104546,-137.336288452,0.00157800002489,1.0,0.0,0.0,0.0,1.0,0.0,0.0,0.0,1.0,-0.548780500889,0.853658556938,-1.2195122242,1.0,0.0,0.0,0.0,1.0,0.0,0.0,0.0,1.0,-0.253785375977,-0.785298144531,10.3333743652,1.0,0.0,0.0,0.0,1.0,0.0,0.0,0.0,1.0
1464117582115794720,529,1464117582113526379,,5.67541837692,-3.57534384727,-137.370941162,0.00285100005567,1.0,0.0,0.0,0.0,1.0,0.0,0.0,0.0,1.0,2.19512200356,0.12195122242,-0.731707334518,1.0,0.0,0.0,0.0,1.0,0.0,0.0,0.0,1.0,-0.478840332031,-0.780509741211,10.4913916748,1.0,0.0,0.0,0.0,1.0,0.0,0.0,0.0,1.0
1464117582138252290,530,1464117582136032856,,5.63860225677,-3.56382870674,-137.386779785,0.00238700001501,1.0,0.0,0.0,0.0,1.0,0.0,0.0,0.0,1.0,1.15853655338,1.64634156227,-0.548780500889,1.0,0.0,0.0,0.0,1.0,0.0,0.0,0.0,1.0,0.143652099609,-0.363918652344,10.0317049561,1.0,0.0,0.0,0.0,1.0,0.0,0.0,0.0,1.0
1464117582159467483,531,1464117582156534177,,5.63229703903,-3.56669807434,-137.398422241,0.00230600009672,1.0,0.0,0.0,0.0,1.0,0.0,0.0,0.0,1.0,0.548780500889,1.15853655338,-0.487804889679,1.0,0.0,0.0,0.0,1.0,0.0,0.0,0.0,1.0,0.067037651051,-0.512359155273,10.180145459,1.0,0.0,0.0,0.0,1.0,0.0,0.0,0.0,1.0
1464117582180110943,532,1464117582177503218,,5.61408233643,-3.56640195847,-137.409362793,0.0011040000245,1.0,0.0,0.0,0.0,1.0,0.0,0.0,0.0,1.0,0.487804889679,1.15853655338,-0.426829278469,1.0,0.0,0.0,0.0,1.0,0.0,0.0,0.0,1.0,0.148440512063,-0.521935925381,10.3333743652,1.0,0.0,0.0,0.0,1.0,0.0,0.0,0.0,1.0
1464117582203333325,533,1464117582199463223,,5.60092687607,-3.56620168686,-137.427566528,0.0019729998894,1.0,0.0,0.0,0.0,1.0,0.0,0.0,0.0,1.0,0.12195122242,1.64634156227,-1.15853655338,1.0,0.0,0.0,0.0,1.0,0.0,0.0,0.0,1.0,-0.138863696289,-0.440533105469,10.2232410889,1.0,0.0,0.0,0.0,1.0,0.0,0.0,0.0,1.0
1464117582221993711,534,1464117582219747142,,5.58087491989,-3.56862044334,-137.44682312,0.00118000002112,1.0,0.0,0.0,0.0,1.0,0.0,0.0,0.0,1.0,-0.792682945728,1.2804877758,-0.853658556938,1.0,0.0,0.0,0.0,1.0,0.0,0.0,0.0,1.0,-0.0430956298828,-0.440533105469,10.1178962158,1.0,0.0,0.0,0.0,1.0,0.0,0.0,0.0,1.0
1464117582246928065,535,1464117582241069161,,5.55784034729,-3.57652854919,-137.464385986,0.00263000000268,1.0,0.0,0.0,0.0,1.0,0.0,0.0,0.0,1.0,-1.34146344662,2.13414645195,-0.426829278469,1.0,0.0,0.0,0.0,1.0,0.0,0.0,0.0,1.0,-0.172382519531,-0.550666381836,10.165780249,1.0,0.0,0.0,0.0,1.0,0.0,0.0,0.0,1.0
1464117582264580873,536,1464117582261956065,,5.56324958801,-3.57744431496,-137.478179932,0.00101999996696,1.0,0.0,0.0,0.0,1.0,0.0,0.0,0.0,1.0,-1.40243899822,2.43902444839,-0.18292683363,1.0,0.0,0.0,0.0,1.0,0.0,0.0,0.0,1.0,-0.225054956055,-0.478840332031,10.2423947021,1.0,0.0,0.0,0.0,1.0,0.0,0.0,0.0,1.0
1464117582285558613,537,1464117582283086829,,5.56925201416,-3.57567763329,-137.484542847,0.00101799995173,1.0,0.0,0.0,0.0,1.0,0.0,0.0,0.0,1.0,-1.09756100178,1.46341466904,0.18292683363,1.0,0.0,0.0,0.0,1.0,0.0,0.0,0.0,1.0,-0.320823022461,-0.526724328702,10.2376062988,1.0,0.0,0.0,0.0,1.0,0.0,0.0,0.0,1.0
1464117582307334498,538,1464117582304412911,,5.55693531036,-3.5768764019,-137.490646362,0.0010300000431,1.0,0.0,0.0,0.0,1.0,0.0,0.0,0.0,1.0,-0.853658556938,2.13414645195,-0.0609756112099,1.0,0.0,0.0,0.0,1.0,0.0,0.0,0.0,1.0,-0.3064578125,-0.517147558594,10.2567599121,1.0,0.0,0.0,0.0,1.0,0.0,0.0,0.0,1.0
1464117582329632272,539,1464117582325554196,,5.55237674713,-3.58390903473,-137.499237061,0.000973000016529,1.0,0.0,0.0,0.0,1.0,0.0,0.0,0.0,1.0,-1.09756100178,2.01219511032,-0.487804889679,1.0,0.0,0.0,0.0,1.0,0.0,0.0,0.0,1.0,-0.296881024126,-0.550666381836,10.3764699951,1.0,0.0,0.0,0.0,1.0,0.0,0.0,0.0,1.0
1464117582349520921,540,1464117582346843715,,5.54199934006,-3.58553433418,-137.506774902,0.00101100001484,1.0,0.0,0.0,0.0,1.0,0.0,0.0,0.0,1.0,-0.0609756112099,2.31707310677,-0.243902444839,1.0,0.0,0.0,0.0,1.0,0.0,0.0,0.0,1.0,-0.114921679688,-0.723048901367,10.180145459,1.0,0.0,0.0,0.0,1.0,0.0,0.0,0.0,1.0
1464117582370632726,541,1464117582368015001,,5.62032413483,-3.5920996666,-137.464233398,0.00101899995934,1.0,0.0,0.0,0.0,1.0,0.0,0.0,0.0,1.0,-1.2804877758,6.7682929039,5.06097555161,1.0,0.0,0.0,0.0,1.0,0.0,0.0,0.0,1.0,-0.134075302102,0.0861912597656,10.3908352051,1.0,0.0,0.0,0.0,1.0,0.0,0.0,0.0,1.0
1464117582391563485,542,1464117582389149671,,5.7916560173,-3.5794005394,-137.310043335,0.00108199997339,1.0,0.0,0.0,0.0,1.0,0.0,0.0,0.0,1.0,-1.2195122242,7.86585378647,8.65853691101,1.0,0.0,0.0,0.0,1.0,0.0,0.0,0.0,1.0,-1.12527478027,-0.253785375977,10.1562034424,1.0,0.0,0.0,0.0,1.0,0.0,0.0,0.0,1.0
1464117582413513594,543,1464117582410503254,,5.86315202713,-3.55960655212,-137.179458618,0.00143699999899,1.0,0.0,0.0,0.0,1.0,0.0,0.0,0.0,1.0,-2.25609779358,3.17073178291,3.17073178291,1.0,0.0,0.0,0.0,1.0,0.0,0.0,0.0,1.0,0.201112939453,-0.277727392578,10.0652237793,1.0,0.0,0.0,0.0,1.0,0.0,0.0,0.0,1.0
1464117582439036192,544,1464117582430879259,,5.83747339249,-3.56991744041,-137.205474854,0.00119099998847,1.0,0.0,0.0,0.0,1.0,0.0,0.0,0.0,1.0,-0.853658556938,1.52439022064,-3.23170733452,1.0,0.0,0.0,0.0,1.0,0.0,0.0,0.0,1.0,-0.818816967773,-0.92416184082,10.6206785645,1.0,0.0,0.0,0.0,1.0,0.0,0.0,0.0,1.0
1464117582456575143,545,1464117582452809419,,5.75928640366,-3.5961060524,-137.301193237,0.00190599996131,1.0,0.0,0.0,0.0,1.0,0.0,0.0,0.0,1.0,1.70731711388,-6.15853643417,-6.82926845551,1.0,0.0,0.0,0.0,1.0,0.0,0.0,0.0,1.0,-0.0430956298828,-1.20667770978,10.3956236084,1.0,0.0,0.0,0.0,1.0,0.0,0.0,0.0,1.0
1464117582477264906,546,1464117582473118391,,5.57205963135,-3.61469650269,-137.475692749,0.00122900004499,1.0,0.0,0.0,0.0,1.0,0.0,0.0,0.0,1.0,3.84146332741,-1.2804877758,-7.86585378647,1.0,0.0,0.0,0.0,1.0,0.0,0.0,0.0,1.0,-0.277727392578,-0.316034619141,10.1753570557,1.0,0.0,0.0,0.0,1.0,0.0,0.0,0.0,1.0
1464117582500353482,547,1464117582495472312,,5.51801347733,-3.61127972603,-137.580856323,0.00254300003871,1.0,0.0,0.0,0.0,1.0,0.0,0.0,0.0,1.0,-1.2804877758,0.243902444839,-2.13414645195,1.0,0.0,0.0,0.0,1.0,0.0,0.0,0.0,1.0,0.220266552734,-0.292092584273,10.1609918457,1.0,0.0,0.0,0.0,1.0,0.0,0.0,0.0,1.0
1464117582522234371,548,1464117582516682714,,5.54751873016,-3.61417865753,-137.582611084,0.00105900003109,1.0,0.0,0.0,0.0,1.0,0.0,0.0,0.0,1.0,-2.25609779358,4.69512224197,0.975609779358,1.0,0.0,0.0,0.0,1.0,0.0,0.0,0.0,1.0,-0.383072265625,-0.478840332031,10.2423947021,1.0,0.0,0.0,0.0,1.0,0.0,0.0,0.0,1.0
1464117582542612198,549,1464117582539501439,,5.58862686157,-3.6069586277,-137.549728394,0.00200499990024,1.0,0.0,0.0,0.0,1.0,0.0,0.0,0.0,1.0,-0.609756112099,1.03658533096,0.243902444839,1.0,0.0,0.0,0.0,1.0,0.0,0.0,0.0,1.0,-0.541089611728,-0.550666381836,10.4578728516,1.0,0.0,0.0,0.0,1.0,0.0,0.0,0.0,1.0
1464117582564290164,550,1464117582560255787,,5.53615951538,-3.61474704742,-137.570617676,0.00144499994349,1.0,0.0,0.0,0.0,1.0,0.0,0.0,0.0,1.0,0.0609756112099,-0.853658556938,0.12195122242,1.0,0.0,0.0,0.0,1.0,0.0,0.0,0.0,1.0,0.450109912109,-0.584185168546,10.3381627686,1.0,0.0,0.0,0.0,1.0,0.0,0.0,0.0,1.0
1464117582585240195,551,1464117582581493169,,5.48777627945,-3.61402916908,-137.557846069,0.0011569999624,1.0,0.0,0.0,0.0,1.0,0.0,0.0,0.0,1.0,-0.609756112099,6.52439069748,0.12195122242,1.0,0.0,0.0,0.0,1.0,0.0,0.0,0.0,1.0,-0.354341845703,-0.632069238281,10.2088758789,1.0,0.0,0.0,0.0,1.0,0.0,0.0,0.0,1.0
1464117582605027278,552,1464117582602540025,,5.55549097061,-3.62526154518,-137.576950073,0.00113700004295,1.0,0.0,0.0,0.0,1.0,0.0,0.0,0.0,1.0,-1.03658533096,-1.40243899822,0.0609756112099,1.0,0.0,0.0,0.0,1.0,0.0,0.0,0.0,1.0,-0.588973571866,-0.603338854892,10.1370498291,1.0,0.0,0.0,0.0,1.0,0.0,0.0,0.0,1.0
1464117582626085071,553,1464117582623436825,,5.48215723038,-3.62296199799,-137.586044312,0.000989999971353,1.0,0.0,0.0,0.0,1.0,0.0,0.0,0.0,1.0,-0.609756112099,4.20731735229,-0.12195122242,1.0,0.0,0.0,0.0,1.0,0.0,0.0,0.0,1.0,0.421379492187,-0.61770402832,10.3237975586,1.0,0.0,0.0,0.0,1.0,0.0,0.0,0.0,1.0
1464117582646771293,554,1464117582644324405,,5.56129407883,-3.62854194641,-137.545028687,0.000973000016529,1.0,0.0,0.0,0.0,1.0,0.0,0.0,0.0,1.0,-2.92682933807,9.69512176514,4.32926845551,1.0,0.0,0.0,0.0,1.0,0.0,0.0,0.0,1.0,-0.588973571866,0.0239420166016,9.52413478862,1.0,0.0,0.0,0.0,1.0,0.0,0.0,0.0,1.0
1464117582667558767,555,1464117582665235997,,5.7576084137,-3.60871887207,-137.381118774,0.000969999993686,1.0,0.0,0.0,0.0,1.0,0.0,0.0,0.0,1.0,-2.37804889679,14.6951217651,8.84146404266,1.0,0.0,0.0,0.0,1.0,0.0,0.0,0.0,1.0,-0.143652099609,-0.60812722168,10.3908352051,1.0,0.0,0.0,0.0,1.0,0.0,0.0,0.0,1.0
1464117582689631587,556,1464117582685862529,,5.95179748535,-3.6019384861,-137.222427368,0.00101100001484,1.0,0.0,0.0,0.0,1.0,0.0,0.0,0.0,1.0,-1.52439022064,5.06097555161,5.42682933807,1.0,0.0,0.0,0.0,1.0,0.0,0.0,0.0,1.0,-0.742202514648,-0.502782348633,9.90720646973,1.0,0.0,0.0,0.0,1.0,0.0,0.0,0.0,1.0
1464117582710432707,557,1464117582706638388,,5.90750551224,-3.60005640984,-137.165542603,0.000973000016529,1.0,0.0,0.0,0.0,1.0,0.0,0.0,0.0,1.0,-1.95121955872,0.0,2.31707310677,1.0,0.0,0.0,0.0,1.0,0.0,0.0,0.0,1.0,1.64721074219,-0.330399829102,10.5919481445,1.0,0.0,0.0,0.0,1.0,0.0,0.0,0.0,1.0
1464117582740187656,558,1464117582727314089,,5.88181400299,-3.61181426048,-137.17868042,0.00096700002905,1.0,0.0,0.0,0.0,1.0,0.0,0.0,0.0,1.0,-0.853658556938,7.68292665482,-2.07317066193,1.0,0.0,0.0,0.0,1.0,0.0,0.0,0.0,1.0,-0.325611425781,-0.708683691406,10.1514150391,1.0,0.0,0.0,0.0,1.0,0.0,0.0,0.0,1.0
1464117582753494152,559,1464117582748238285,,5.93946409225,-3.63556003571,-137.200500488,0.0010150000453,1.0,0.0,0.0,0.0,1.0,0.0,0.0,0.0,1.0,0.853658556938,6.70731735229,1.52439022064,1.0,0.0,0.0,0.0,1.0,0.0,0.0,0.0,1.0,0.488417138672,-0.636857641602,10.553640918,1.0,0.0,0.0,0.0,1.0,0.0,0.0,0.0,1.0
1464117582774726065,560,1464117582769728434,,6.09141349792,-3.61783123016,-137.178268433,0.00127100001555,1.0,0.0,0.0,0.0,1.0,0.0,0.0,0.0,1.0,0.243902444839,12.0731716156,0.853658556938,1.0,0.0,0.0,0.0,1.0,0.0,0.0,0.0,1.0,-0.622492431641,-0.445321508789,10.0412817627,1.0,0.0,0.0,0.0,1.0,0.0,0.0,0.0,1.0
1464117582793509840,561,1464117582790786279,,6.24671936035,-3.60398507118,-137.195159912,0.00114399997983,1.0,0.0,0.0,0.0,1.0,0.0,0.0,0.0,1.0,-0.609756112099,9.32926845551,-0.914634168148,1.0,0.0,0.0,0.0,1.0,0.0,0.0,0.0,1.0,-0.320823022461,-0.320823022461,10.0748005859,1.0,0.0,0.0,0.0,1.0,0.0,0.0,0.0,1.0
1464117582814485288,562,1464117582811716153,,6.34545993805,-3.59161806107,-137.290344238,0.00124799995683,1.0,0.0,0.0,0.0,1.0,0.0,0.0,0.0,1.0,1.34146344662,4.69512224197,-7.31707334518,1.0,0.0,0.0,0.0,1.0,0.0,0.0,0.0,1.0,-0.201112939453,-0.967257470703,10.5632177246,1.0,0.0,0.0,0.0,1.0,0.0,0.0,0.0,1.0
1464117582837232137,563,1464117582833161509,,6.35784673691,-3.60496258736,-137.464645386,0.00125400000252,1.0,0.0,0.0,0.0,1.0,0.0,0.0,0.0,1.0,1.70731711388,7.07317113876,-7.62195110321,1.0,0.0,0.0,0.0,1.0,0.0,0.0,0.0,1.0,-0.0239420166016,-0.387860668945,10.1514150391,1.0,0.0,0.0,0.0,1.0,0.0,0.0,0.0,1.0
1464117582858324827,564,1464117582854841037,,6.4998254776,-3.62001609802,-137.573196411,0.0014969999902,1.0,0.0,0.0,0.0,1.0,0.0,0.0,0.0,1.0,-0.975609779358,11.6463422775,-1.95121955872,1.0,0.0,0.0,0.0,1.0,0.0,0.0,0.0,1.0,0.00957680664062,-0.320823022461,10.1609918457,1.0,0.0,0.0,0.0,1.0,0.0,0.0,0.0,1.0
1464117582882869483,565,1464117582876177328,,6.75155353546,-3.6246714592,-137.615829468,0.00117599999066,1.0,0.0,0.0,0.0,1.0,0.0,0.0,0.0,1.0,-1.40243899822,12.1341466904,-1.70731711388,1.0,0.0,0.0,0.0,1.0,0.0,0.0,0.0,1.0,-0.656011254883,-0.46447512207,10.2471831055,1.0,0.0,0.0,0.0,1.0,0.0,0.0,0.0,1.0
1464117582900569480,566,1464117582897157828,,6.97850751877,-3.61390781403,-137.646759033,0.00109300005715,1.0,0.0,0.0,0.0,1.0,0.0,0.0,0.0,1.0,-0.0609756112099,10.548781395,-0.731707334518,1.0,0.0,0.0,0.0,1.0,0.0,0.0,0.0,1.0,-0.517147558594,-0.45968671875,10.3381627686,1.0,0.0,0.0,0.0,1.0,0.0,0.0,0.0,1.0
1464117582923038456,567,1464117582917987751,,7.17996025085,-3.61455011368,-137.654647827,0.000979000004008,1.0,0.0,0.0,0.0,1.0,0.0,0.0,0.0,1.0,0.426829278469,14.7560987473,1.95121955872,1.0,0.0,0.0,0.0,1.0,0.0,0.0,0.0,1.0,-0.809240161133,-0.469263525391,9.98382092285,1.0,0.0,0.0,0.0,1.0,0.0,0.0,0.0,1.0
1464117582943776658,568,1464117582939057576,,7.4687128067,-3.59662723541,-137.570755005,0.00101300003007,1.0,0.0,0.0,0.0,1.0,0.0,0.0,0.0,1.0,1.8292683363,12.3170728683,5.24390268326,1.0,0.0,0.0,0.0,1.0,0.0,0.0,0.0,1.0,-0.871489404297,-0.483628735352,10.1897222656,1.0,0.0,0.0,0.0,1.0,0.0,0.0,0.0,1.0
