%time,field.header.seq,field.header.stamp,field.header.frame_id,field.orientation.x,field.orientation.y,field.orientation.z,field.orientation.w,field.orientation_covariance0,field.orientation_covariance1,field.orientation_covariance2,field.orientation_covariance3,field.orientation_covariance4,field.orientation_covariance5,field.orientation_covariance6,field.orientation_covariance7,field.orientation_covariance8,field.angular_velocity.x,field.angular_velocity.y,field.angular_velocity.z,field.angular_velocity_covariance0,field.angular_velocity_covariance1,field.angular_velocity_covariance2,field.angular_velocity_covariance3,field.angular_velocity_covariance4,field.angular_velocity_covariance5,field.angular_velocity_covariance6,field.angular_velocity_covariance7,field.angular_velocity_covariance8,field.linear_acceleration.x,field.linear_acceleration.y,field.linear_acceleration.z,field.linear_acceleration_covariance0,field.linear_acceleration_covariance1,field.linear_acceleration_covariance2,field.linear_acceleration_covariance3,field.linear_acceleration_covariance4,field.linear_acceleration_covariance5,field.linear_acceleration_covariance6,field.linear_acceleration_covariance7,field.linear_acceleration_covariance8
1463745189815785035,369,1463745189703010733,,33.2250900269,-36.3951759338,55.7569084167,0.00770800001919,1.0,0.0,0.0,0.0,1.0,0.0,0.0,0.0,1.0,1.95121955872,-0.243902444839,-0.243902444839,1.0,0.0,0.0,0.0,1.0,0.0,0.0,0.0,1.0,-0.952892260742,-0.957680664062,-9.95987890625,1.0,0.0,0.0,0.0,1.0,0.0,0.0,0.0,1.0
1463745189815861598,370,1463745189712966476,,32.9034309387,-36.1168479919,55.9681282043,0.0100029995665,1.0,0.0,0.0,0.0,1.0,0.0,0.0,0.0,1.0,2.07317066193,-0.0609756112099,-0.243902444839,1.0,0.0,0.0,0.0,1.0,0.0,0.0,0.0,1.0,-0.799663354492,-0.905008227539,-10.2711251221,1.0,0.0,0.0,0.0,1.0,0.0,0.0,0.0,1.0
1463745189816090347,371,1463745189723041437,,32.5853805542,-35.8432312012,56.1739234924,0.0100330002606,1.0,0.0,0.0,0.0,1.0,0.0,0.0,0.0,1.0,1.76829278469,0.0,-0.304878056049,1.0,0.0,0.0,0.0,1.0,0.0,0.0,0.0,1.0,-0.895431420898,-0.91458503418,-9.97424411621,1.0,0.0,0.0,0.0,1.0,0.0,0.0,0.0,1.0
1463745189816183575,372,1463745189733080408,,32.278377533,-35.5756568909,56.3745307922,0.00997900031507,1.0,0.0,0.0,0.0,1.0,0.0,0.0,0.0,1.0,2.25609779358,-0.304878056049,-0.12195122242,1.0,0.0,0.0,0.0,1.0,0.0,0.0,0.0,1.0,-0.905008227539,-0.92416184082,-10.1035310059,1.0,0.0,0.0,0.0,1.0,0.0,0.0,0.0,1.0
1463745189816255086,373,1463745189742934328,,31.9728431702,-35.3072395325,56.5722961426,0.00998099986464,1.0,0.0,0.0,0.0,1.0,0.0,0.0,0.0,1.0,1.95121955872,-0.0609756112099,-0.12195122242,1.0,0.0,0.0,0.0,1.0,0.0,0.0,0.0,1.0,-0.900219824219,-0.928950244141,-9.99818613281,1.0,0.0,0.0,0.0,1.0,0.0,0.0,0.0,1.0
1463745189816368731,374,1463745189752933404,,31.6723670959,-35.0396385193,56.7664108276,0.00998899992555,1.0,0.0,0.0,0.0,1.0,0.0,0.0,0.0,1.0,2.13414645195,-0.365853667259,-0.0,1.0,0.0,0.0,0.0,1.0,0.0,0.0,0.0,1.0,-0.828393774414,-0.91458503418,-10.0508585693,1.0,0.0,0.0,0.0,1.0,0.0,0.0,0.0,1.0
1463745189816444408,375,1463745189764173204,,31.3718681335,-34.7621536255,56.9601173401,0.0102049997076,1.0,0.0,0.0,0.0,1.0,0.0,0.0,0.0,1.0,2.07317066193,0.0,-0.12195122242,1.0,0.0,0.0,0.0,1.0,0.0,0.0,0.0,1.0,-0.804451757813,-0.957680664062,-9.96945571289,1.0,0.0,0.0,0.0,1.0,0.0,0.0,0.0,1.0
1463745189816548678,376,1463745189773632751,,31.0737571716,-34.4869308472,57.1510734558,0.0101969996467,1.0,0.0,0.0,0.0,1.0,0.0,0.0,0.0,1.0,2.13414645195,-0.18292683363,-0.0609756112099,1.0,0.0,0.0,0.0,1.0,0.0,0.0,0.0,1.0,-0.77093293457,-0.91458503418,-10.0412817627,1.0,0.0,0.0,0.0,1.0,0.0,0.0,0.0,1.0
1463745189816668469,377,1463745189783366880,,30.7918605804,-34.2253837585,57.3297233582,0.00987599976361,1.0,0.0,0.0,0.0,1.0,0.0,0.0,0.0,1.0,2.13414645195,-0.0609756112099,-0.304878056049,1.0,0.0,0.0,0.0,1.0,0.0,0.0,0.0,1.0,-0.91458503418,-0.948103857422,-10.1562034424,1.0,0.0,0.0,0.0,1.0,0.0,0.0,0.0,1.0
1463745189816895448,378,1463745189793059863,,30.5142421722,-33.9609680176,57.5028877258,0.00987500045449,1.0,0.0,0.0,0.0,1.0,0.0,0.0,0.0,1.0,1.8902438879,-0.18292683363,-0.304878056049,1.0,0.0,0.0,0.0,1.0,0.0,0.0,0.0,1.0,-0.804451757813,-0.976834277344,-10.046070166,1.0,0.0,0.0,0.0,1.0,0.0,0.0,0.0,1.0
1463745189835009023,379,1463745189802915606,,30.2412338257,-33.7038726807,57.6727600098,0.00981399975717,1.0,0.0,0.0,0.0,1.0,0.0,0.0,0.0,1.0,2.01219511032,0.0,-0.426829278469,1.0,0.0,0.0,0.0,1.0,0.0,0.0,0.0,1.0,-0.928950244141,-0.933738647461,-10.046070166,1.0,0.0,0.0,0.0,1.0,0.0,0.0,0.0,1.0
1463745189835088606,380,1463745189818274609,,29.9656124115,-33.4417800903,57.8442802429,0.0100309997797,1.0,0.0,0.0,0.0,1.0,0.0,0.0,0.0,1.0,2.01219511032,-0.18292683363,-0.18292683363,1.0,0.0,0.0,0.0,1.0,0.0,0.0,0.0,1.0,-0.847547387695,-0.928950244141,-9.93593688965,1.0,0.0,0.0,0.0,1.0,0.0,0.0,0.0,1.0
1463745189836159800,381,1463745189823049122,,29.6994762421,-33.1743888855,58.0088691711,0.00999699998647,1.0,0.0,0.0,0.0,1.0,0.0,0.0,0.0,1.0,1.8902438879,-0.12195122242,-0.18292683363,1.0,0.0,0.0,0.0,1.0,0.0,0.0,0.0,1.0,-0.737414111328,-1.03908344744,-10.0029745361,1.0,0.0,0.0,0.0,1.0,0.0,0.0,0.0,1.0
1463745189836231362,382,1463745189832971896,,29.430109024,-32.9174194336,58.1730613708,0.0100849997252,1.0,0.0,0.0,0.0,1.0,0.0,0.0,0.0,1.0,1.76829278469,-0.243902444839,-0.18292683363,1.0,0.0,0.0,0.0,1.0,0.0,0.0,0.0,1.0,-0.928950244141,-0.972045874023,-10.0317049561,1.0,0.0,0.0,0.0,1.0,0.0,0.0,0.0,1.0
1463745189845030339,383,1463745189843000346,,29.1636199951,-32.6628265381,58.3362007141,0.00997299980372,1.0,0.0,0.0,0.0,1.0,0.0,0.0,0.0,1.0,1.8902438879,-0.18292683363,-0.0609756112099,1.0,0.0,0.0,0.0,1.0,0.0,0.0,0.0,1.0,-0.881066210937,-0.91458503418,-10.1370498291,1.0,0.0,0.0,0.0,1.0,0.0,0.0,0.0,1.0
1463745189854698166,384,1463745189852883850,,28.9059658051,-32.4107780457,58.4945831299,0.00993900001049,1.0,0.0,0.0,0.0,1.0,0.0,0.0,0.0,1.0,2.01219511032,0.0609756112099,-0.12195122242,1.0,0.0,0.0,0.0,1.0,0.0,0.0,0.0,1.0,-0.943315454102,-0.962469067383,-10.0700121826,1.0,0.0,0.0,0.0,1.0,0.0,0.0,0.0,1.0
1463745189871474038,385,1463745189862818238,,28.649394989,-32.150806427,58.6513671875,0.0100060002878,1.0,0.0,0.0,0.0,1.0,0.0,0.0,0.0,1.0,1.95121955872,0.12195122242,-0.12195122242,1.0,0.0,0.0,0.0,1.0,0.0,0.0,0.0,1.0,-0.794874951172,-0.962469067383,-10.0317049561,1.0,0.0,0.0,0.0,1.0,0.0,0.0,0.0,1.0
1463745189877924794,386,1463745189872841949,,28.3957862854,-31.8996810913,58.8036956787,0.00999400019646,1.0,0.0,0.0,0.0,1.0,0.0,0.0,0.0,1.0,1.95121955872,-0.304878056049,-0.12195122242,1.0,0.0,0.0,0.0,1.0,0.0,0.0,0.0,1.0,-0.857124194336,-0.928950244141,-10.0843773926,1.0,0.0,0.0,0.0,1.0,0.0,0.0,0.0,1.0
1463745189884668831,387,1463745189882851025,,28.1482563019,-31.6460876465,58.951915741,0.0100020002574,1.0,0.0,0.0,0.0,1.0,0.0,0.0,0.0,1.0,2.01219511032,-0.12195122242,-0.243902444839,1.0,0.0,0.0,0.0,1.0,0.0,0.0,0.0,1.0,-0.828393774414,-0.957680664062,-10.0317049561,1.0,0.0,0.0,0.0,1.0,0.0,0.0,0.0,1.0
1463745189894936499,388,1463745189893039215,,27.9029579163,-31.3973712921,59.0978050232,0.0100090000778,1.0,0.0,0.0,0.0,1.0,0.0,0.0,0.0,1.0,1.70731711388,-0.426829278469,0.12195122242,1.0,0.0,0.0,0.0,1.0,0.0,0.0,0.0,1.0,-0.823605371094,-1.01035310059,-10.0412817627,1.0,0.0,0.0,0.0,1.0,0.0,0.0,0.0,1.0
1463745189904615993,389,1463745189902844802,,27.6596946716,-31.1497459412,59.241153717,0.00998899992555,1.0,0.0,0.0,0.0,1.0,0.0,0.0,0.0,1.0,1.8292683363,-0.243902444839,-0.12195122242,1.0,0.0,0.0,0.0,1.0,0.0,0.0,0.0,1.0,-0.852335791016,-0.952892260742,-10.1131078125,1.0,0.0,0.0,0.0,1.0,0.0,0.0,0.0,1.0
1463745189914687881,390,1463745189912851534,,27.4235668182,-30.9005069733,59.3821907043,0.00999299995601,1.0,0.0,0.0,0.0,1.0,0.0,0.0,0.0,1.0,2.19512200356,-0.12195122242,-0.12195122242,1.0,0.0,0.0,0.0,1.0,0.0,0.0,0.0,1.0,-0.809240161133,-0.957680664062,-10.0556469727,1.0,0.0,0.0,0.0,1.0,0.0,0.0,0.0,1.0
1463745189924772946,391,1463745189922908734,,27.1876506805,-30.6563568115,59.5190010071,0.0100100003183,1.0,0.0,0.0,0.0,1.0,0.0,0.0,0.0,1.0,1.95121955872,-0.243902444839,-0.304878056049,1.0,0.0,0.0,0.0,1.0,0.0,0.0,0.0,1.0,-0.881066210937,-0.933738647461,-10.0891657959,1.0,0.0,0.0,0.0,1.0,0.0,0.0,0.0,1.0
1463745189934589002,392,1463745189932839061,,26.9524993896,-30.413274765,59.6532402039,0.00999400019646,1.0,0.0,0.0,0.0,1.0,0.0,0.0,0.0,1.0,1.76829278469,-0.304878056049,-0.304878056049,1.0,0.0,0.0,0.0,1.0,0.0,0.0,0.0,1.0,-0.852335791016,-0.9193734375,-10.1322614258,1.0,0.0,0.0,0.0,1.0,0.0,0.0,0.0,1.0
1463745189944898180,393,1463745189943000740,,26.7222595215,-30.1630210876,59.7863464355,0.0101389996707,1.0,0.0,0.0,0.0,1.0,0.0,0.0,0.0,1.0,1.95121955872,-0.12195122242,-0.243902444839,1.0,0.0,0.0,0.0,1.0,0.0,0.0,0.0,1.0,-0.785298144531,-0.981622680664,-10.0700121826,1.0,0.0,0.0,0.0,1.0,0.0,0.0,0.0,1.0
1463745189954793142,394,1463745189952959607,,26.4951438904,-29.9224281311,59.9160346985,0.00985999964178,1.0,0.0,0.0,0.0,1.0,0.0,0.0,0.0,1.0,1.76829278469,0.0,-0.243902444839,1.0,0.0,0.0,0.0,1.0,0.0,0.0,0.0,1.0,-0.828393774414,-0.92416184082,-10.2184526855,1.0,0.0,0.0,0.0,1.0,0.0,0.0,0.0,1.0
1463745189964650500,395,1463745189962848111,,26.2624950409,-29.6903800964,60.0492324829,0.00999599974602,1.0,0.0,0.0,0.0,1.0,0.0,0.0,0.0,1.0,1.8292683363,-0.18292683363,-0.0,1.0,0.0,0.0,0.0,1.0,0.0,0.0,0.0,1.0,-0.943315454102,-0.814028564453,-10.0412817627,1.0,0.0,0.0,0.0,1.0,0.0,0.0,0.0,1.0
1463745189974735981,396,1463745189972785260,,26.0456485748,-29.4530773163,60.1720352173,0.00999899953604,1.0,0.0,0.0,0.0,1.0,0.0,0.0,0.0,1.0,2.07317066193,-0.0609756112099,-0.426829278469,1.0,0.0,0.0,0.0,1.0,0.0,0.0,0.0,1.0,-0.885854614258,-0.943315454102,-9.91199487305,1.0,0.0,0.0,0.0,1.0,0.0,0.0,0.0,1.0
1463745189996638969,397,1463745189988157388,,25.7919654846,-29.1673088074,60.3173789978,0.0118450000882,1.0,0.0,0.0,0.0,1.0,0.0,0.0,0.0,1.0,2.13414645195,0.0609756112099,-0.243902444839,1.0,0.0,0.0,0.0,1.0,0.0,0.0,0.0,1.0,-0.799663354492,-0.967257470703,-10.0652237793,1.0,0.0,0.0,0.0,1.0,0.0,0.0,0.0,1.0
1463745189996711469,398,1463745189992848203,,25.6146965027,-28.9810237885,60.4162864685,0.00815900042653,1.0,0.0,0.0,0.0,1.0,0.0,0.0,0.0,1.0,1.70731711388,-0.548780500889,0.0609756112099,1.0,0.0,0.0,0.0,1.0,0.0,0.0,0.0,1.0,-0.876277807617,-0.933738647461,-10.0843773926,1.0,0.0,0.0,0.0,1.0,0.0,0.0,0.0,1.0
1463745190007172678,399,1463745190003080663,,25.4064083099,-28.7460956573,60.5335006714,0.0100060002878,1.0,0.0,0.0,0.0,1.0,0.0,0.0,0.0,1.0,2.13414645195,-0.18292683363,-0.243902444839,1.0,0.0,0.0,0.0,1.0,0.0,0.0,0.0,1.0,-0.818816967773,-0.962469067383,-10.0652237793,1.0,0.0,0.0,0.0,1.0,0.0,0.0,0.0,1.0
1463745190015939780,400,1463745190013111197,,25.1981906891,-28.5132293701,60.6476211548,0.0100039998069,1.0,0.0,0.0,0.0,1.0,0.0,0.0,0.0,1.0,1.8292683363,-0.365853667259,-0.243902444839,1.0,0.0,0.0,0.0,1.0,0.0,0.0,0.0,1.0,-0.794874951172,-0.962469067383,-10.0795889893,1.0,0.0,0.0,0.0,1.0,0.0,0.0,0.0,1.0
1463745190026184063,401,1463745190022850951,,24.9909038544,-28.2887554169,60.7601280212,0.0099950004369,1.0,0.0,0.0,0.0,1.0,0.0,0.0,0.0,1.0,1.70731711388,-0.426829278469,-0.18292683363,1.0,0.0,0.0,0.0,1.0,0.0,0.0,0.0,1.0,-0.895431420898,-0.938527050781,-9.97903251953,1.0,0.0,0.0,0.0,1.0,0.0,0.0,0.0,1.0
1463745190035806005,402,1463745190032841381,,24.789434433,-28.0645771027,60.869846344,0.00999699998647,1.0,0.0,0.0,0.0,1.0,0.0,0.0,0.0,1.0,1.8292683363,-0.243902444839,-0.243902444839,1.0,0.0,0.0,0.0,1.0,0.0,0.0,0.0,1.0,-0.91458503418,-0.972045874023,-9.97903251953,1.0,0.0,0.0,0.0,1.0,0.0,0.0,0.0,1.0
1463745190045195083,403,1463745190043108841,,24.5875339508,-27.8393688202,60.9813537598,0.00999800022691,1.0,0.0,0.0,0.0,1.0,0.0,0.0,0.0,1.0,1.8292683363,-0.12195122242,-0.0,1.0,0.0,0.0,0.0,1.0,0.0,0.0,0.0,1.0,-0.866701000977,-0.952892260742,-10.0364933594,1.0,0.0,0.0,0.0,1.0,0.0,0.0,0.0,1.0
1463745190055934260,404,1463745190052888387,,24.3902130127,-27.6166648865,61.088104248,0.00999899953604,1.0,0.0,0.0,0.0,1.0,0.0,0.0,0.0,1.0,1.8902438879,-0.426829278469,-0.12195122242,1.0,0.0,0.0,0.0,1.0,0.0,0.0,0.0,1.0,-0.847547387695,-0.962469067383,-10.1083194092,1.0,0.0,0.0,0.0,1.0,0.0,0.0,0.0,1.0
1463745190064797663,405,1463745190062754338,,24.1919612885,-27.3901519775,61.1958465576,0.00999400019646,1.0,0.0,0.0,0.0,1.0,0.0,0.0,0.0,1.0,1.8902438879,-0.0609756112099,-0.12195122242,1.0,0.0,0.0,0.0,1.0,0.0,0.0,0.0,1.0,-0.794874951172,-0.91458503418,-10.0939541992,1.0,0.0,0.0,0.0,1.0,0.0,0.0,0.0,1.0
1463745190076318921,406,1463745190073004611,,24.0010986328,-27.1700134277,61.2986221313,0.010006999597,1.0,0.0,0.0,0.0,1.0,0.0,0.0,0.0,1.0,1.8902438879,0.0,-0.243902444839,1.0,0.0,0.0,0.0,1.0,0.0,0.0,0.0,1.0,-0.9193734375,-0.981622680664,-10.0221281494,1.0,0.0,0.0,0.0,1.0,0.0,0.0,0.0,1.0
1463745190085948154,407,1463745190082770823,,23.8150959015,-26.9477882385,61.3977622986,0.0100010000169,1.0,0.0,0.0,0.0,1.0,0.0,0.0,0.0,1.0,1.95121955872,-0.12195122242,-0.304878056049,1.0,0.0,0.0,0.0,1.0,0.0,0.0,0.0,1.0,-0.837970581055,-1.01035310059,-10.0939541992,1.0,0.0,0.0,0.0,1.0,0.0,0.0,0.0,1.0
1463745190095469836,408,1463745190093228230,,23.6245880127,-26.7323150635,61.4995346069,0.0100039998069,1.0,0.0,0.0,0.0,1.0,0.0,0.0,0.0,1.0,2.01219511032,-0.243902444839,-0.12195122242,1.0,0.0,0.0,0.0,1.0,0.0,0.0,0.0,1.0,-0.885854614258,-0.895431420898,-10.1226846191,1.0,0.0,0.0,0.0,1.0,0.0,0.0,0.0,1.0
1463745190105249017,409,1463745190102773974,,23.4415092468,-26.5153026581,61.5959091187,0.00999199971557,1.0,0.0,0.0,0.0,1.0,0.0,0.0,0.0,1.0,2.07317066193,-0.12195122242,-0.365853667259,1.0,0.0,0.0,0.0,1.0,0.0,0.0,0.0,1.0,-0.861912597656,-0.943315454102,-10.0412817627,1.0,0.0,0.0,0.0,1.0,0.0,0.0,0.0,1.0
1463745190114888979,410,1463745190112789612,,23.2559871674,-26.3032493591,61.6919746399,0.010006999597,1.0,0.0,0.0,0.0,1.0,0.0,0.0,0.0,1.0,1.8292683363,-0.426829278469,-0.18292683363,1.0,0.0,0.0,0.0,1.0,0.0,0.0,0.0,1.0,-0.852335791016,-0.905008227539,-9.96945571289,1.0,0.0,0.0,0.0,1.0,0.0,0.0,0.0,1.0
1463745190125659719,411,1463745190122984052,,23.0753383636,-26.0870838165,61.783531189,0.00999599974602,1.0,0.0,0.0,0.0,1.0,0.0,0.0,0.0,1.0,1.76829278469,-0.243902444839,-0.426829278469,1.0,0.0,0.0,0.0,1.0,0.0,0.0,0.0,1.0,-0.799663354492,-0.948103857422,-10.0221281494,1.0,0.0,0.0,0.0,1.0,0.0,0.0,0.0,1.0
1463745190135588014,412,1463745190132834378,,22.8944778442,-25.8704528809,61.8806114197,0.0100060002878,1.0,0.0,0.0,0.0,1.0,0.0,0.0,0.0,1.0,1.95121955872,0.12195122242,0.0609756112099,1.0,0.0,0.0,0.0,1.0,0.0,0.0,0.0,1.0,-0.785298144531,-0.92416184082,-9.99339772949,1.0,0.0,0.0,0.0,1.0,0.0,0.0,0.0,1.0
1463745190145474798,413,1463745190143136266,,22.7151603699,-25.6608448029,61.9747695923,0.00998799968511,1.0,0.0,0.0,0.0,1.0,0.0,0.0,0.0,1.0,2.13414645195,-0.243902444839,-0.0609756112099,1.0,0.0,0.0,0.0,1.0,0.0,0.0,0.0,1.0,-0.814028564453,-0.852335791016,-9.98382092285,1.0,0.0,0.0,0.0,1.0,0.0,0.0,0.0,1.0
1463745190155446687,414,1463745190152802582,,22.53657341,-25.4522647858,62.0643577576,0.0100060002878,1.0,0.0,0.0,0.0,1.0,0.0,0.0,0.0,1.0,1.64634156227,0.0609756112099,-0.365853667259,1.0,0.0,0.0,0.0,1.0,0.0,0.0,0.0,1.0,-0.909796630859,-0.91458503418,-10.1466266357,1.0,0.0,0.0,0.0,1.0,0.0,0.0,0.0,1.0
1463745190164943629,415,1463745190162774262,,22.3618869781,-25.2437648773,62.1540222168,0.00999899953604,1.0,0.0,0.0,0.0,1.0,0.0,0.0,0.0,1.0,1.8902438879,-0.12195122242,-0.12195122242,1.0,0.0,0.0,0.0,1.0,0.0,0.0,0.0,1.0,-0.809240161133,-0.895431420898,-9.95987890625,1.0,0.0,0.0,0.0,1.0,0.0,0.0,0.0,1.0
1463745190175926659,416,1463745190173206097,,22.1950893402,-25.0353660583,62.2401924133,0.0100050000474,1.0,0.0,0.0,0.0,1.0,0.0,0.0,0.0,1.0,2.25609779358,-0.12195122242,-0.243902444839,1.0,0.0,0.0,0.0,1.0,0.0,0.0,0.0,1.0,-0.814028564453,-0.943315454102,-10.165780249,1.0,0.0,0.0,0.0,1.0,0.0,0.0,0.0,1.0
1463745190185378081,417,1463745190182747206,,22.0287590027,-24.8343067169,62.3235015869,0.00999100040644,1.0,0.0,0.0,0.0,1.0,0.0,0.0,0.0,1.0,1.8902438879,-0.243902444839,-0.243902444839,1.0,0.0,0.0,0.0,1.0,0.0,0.0,0.0,1.0,-0.890643017578,-0.957680664062,-10.060435376,1.0,0.0,0.0,0.0,1.0,0.0,0.0,0.0,1.0
1463745190195317053,418,1463745190193131436,,21.8641490936,-24.6384735107,62.4067306519,0.0100090000778,1.0,0.0,0.0,0.0,1.0,0.0,0.0,0.0,1.0,1.8902438879,-0.18292683363,-0.12195122242,1.0,0.0,0.0,0.0,1.0,0.0,0.0,0.0,1.0,-0.967257470703,-0.962469067383,-10.0317049561,1.0,0.0,0.0,0.0,1.0,0.0,0.0,0.0,1.0
1463745190205666127,419,1463745190202804576,,21.707529068,-24.4406909943,62.4841918945,0.00999400019646,1.0,0.0,0.0,0.0,1.0,0.0,0.0,0.0,1.0,1.70731711388,-0.18292683363,-0.243902444839,1.0,0.0,0.0,0.0,1.0,0.0,0.0,0.0,1.0,-0.91458503418,-1.07739082014,-9.98382092285,1.0,0.0,0.0,0.0,1.0,0.0,0.0,0.0,1.0
1463745190215012601,420,1463745190212795995,,21.5422153473,-24.2420253754,62.566947937,0.0100060002878,1.0,0.0,0.0,0.0,1.0,0.0,0.0,0.0,1.0,1.95121955872,-0.12195122242,-0.12195122242,1.0,0.0,0.0,0.0,1.0,0.0,0.0,0.0,1.0,-0.861912597656,-0.885854614258,-10.1418382324,1.0,0.0,0.0,0.0,1.0,0.0,0.0,0.0,1.0
1463745190225755372,421,1463745190223181059,,21.3823719025,-24.0480804443,62.644733429,0.0099950004369,1.0,0.0,0.0,0.0,1.0,0.0,0.0,0.0,1.0,1.76829278469,-0.365853667259,-0.18292683363,1.0,0.0,0.0,0.0,1.0,0.0,0.0,0.0,1.0,-0.876277807617,-0.948103857422,-10.0125513428,1.0,0.0,0.0,0.0,1.0,0.0,0.0,0.0,1.0
1463745190235670646,422,1463745190232815449,,21.2238101959,-23.8546981812,62.722782135,0.0100349998102,1.0,0.0,0.0,0.0,1.0,0.0,0.0,0.0,1.0,1.8902438879,-0.12195122242,-0.18292683363,1.0,0.0,0.0,0.0,1.0,0.0,0.0,0.0,1.0,-0.92416184082,-0.943315454102,-10.1226846191,1.0,0.0,0.0,0.0,1.0,0.0,0.0,0.0,1.0
1463745190245274098,423,1463745190243142961,,21.0670471191,-23.664232254,62.796787262,0.00995799992234,1.0,0.0,0.0,0.0,1.0,0.0,0.0,0.0,1.0,1.8292683363,-0.0609756112099,-0.487804889679,1.0,0.0,0.0,0.0,1.0,0.0,0.0,0.0,1.0,-0.92416184082,-0.885854614258,-9.8784760498,1.0,0.0,0.0,0.0,1.0,0.0,0.0,0.0,1.0
1463745190255397028,424,1463745190252778444,,20.9169178009,-23.4706039429,62.8720588684,0.0100060002878,1.0,0.0,0.0,0.0,1.0,0.0,0.0,0.0,1.0,2.13414645195,0.12195122242,-0.18292683363,1.0,0.0,0.0,0.0,1.0,0.0,0.0,0.0,1.0,-0.890643017578,-0.972045874023,-10.0556469727,1.0,0.0,0.0,0.0,1.0,0.0,0.0,0.0,1.0
1463745190264896939,425,1463745190262787624,,20.7655963898,-23.2857303619,62.9470329285,0.0100330002606,1.0,0.0,0.0,0.0,1.0,0.0,0.0,0.0,1.0,2.07317066193,-0.18292683363,-0.0609756112099,1.0,0.0,0.0,0.0,1.0,0.0,0.0,0.0,1.0,-0.967257470703,-0.933738647461,-10.0317049561,1.0,0.0,0.0,0.0,1.0,0.0,0.0,0.0,1.0
1463745190275817626,426,1463745190272951543,,20.6114501953,-23.0994911194,63.0206375122,0.00997100025415,1.0,0.0,0.0,0.0,1.0,0.0,0.0,0.0,1.0,1.64634156227,-0.243902444839,-0.0609756112099,1.0,0.0,0.0,0.0,1.0,0.0,0.0,0.0,1.0,-0.881066210937,-0.91458503418,-10.0700121826,1.0,0.0,0.0,0.0,1.0,0.0,0.0,0.0,1.0
1463745190285283370,427,1463745190282756661,,20.4637851715,-22.9081878662,63.0922012329,0.00999599974602,1.0,0.0,0.0,0.0,1.0,0.0,0.0,0.0,1.0,1.8902438879,-0.0609756112099,-0.12195122242,1.0,0.0,0.0,0.0,1.0,0.0,0.0,0.0,1.0,-0.804451757813,-0.957680664062,-10.0412817627,1.0,0.0,0.0,0.0,1.0,0.0,0.0,0.0,1.0
1463745190295902496,428,1463745190293216048,,20.3240203857,-22.7214508057,63.1593017578,0.0100130001083,1.0,0.0,0.0,0.0,1.0,0.0,0.0,0.0,1.0,2.07317066193,-0.0609756112099,-0.304878056049,1.0,0.0,0.0,0.0,1.0,0.0,0.0,0.0,1.0,-0.881066210937,-1.01514150391,-9.98860932617,1.0,0.0,0.0,0.0,1.0,0.0,0.0,0.0,1.0
1463745190305416417,429,1463745190302773667,,20.1792087555,-22.5360546112,63.2266693115,0.00999400019646,1.0,0.0,0.0,0.0,1.0,0.0,0.0,0.0,1.0,1.8292683363,-0.12195122242,-0.304878056049,1.0,0.0,0.0,0.0,1.0,0.0,0.0,0.0,1.0,-0.861912597656,-0.948103857422,-10.1083194092,1.0,0.0,0.0,0.0,1.0,0.0,0.0,0.0,1.0
1463745190314993932,430,1463745190312801805,,20.0401802063,-22.3546733856,63.2923851013,0.0100020002574,1.0,0.0,0.0,0.0,1.0,0.0,0.0,0.0,1.0,1.8902438879,-0.18292683363,-0.18292683363,1.0,0.0,0.0,0.0,1.0,0.0,0.0,0.0,1.0,-0.900219824219,-1.01514150391,-10.1083194092,1.0,0.0,0.0,0.0,1.0,0.0,0.0,0.0,1.0
1463745190325850140,431,1463745190323211140,,19.9011631012,-22.1718235016,63.3566474915,0.00999899953604,1.0,0.0,0.0,0.0,1.0,0.0,0.0,0.0,1.0,1.95121955872,-0.0609756112099,-0.365853667259,1.0,0.0,0.0,0.0,1.0,0.0,0.0,0.0,1.0,-0.871489404297,-0.967257470703,-10.1178962158,1.0,0.0,0.0,0.0,1.0,0.0,0.0,0.0,1.0
1463745190335254010,432,1463745190332750738,,19.7623462677,-21.991941452,63.4238510132,0.009990000166,1.0,0.0,0.0,0.0,1.0,0.0,0.0,0.0,1.0,1.8902438879,0.12195122242,-0.0,1.0,0.0,0.0,0.0,1.0,0.0,0.0,0.0,1.0,-0.895431420898,-0.967257470703,-10.0125513428,1.0,0.0,0.0,0.0,1.0,0.0,0.0,0.0,1.0
1463745190345385950,433,1463745190343231427,,19.6250362396,-21.8175506592,63.4857139587,0.010006999597,1.0,0.0,0.0,0.0,1.0,0.0,0.0,0.0,1.0,1.95121955872,-0.304878056049,-0.365853667259,1.0,0.0,0.0,0.0,1.0,0.0,0.0,0.0,1.0,-0.91458503418,-0.9193734375,-9.96945571289,1.0,0.0,0.0,0.0,1.0,0.0,0.0,0.0,1.0
1463745190355448463,434,1463745190352872535,,19.4944171906,-21.6423377991,63.5462913513,0.00999199971557,1.0,0.0,0.0,0.0,1.0,0.0,0.0,0.0,1.0,2.07317066193,-0.243902444839,-0.243902444839,1.0,0.0,0.0,0.0,1.0,0.0,0.0,0.0,1.0,-0.885854614258,-1.00077629395,-10.0556469727,1.0,0.0,0.0,0.0,1.0,0.0,0.0,0.0,1.0
1463745190365271966,435,1463745190363112495,,19.3614196777,-21.4710083008,63.6076622009,0.0100020002574,1.0,0.0,0.0,0.0,1.0,0.0,0.0,0.0,1.0,1.8902438879,-0.426829278469,-0.0609756112099,1.0,0.0,0.0,0.0,1.0,0.0,0.0,0.0,1.0,-0.881066210937,-0.967257470703,-9.98860932617,1.0,0.0,0.0,0.0,1.0,0.0,0.0,0.0,1.0
1463745190376094216,436,1463745190373283185,,19.2339458466,-21.3007526398,63.6662712097,0.0100020002574,1.0,0.0,0.0,0.0,1.0,0.0,0.0,0.0,1.0,2.19512200356,-0.365853667259,-0.243902444839,1.0,0.0,0.0,0.0,1.0,0.0,0.0,0.0,1.0,-0.909796630859,-0.986411083984,-10.1274730225,1.0,0.0,0.0,0.0,1.0,0.0,0.0,0.0,1.0
1463745190385568085,437,1463745190382977054,,19.098400116,-21.1248378754,63.7305412292,0.0100819999352,1.0,0.0,0.0,0.0,1.0,0.0,0.0,0.0,1.0,1.8902438879,-0.0609756112099,0.12195122242,1.0,0.0,0.0,0.0,1.0,0.0,0.0,0.0,1.0,-0.823605371094,-0.9193734375,-10.0891657959,1.0,0.0,0.0,0.0,1.0,0.0,0.0,0.0,1.0
1463745190395650703,438,1463745190393290764,,18.968503952,-20.9537734985,63.7884597778,0.00991799961776,1.0,0.0,0.0,0.0,1.0,0.0,0.0,0.0,1.0,1.8292683363,-0.12195122242,-0.243902444839,1.0,0.0,0.0,0.0,1.0,0.0,0.0,0.0,1.0,-0.852335791016,-0.943315454102,-10.1514150391,1.0,0.0,0.0,0.0,1.0,0.0,0.0,0.0,1.0
1463745190405696914,439,1463745190402758175,,18.837053299,-20.78540802,63.8509292603,0.00999899953604,1.0,0.0,0.0,0.0,1.0,0.0,0.0,0.0,1.0,2.19512200356,-0.18292683363,0.12195122242,1.0,0.0,0.0,0.0,1.0,0.0,0.0,0.0,1.0,-0.852335791016,-0.857124194336,-10.0556469727,1.0,0.0,0.0,0.0,1.0,0.0,0.0,0.0,1.0
1463745190415659635,440,1463745190413181937,,18.707660675,-20.6147861481,63.9096183777,0.0100079998374,1.0,0.0,0.0,0.0,1.0,0.0,0.0,0.0,1.0,2.01219511032,-0.12195122242,-0.12195122242,1.0,0.0,0.0,0.0,1.0,0.0,0.0,0.0,1.0,-0.818816967773,-0.890643017578,-10.1035310059,1.0,0.0,0.0,0.0,1.0,0.0,0.0,0.0,1.0
1463745190425794023,441,1463745190423249346,,18.5870304108,-20.4502639771,63.9637756348,0.00998899992555,1.0,0.0,0.0,0.0,1.0,0.0,0.0,0.0,1.0,1.8902438879,-0.12195122242,-0.18292683363,1.0,0.0,0.0,0.0,1.0,0.0,0.0,0.0,1.0,-0.900219824219,-1.01035310059,-9.94072529297,1.0,0.0,0.0,0.0,1.0,0.0,0.0,0.0,1.0
1463745190435591902,442,1463745190432866964,,18.4636478424,-20.2881526947,64.0212783813,0.00999400019646,1.0,0.0,0.0,0.0,1.0,0.0,0.0,0.0,1.0,2.07317066193,-0.304878056049,0.12195122242,1.0,0.0,0.0,0.0,1.0,0.0,0.0,0.0,1.0,-0.866701000977,-0.928950244141,-9.98860932617,1.0,0.0,0.0,0.0,1.0,0.0,0.0,0.0,1.0
1463745190445248791,443,1463745190443111560,,18.3409919739,-20.1238670349,64.0757751465,0.010006999597,1.0,0.0,0.0,0.0,1.0,0.0,0.0,0.0,1.0,2.01219511032,-0.12195122242,-0.18292683363,1.0,0.0,0.0,0.0,1.0,0.0,0.0,0.0,1.0,-0.857124194336,-0.9193734375,-10.0317049561,1.0,0.0,0.0,0.0,1.0,0.0,0.0,0.0,1.0
1463745190455735574,444,1463745190452863866,,18.2211341858,-19.9630947113,64.127746582,0.0100010000169,1.0,0.0,0.0,0.0,1.0,0.0,0.0,0.0,1.0,1.8902438879,-0.18292683363,-0.243902444839,1.0,0.0,0.0,0.0,1.0,0.0,0.0,0.0,1.0,-0.890643017578,-0.957680664062,-10.0364933594,1.0,0.0,0.0,0.0,1.0,0.0,0.0,0.0,1.0
1463745190465392411,445,1463745190462814921,,18.0995368958,-19.8017368317,64.1795883179,0.010006999597,1.0,0.0,0.0,0.0,1.0,0.0,0.0,0.0,1.0,1.95121955872,-0.18292683363,-0.304878056049,1.0,0.0,0.0,0.0,1.0,0.0,0.0,0.0,1.0,-0.861912597656,-0.900219824219,-10.1322614258,1.0,0.0,0.0,0.0,1.0,0.0,0.0,0.0,1.0
1463745190475891277,446,1463745190473216287,,17.9857387543,-19.6405296326,64.2289733887,0.00999899953604,1.0,0.0,0.0,0.0,1.0,0.0,0.0,0.0,1.0,2.13414645195,-0.18292683363,-0.304878056049,1.0,0.0,0.0,0.0,1.0,0.0,0.0,0.0,1.0,-0.828393774414,-0.962469067383,-9.97424411621,1.0,0.0,0.0,0.0,1.0,0.0,0.0,0.0,1.0
1463745190485500094,447,1463745190482894010,,17.865442276,-19.4843139648,64.2806396484,0.0100159998983,1.0,0.0,0.0,0.0,1.0,0.0,0.0,0.0,1.0,1.8902438879,0.0609756112099,-0.243902444839,1.0,0.0,0.0,0.0,1.0,0.0,0.0,0.0,1.0,-0.943315454102,-0.890643017578,-10.0939541992,1.0,0.0,0.0,0.0,1.0,0.0,0.0,0.0,1.0
1463745190495470836,448,1463745190493109022,,17.7521705627,-19.3265342712,64.3302688599,0.00997800007463,1.0,0.0,0.0,0.0,1.0,0.0,0.0,0.0,1.0,2.01219511032,0.18292683363,-0.243902444839,1.0,0.0,0.0,0.0,1.0,0.0,0.0,0.0,1.0,-0.900219824219,-0.957680664062,-10.0412817627,1.0,0.0,0.0,0.0,1.0,0.0,0.0,0.0,1.0
1463745190506113503,449,1463745190502948411,,17.6435852051,-19.164812088,64.3812255859,0.0100130001083,1.0,0.0,0.0,0.0,1.0,0.0,0.0,0.0,1.0,2.31707310677,0.18292683363,-0.0,1.0,0.0,0.0,0.0,1.0,0.0,0.0,0.0,1.0,-0.804451757813,-0.991199487305,-10.0939541992,1.0,0.0,0.0,0.0,1.0,0.0,0.0,0.0,1.0
1463745190515512790,450,1463745190513070455,,17.5286979675,-19.013551712,64.4286880493,0.009990000166,1.0,0.0,0.0,0.0,1.0,0.0,0.0,0.0,1.0,1.95121955872,-0.426829278469,-0.243902444839,1.0,0.0,0.0,0.0,1.0,0.0,0.0,0.0,1.0,-0.871489404297,-0.900219824219,-10.180145459,1.0,0.0,0.0,0.0,1.0,0.0,0.0,0.0,1.0
1463745190526512591,451,1463745190523469894,,17.4117259979,-18.8585624695,64.4756393433,0.00999599974602,1.0,0.0,0.0,0.0,1.0,0.0,0.0,0.0,1.0,1.64634156227,-0.18292683363,-0.304878056049,1.0,0.0,0.0,0.0,1.0,0.0,0.0,0.0,1.0,-0.823605371094,-0.895431420898,-10.165780249,1.0,0.0,0.0,0.0,1.0,0.0,0.0,0.0,1.0
1463745190537969578,452,1463745190535533702,,17.3001365662,-18.7097454071,64.5211334229,0.0100189996883,1.0,0.0,0.0,0.0,1.0,0.0,0.0,0.0,1.0,1.95121955872,-0.304878056049,-0.304878056049,1.0,0.0,0.0,0.0,1.0,0.0,0.0,0.0,1.0,-0.890643017578,-0.905008227539,-10.0700121826,1.0,0.0,0.0,0.0,1.0,0.0,0.0,0.0,1.0
1463745190545481371,453,1463745190543202526,,17.1920661926,-18.5533733368,64.5676422119,0.0100189996883,1.0,0.0,0.0,0.0,1.0,0.0,0.0,0.0,1.0,1.8902438879,0.0609756112099,-0.12195122242,1.0,0.0,0.0,0.0,1.0,0.0,0.0,0.0,1.0,-0.785298144531,-0.972045874023,-10.060435376,1.0,0.0,0.0,0.0,1.0,0.0,0.0,0.0,1.0
1463745190555501905,454,1463745190552750979,,17.0884132385,-18.4049625397,64.6120529175,0.00996000040323,1.0,0.0,0.0,0.0,1.0,0.0,0.0,0.0,1.0,2.19512200356,-0.18292683363,-0.18292683363,1.0,0.0,0.0,0.0,1.0,0.0,0.0,0.0,1.0,-0.847547387695,-0.952892260742,-10.0412817627,1.0,0.0,0.0,0.0,1.0,0.0,0.0,0.0,1.0
1463745190565375305,455,1463745190562890418,,16.9747695923,-18.2592525482,64.6594772339,0.0100020002574,1.0,0.0,0.0,0.0,1.0,0.0,0.0,0.0,1.0,1.8292683363,-0.12195122242,-0.0609756112099,1.0,0.0,0.0,0.0,1.0,0.0,0.0,0.0,1.0,-0.881066210937,-0.837970581055,-10.0556469727,1.0,0.0,0.0,0.0,1.0,0.0,0.0,0.0,1.0
1463745190576284429,456,1463745190573487096,,16.8718585968,-18.1114292145,64.7013397217,0.0100119998679,1.0,0.0,0.0,0.0,1.0,0.0,0.0,0.0,1.0,1.8292683363,-0.18292683363,-0.243902444839,1.0,0.0,0.0,0.0,1.0,0.0,0.0,0.0,1.0,-0.833182177734,-0.995987890625,-10.0748005859,1.0,0.0,0.0,0.0,1.0,0.0,0.0,0.0,1.0
1463745190585469497,457,1463745190582917059,,16.767250061,-17.9637832642,64.7435379028,0.00998899992555,1.0,0.0,0.0,0.0,1.0,0.0,0.0,0.0,1.0,2.01219511032,0.0609756112099,-0.365853667259,1.0,0.0,0.0,0.0,1.0,0.0,0.0,0.0,1.0,-0.837970581055,-0.895431420898,-9.95509050293,1.0,0.0,0.0,0.0,1.0,0.0,0.0,0.0,1.0
1463745190595516802,458,1463745190593206290,,16.6688041687,-17.8162612915,64.7844772339,0.00999999977648,1.0,0.0,0.0,0.0,1.0,0.0,0.0,0.0,1.0,2.13414645195,-0.12195122242,-0.243902444839,1.0,0.0,0.0,0.0,1.0,0.0,0.0,0.0,1.0,-0.790086547852,-0.972045874023,-10.0077629395,1.0,0.0,0.0,0.0,1.0,0.0,0.0,0.0,1.0
1463745190605801346,459,1463745190602823753,,16.5704441071,-17.6732826233,64.8234405518,0.0100090000778,1.0,0.0,0.0,0.0,1.0,0.0,0.0,0.0,1.0,1.8902438879,-0.243902444839,-0.304878056049,1.0,0.0,0.0,0.0,1.0,0.0,0.0,0.0,1.0,-0.837970581055,-0.995987890625,-10.046070166,1.0,0.0,0.0,0.0,1.0,0.0,0.0,0.0,1.0
1463745190615355579,460,1463745190612918297,,16.468547821,-17.5351428986,64.8677139282,0.00999299995601,1.0,0.0,0.0,0.0,1.0,0.0,0.0,0.0,1.0,2.01219511032,0.0609756112099,0.0609756112099,1.0,0.0,0.0,0.0,1.0,0.0,0.0,0.0,1.0,-0.938527050781,-0.92416184082,-10.1562034424,1.0,0.0,0.0,0.0,1.0,0.0,0.0,0.0,1.0
1463745190625781841,461,1463745190623258101,,16.3708457947,-17.3950366974,64.9104690552,0.010006999597,1.0,0.0,0.0,0.0,1.0,0.0,0.0,0.0,1.0,1.95121955872,-0.0609756112099,0.12195122242,1.0,0.0,0.0,0.0,1.0,0.0,0.0,0.0,1.0,-0.847547387695,-0.976834277344,-9.99339772949,1.0,0.0,0.0,0.0,1.0,0.0,0.0,0.0,1.0
1463745190635587636,462,1463745190632993115,,16.2723255157,-17.2611446381,64.9505386353,0.00999999977648,1.0,0.0,0.0,0.0,1.0,0.0,0.0,0.0,1.0,1.8902438879,0.0609756112099,-0.18292683363,1.0,0.0,0.0,0.0,1.0,0.0,0.0,0.0,1.0,-0.957680664062,-0.92416184082,-9.86889924316,1.0,0.0,0.0,0.0,1.0,0.0,0.0,0.0,1.0
1463745190645447025,463,1463745190643154013,,16.1764221191,-17.130147934,64.9900054932,0.00999699998647,1.0,0.0,0.0,0.0,1.0,0.0,0.0,0.0,1.0,2.19512200356,-0.304878056049,-0.12195122242,1.0,0.0,0.0,0.0,1.0,0.0,0.0,0.0,1.0,-0.938527050781,-0.91458503418,-10.0652237793,1.0,0.0,0.0,0.0,1.0,0.0,0.0,0.0,1.0
1463745190656041724,464,1463745190653380119,,16.0742340088,-16.9919776917,65.0291900635,0.0100100003183,1.0,0.0,0.0,0.0,1.0,0.0,0.0,0.0,1.0,1.8292683363,-0.18292683363,-0.243902444839,1.0,0.0,0.0,0.0,1.0,0.0,0.0,0.0,1.0,-0.818816967773,-0.857124194336,-10.1514150391,1.0,0.0,0.0,0.0,1.0,0.0,0.0,0.0,1.0
1463745190665368198,465,1463745190662921749,,15.9806146622,-16.8568229675,65.0673294067,0.0099849998951,1.0,0.0,0.0,0.0,1.0,0.0,0.0,0.0,1.0,1.8902438879,0.0,-0.12195122242,1.0,0.0,0.0,0.0,1.0,0.0,0.0,0.0,1.0,-0.866701000977,-0.967257470703,-10.0125513428,1.0,0.0,0.0,0.0,1.0,0.0,0.0,0.0,1.0
1463745190675942115,466,1463745190673259001,,15.880314827,-16.7272758484,65.1103591919,0.0100010000169,1.0,0.0,0.0,0.0,1.0,0.0,0.0,0.0,1.0,1.95121955872,-0.12195122242,0.243902444839,1.0,0.0,0.0,0.0,1.0,0.0,0.0,0.0,1.0,-0.905008227539,-0.842758984375,-10.0364933594,1.0,0.0,0.0,0.0,1.0,0.0,0.0,0.0,1.0
1463745190685530620,467,1463745190683003129,,15.7849588394,-16.5953941345,65.1496658325,0.0100010000169,1.0,0.0,0.0,0.0,1.0,0.0,0.0,0.0,1.0,1.8902438879,-0.18292683363,0.0609756112099,1.0,0.0,0.0,0.0,1.0,0.0,0.0,0.0,1.0,-0.837970581055,-0.905008227539,-9.97424411621,1.0,0.0,0.0,0.0,1.0,0.0,0.0,0.0,1.0
1463745190695693184,468,1463745190693354287,,15.6924695969,-16.4647750854,65.1856384277,0.0100010000169,1.0,0.0,0.0,0.0,1.0,0.0,0.0,0.0,1.0,1.8902438879,-0.18292683363,-0.18292683363,1.0,0.0,0.0,0.0,1.0,0.0,0.0,0.0,1.0,-0.857124194336,-0.928950244141,-10.0269165527,1.0,0.0,0.0,0.0,1.0,0.0,0.0,0.0,1.0
1463745190705481167,469,1463745190702920240,,15.6036987305,-16.3369216919,65.2224121094,0.0100039998069,1.0,0.0,0.0,0.0,1.0,0.0,0.0,0.0,1.0,2.13414645195,-0.0609756112099,-0.0609756112099,1.0,0.0,0.0,0.0,1.0,0.0,0.0,0.0,1.0,-0.905008227539,-0.943315454102,-10.0508585693,1.0,0.0,0.0,0.0,1.0,0.0,0.0,0.0,1.0
1463745190715378785,470,1463745190713001607,,15.5160293579,-16.2065467834,65.2558517456,0.00999299995601,1.0,0.0,0.0,0.0,1.0,0.0,0.0,0.0,1.0,2.01219511032,-0.12195122242,-0.304878056049,1.0,0.0,0.0,0.0,1.0,0.0,0.0,0.0,1.0,-0.823605371094,-0.938527050781,-9.90720646973,1.0,0.0,0.0,0.0,1.0,0.0,0.0,0.0,1.0
1463745190725838328,471,1463745190723209067,,15.4295902252,-16.0827732086,65.2917327881,0.0100079998374,1.0,0.0,0.0,0.0,1.0,0.0,0.0,0.0,1.0,2.19512200356,-0.243902444839,-0.0,1.0,0.0,0.0,0.0,1.0,0.0,0.0,0.0,1.0,-0.900219824219,-0.938527050781,-10.0364933594,1.0,0.0,0.0,0.0,1.0,0.0,0.0,0.0,1.0
1463745190735822768,472,1463745190733186789,,15.3384714127,-15.954164505,65.3263320923,0.00999599974602,1.0,0.0,0.0,0.0,1.0,0.0,0.0,0.0,1.0,1.95121955872,0.0,-0.243902444839,1.0,0.0,0.0,0.0,1.0,0.0,0.0,0.0,1.0,-0.837970581055,-0.871489404297,-10.0221281494,1.0,0.0,0.0,0.0,1.0,0.0,0.0,0.0,1.0
1463745190745354033,473,1463745190743113053,,15.2521162033,-15.8372573853,65.3594818115,0.00999400019646,1.0,0.0,0.0,0.0,1.0,0.0,0.0,0.0,1.0,1.8292683363,-0.487804889679,-0.0609756112099,1.0,0.0,0.0,0.0,1.0,0.0,0.0,0.0,1.0,-0.943315454102,-0.962469067383,-10.0556469727,1.0,0.0,0.0,0.0,1.0,0.0,0.0,0.0,1.0
1463745190755553161,474,1463745190752773171,,15.1676187515,-15.7111692429,65.3935699463,0.0100010000169,1.0,0.0,0.0,0.0,1.0,0.0,0.0,0.0,1.0,2.13414645195,0.0609756112099,-0.12195122242,1.0,0.0,0.0,0.0,1.0,0.0,0.0,0.0,1.0,-0.857124194336,-0.933738647461,-10.0795889893,1.0,0.0,0.0,0.0,1.0,0.0,0.0,0.0,1.0
1463745190765005728,475,1463745190762846101,,15.079451561,-15.5890760422,65.4269561768,0.00999899953604,1.0,0.0,0.0,0.0,1.0,0.0,0.0,0.0,1.0,1.8292683363,-0.18292683363,-0.12195122242,1.0,0.0,0.0,0.0,1.0,0.0,0.0,0.0,1.0,-0.847547387695,-0.885854614258,-9.90241806641,1.0,0.0,0.0,0.0,1.0,0.0,0.0,0.0,1.0
1463745190776395736,476,1463745190773536528,,14.9979848862,-15.4630374908,65.4584197998,0.0100109996274,1.0,0.0,0.0,0.0,1.0,0.0,0.0,0.0,1.0,2.19512200356,-0.304878056049,-0.18292683363,1.0,0.0,0.0,0.0,1.0,0.0,0.0,0.0,1.0,-0.76135612793,-0.943315454102,-10.1370498291,1.0,0.0,0.0,0.0,1.0,0.0,0.0,0.0,1.0
1463745190785449607,477,1463745190782917742,,14.9166288376,-15.34349823,65.4883804321,0.00999100040644,1.0,0.0,0.0,0.0,1.0,0.0,0.0,0.0,1.0,2.01219511032,-0.365853667259,-0.243902444839,1.0,0.0,0.0,0.0,1.0,0.0,0.0,0.0,1.0,-0.837970581055,-0.943315454102,-10.0269165527,1.0,0.0,0.0,0.0,1.0,0.0,0.0,0.0,1.0
1463745190795502693,478,1463745190793220983,,14.8340501785,-15.2227935791,65.5199661255,0.00999800022691,1.0,0.0,0.0,0.0,1.0,0.0,0.0,0.0,1.0,1.70731711388,-0.12195122242,-0.0609756112099,1.0,0.0,0.0,0.0,1.0,0.0,0.0,0.0,1.0,-0.837970581055,-0.976834277344,-10.0748005859,1.0,0.0,0.0,0.0,1.0,0.0,0.0,0.0,1.0
1463745190805540050,479,1463745190802963029,,14.7486610413,-15.1087179184,65.5538101196,0.0100149996579,1.0,0.0,0.0,0.0,1.0,0.0,0.0,0.0,1.0,1.8292683363,-0.243902444839,0.12195122242,1.0,0.0,0.0,0.0,1.0,0.0,0.0,0.0,1.0,-0.909796630859,-0.900219824219,-10.0939541992,1.0,0.0,0.0,0.0,1.0,0.0,0.0,0.0,1.0
1463745190819444736,480,1463745190813035021,,14.6670694351,-14.9890432358,65.5853271484,0.00999400019646,1.0,0.0,0.0,0.0,1.0,0.0,0.0,0.0,1.0,1.8902438879,-0.0609756112099,-0.0609756112099,1.0,0.0,0.0,0.0,1.0,0.0,0.0,0.0,1.0,-0.823605371094,-0.928950244141,-10.0652237793,1.0,0.0,0.0,0.0,1.0,0.0,0.0,0.0,1.0
1463745190832271717,481,1463745190827068248,,14.54504776,-14.8291301727,65.6291122437,0.0142679996789,1.0,0.0,0.0,0.0,1.0,0.0,0.0,0.0,1.0,1.8292683363,-0.18292683363,-0.18292683363,1.0,0.0,0.0,0.0,1.0,0.0,0.0,0.0,1.0,-0.92416184082,-0.847547387695,-10.0748005859,1.0,0.0,0.0,0.0,1.0,0.0,0.0,0.0,1.0
1463745190834839468,482,1463745190832791819,,14.5007457733,-14.7636833191,65.6463546753,0.00572700006887,1.0,0.0,0.0,0.0,1.0,0.0,0.0,0.0,1.0,2.01219511032,-0.12195122242,-0.0609756112099,1.0,0.0,0.0,0.0,1.0,0.0,0.0,0.0,1.0,-0.861912597656,-0.938527050781,-10.0221281494,1.0,0.0,0.0,0.0,1.0,0.0,0.0,0.0,1.0
1463745190845169219,483,1463745190843016207,,14.4282674789,-14.6543130875,65.6741867065,0.00999899953604,1.0,0.0,0.0,0.0,1.0,0.0,0.0,0.0,1.0,1.8902438879,-0.12195122242,-0.12195122242,1.0,0.0,0.0,0.0,1.0,0.0,0.0,0.0,1.0,-0.957680664062,-1.04387185076,-10.1274730225,1.0,0.0,0.0,0.0,1.0,0.0,0.0,0.0,1.0
1463745190854949442,484,1463745190852894345,,14.3516530991,-14.5465574265,65.698890686,0.0100119998679,1.0,0.0,0.0,0.0,1.0,0.0,0.0,0.0,1.0,2.07317066193,-0.548780500889,-0.487804889679,1.0,0.0,0.0,0.0,1.0,0.0,0.0,0.0,1.0,-0.900219824219,-0.900219824219,-10.0748005859,1.0,0.0,0.0,0.0,1.0,0.0,0.0,0.0,1.0
1463745190865375339,485,1463745190863016337,,14.2731437683,-14.4366111755,65.7252578735,0.0099950004369,1.0,0.0,0.0,0.0,1.0,0.0,0.0,0.0,1.0,1.8292683363,-0.18292683363,-0.365853667259,1.0,0.0,0.0,0.0,1.0,0.0,0.0,0.0,1.0,-0.895431420898,-0.900219824219,-10.0508585693,1.0,0.0,0.0,0.0,1.0,0.0,0.0,0.0,1.0
1463745190875854308,486,1463745190873254683,,14.1912031174,-14.3264341354,65.7556152344,0.00999299995601,1.0,0.0,0.0,0.0,1.0,0.0,0.0,0.0,1.0,1.95121955872,-0.12195122242,-0.0609756112099,1.0,0.0,0.0,0.0,1.0,0.0,0.0,0.0,1.0,-0.871489404297,-0.823605371094,-10.1226846191,1.0,0.0,0.0,0.0,1.0,0.0,0.0,0.0,1.0
1463745190885355157,487,1463745190882993864,,14.1186237335,-14.2149963379,65.7794113159,0.0100029995665,1.0,0.0,0.0,0.0,1.0,0.0,0.0,0.0,1.0,1.8292683363,-0.243902444839,-0.426829278469,1.0,0.0,0.0,0.0,1.0,0.0,0.0,0.0,1.0,-0.818816967773,-0.962469067383,-9.95030209961,1.0,0.0,0.0,0.0,1.0,0.0,0.0,0.0,1.0
1463745190895679648,488,1463745190893238564,,14.0458345413,-14.1010465622,65.8047714233,0.0100100003183,1.0,0.0,0.0,0.0,1.0,0.0,0.0,0.0,1.0,1.70731711388,-0.12195122242,-0.243902444839,1.0,0.0,0.0,0.0,1.0,0.0,0.0,0.0,1.0,-0.785298144531,-0.995987890625,-10.1370498291,1.0,0.0,0.0,0.0,1.0,0.0,0.0,0.0,1.0
1463745190904912321,489,1463745190902820870,,13.9720830917,-13.9917593002,65.8301620483,0.00999199971557,1.0,0.0,0.0,0.0,1.0,0.0,0.0,0.0,1.0,1.70731711388,-0.12195122242,-0.243902444839,1.0,0.0,0.0,0.0,1.0,0.0,0.0,0.0,1.0,-0.837970581055,-0.952892260742,-10.046070166,1.0,0.0,0.0,0.0,1.0,0.0,0.0,0.0,1.0
1463745190915473113,490,1463745190913192497,,13.894742012,-13.8882627487,65.8568267822,0.00999299995601,1.0,0.0,0.0,0.0,1.0,0.0,0.0,0.0,1.0,1.58536589146,-0.243902444839,-0.12195122242,1.0,0.0,0.0,0.0,1.0,0.0,0.0,0.0,1.0,-0.895431420898,-0.900219824219,-10.046070166,1.0,0.0,0.0,0.0,1.0,0.0,0.0,0.0,1.0
1463745190925745261,491,1463745190923166781,,13.8256483078,-13.7837762833,65.8791885376,0.0100079998374,1.0,0.0,0.0,0.0,1.0,0.0,0.0,0.0,1.0,2.19512200356,-0.0609756112099,-0.548780500889,1.0,0.0,0.0,0.0,1.0,0.0,0.0,0.0,1.0,-0.909796630859,-0.905008227539,-10.0029745361,1.0,0.0,0.0,0.0,1.0,0.0,0.0,0.0,1.0
1463745190935539441,492,1463745190933229138,,13.7633180618,-13.6790142059,65.9017562866,0.00999899953604,1.0,0.0,0.0,0.0,1.0,0.0,0.0,0.0,1.0,1.95121955872,-0.18292683363,-0.243902444839,1.0,0.0,0.0,0.0,1.0,0.0,0.0,0.0,1.0,-0.852335791016,-1.05823706072,-9.94551369629,1.0,0.0,0.0,0.0,1.0,0.0,0.0,0.0,1.0
1463745190945639090,493,1463745190943264620,,13.6941595078,-13.5731735229,65.9278106689,0.00999999977648,1.0,0.0,0.0,0.0,1.0,0.0,0.0,0.0,1.0,2.01219511032,-0.12195122242,-0.0609756112099,1.0,0.0,0.0,0.0,1.0,0.0,0.0,0.0,1.0,-0.828393774414,-0.943315454102,-10.1322614258,1.0,0.0,0.0,0.0,1.0,0.0,0.0,0.0,1.0
1463745190955408375,494,1463745190952850937,,13.6289749146,-13.476319313,65.9510040283,0.00999599974602,1.0,0.0,0.0,0.0,1.0,0.0,0.0,0.0,1.0,2.01219511032,-0.365853667259,-0.18292683363,1.0,0.0,0.0,0.0,1.0,0.0,0.0,0.0,1.0,-0.92416184082,-0.976834277344,-9.98860932617,1.0,0.0,0.0,0.0,1.0,0.0,0.0,0.0,1.0
1463745190965359690,495,1463745190963078501,,13.5654983521,-13.377368927,65.9726638794,0.00999400019646,1.0,0.0,0.0,0.0,1.0,0.0,0.0,0.0,1.0,2.07317066193,-0.365853667259,-0.304878056049,1.0,0.0,0.0,0.0,1.0,0.0,0.0,0.0,1.0,-0.881066210937,-0.986411083984,-10.060435376,1.0,0.0,0.0,0.0,1.0,0.0,0.0,0.0,1.0
1463745190975836316,496,1463745190973239347,,13.50436306,-13.2752351761,65.9950637817,0.0100109996274,1.0,0.0,0.0,0.0,1.0,0.0,0.0,0.0,1.0,1.8292683363,-0.243902444839,-0.12195122242,1.0,0.0,0.0,0.0,1.0,0.0,0.0,0.0,1.0,-0.828393774414,-1.07260241682,-10.0843773926,1.0,0.0,0.0,0.0,1.0,0.0,0.0,0.0,1.0
1463745190985424040,497,1463745190982905039,,13.4321269989,-13.1796989441,66.0221786499,0.00999699998647,1.0,0.0,0.0,0.0,1.0,0.0,0.0,0.0,1.0,2.01219511032,-0.426829278469,0.12195122242,1.0,0.0,0.0,0.0,1.0,0.0,0.0,0.0,1.0,-0.881066210937,-0.842758984375,-10.1418382324,1.0,0.0,0.0,0.0,1.0,0.0,0.0,0.0,1.0
1463745190995086242,498,1463745190993044687,,13.3637475967,-13.0781803131,66.0456237793,0.0100010000169,1.0,0.0,0.0,0.0,1.0,0.0,0.0,0.0,1.0,1.8292683363,-0.12195122242,-0.18292683363,1.0,0.0,0.0,0.0,1.0,0.0,0.0,0.0,1.0,-0.828393774414,-0.92416184082,-10.165780249,1.0,0.0,0.0,0.0,1.0,0.0,0.0,0.0,1.0
1463745191005246463,499,1463745191002821576,,13.300989151,-12.9819555283,66.0680770874,0.0099950004369,1.0,0.0,0.0,0.0,1.0,0.0,0.0,0.0,1.0,2.01219511032,-0.365853667259,-0.12195122242,1.0,0.0,0.0,0.0,1.0,0.0,0.0,0.0,1.0,-0.861912597656,-0.976834277344,-10.1562034424,1.0,0.0,0.0,0.0,1.0,0.0,0.0,0.0,1.0
1463745191015815536,500,1463745191013195963,,13.2342271805,-12.8801555634,66.0900039673,0.0100050000474,1.0,0.0,0.0,0.0,1.0,0.0,0.0,0.0,1.0,1.64634156227,-0.0609756112099,-0.243902444839,1.0,0.0,0.0,0.0,1.0,0.0,0.0,0.0,1.0,-0.794874951172,-0.948103857422,-10.0508585693,1.0,0.0,0.0,0.0,1.0,0.0,0.0,0.0,1.0
1463745191025624248,501,1463745191023137018,,13.1678714752,-12.7858514786,66.1122360229,0.0100029995665,1.0,0.0,0.0,0.0,1.0,0.0,0.0,0.0,1.0,1.95121955872,-0.365853667259,-0.18292683363,1.0,0.0,0.0,0.0,1.0,0.0,0.0,0.0,1.0,-0.857124194336,-0.890643017578,-10.0843773926,1.0,0.0,0.0,0.0,1.0,0.0,0.0,0.0,1.0
1463745191035489158,502,1463745191033010938,,13.1049423218,-12.6890392303,66.1356658936,0.00999400019646,1.0,0.0,0.0,0.0,1.0,0.0,0.0,0.0,1.0,1.95121955872,0.0609756112099,-0.0609756112099,1.0,0.0,0.0,0.0,1.0,0.0,0.0,0.0,1.0,-0.881066210937,-0.962469067383,-10.2519715088,1.0,0.0,0.0,0.0,1.0,0.0,0.0,0.0,1.0
1463745191045349640,503,1463745191042927566,,13.039563179,-12.5929317474,66.1568374634,0.0100060002878,1.0,0.0,0.0,0.0,1.0,0.0,0.0,0.0,1.0,1.76829278469,-0.426829278469,-0.18292683363,1.0,0.0,0.0,0.0,1.0,0.0,0.0,0.0,1.0,-0.780509741211,-0.91458503418,-10.0652237793,1.0,0.0,0.0,0.0,1.0,0.0,0.0,0.0,1.0
1463745191055388508,504,1463745191052860965,,12.9790802002,-12.4980964661,66.1764297485,0.00999199971557,1.0,0.0,0.0,0.0,1.0,0.0,0.0,0.0,1.0,2.01219511032,-0.304878056049,-0.304878056049,1.0,0.0,0.0,0.0,1.0,0.0,0.0,0.0,1.0,-0.818816967773,-0.948103857422,-10.1466266357,1.0,0.0,0.0,0.0,1.0,0.0,0.0,0.0,1.0
1463745191065971956,505,1463745191063429101,,12.912156105,-12.4053230286,66.1990356445,0.0100020002574,1.0,0.0,0.0,0.0,1.0,0.0,0.0,0.0,1.0,1.8292683363,-0.12195122242,-0.12195122242,1.0,0.0,0.0,0.0,1.0,0.0,0.0,0.0,1.0,-0.857124194336,-0.857124194336,-10.0748005859,1.0,0.0,0.0,0.0,1.0,0.0,0.0,0.0,1.0
1463745191075657387,506,1463745191073079845,,12.850941658,-12.3054380417,66.2195663452,0.0100010000169,1.0,0.0,0.0,0.0,1.0,0.0,0.0,0.0,1.0,1.8902438879,0.304878056049,-0.304878056049,1.0,0.0,0.0,0.0,1.0,0.0,0.0,0.0,1.0,-0.794874951172,-0.928950244141,-10.0412817627,1.0,0.0,0.0,0.0,1.0,0.0,0.0,0.0,1.0
1463745191085446151,507,1463745191082960588,,12.7902469635,-12.2114515305,66.2415466309,0.00999400019646,1.0,0.0,0.0,0.0,1.0,0.0,0.0,0.0,1.0,1.70731711388,-0.0609756112099,-0.0,1.0,0.0,0.0,0.0,1.0,0.0,0.0,0.0,1.0,-0.804451757813,-0.962469067383,-10.0029745361,1.0,0.0,0.0,0.0,1.0,0.0,0.0,0.0,1.0
1463745191095388092,508,1463745191092889039,,12.7338199615,-12.1242818832,66.2617950439,0.0100050000474,1.0,0.0,0.0,0.0,1.0,0.0,0.0,0.0,1.0,2.25609779358,-0.12195122242,-0.18292683363,1.0,0.0,0.0,0.0,1.0,0.0,0.0,0.0,1.0,-0.909796630859,-0.92416184082,-10.0221281494,1.0,0.0,0.0,0.0,1.0,0.0,0.0,0.0,1.0
1463745191105490397,509,1463745191102931448,,12.6728649139,-12.0363359451,66.2832946777,0.0100020002574,1.0,0.0,0.0,0.0,1.0,0.0,0.0,0.0,1.0,2.07317066193,0.0,-0.12195122242,1.0,0.0,0.0,0.0,1.0,0.0,0.0,0.0,1.0,-0.909796630859,-0.881066210937,-10.1562034424,1.0,0.0,0.0,0.0,1.0,0.0,0.0,0.0,1.0
1463745191115701451,510,1463745191113215315,,12.6160335541,-11.9486608505,66.3014755249,0.00999599974602,1.0,0.0,0.0,0.0,1.0,0.0,0.0,0.0,1.0,1.8292683363,-0.304878056049,-0.243902444839,1.0,0.0,0.0,0.0,1.0,0.0,0.0,0.0,1.0,-0.833182177734,-0.957680664062,-9.93593688965,1.0,0.0,0.0,0.0,1.0,0.0,0.0,0.0,1.0
1463745191125781724,511,1463745191123131943,,12.5582351685,-11.865942955,66.3209686279,0.0100109996274,1.0,0.0,0.0,0.0,1.0,0.0,0.0,0.0,1.0,1.8902438879,-0.0609756112099,-0.18292683363,1.0,0.0,0.0,0.0,1.0,0.0,0.0,0.0,1.0,-0.943315454102,-0.9193734375,-9.88805285645,1.0,0.0,0.0,0.0,1.0,0.0,0.0,0.0,1.0
1463745191135592467,512,1463745191133077060,,12.5040340424,-11.7848415375,66.3389282227,0.00999800022691,1.0,0.0,0.0,0.0,1.0,0.0,0.0,0.0,1.0,2.13414645195,-0.0609756112099,-0.304878056049,1.0,0.0,0.0,0.0,1.0,0.0,0.0,0.0,1.0,-0.972045874023,-0.933738647461,-9.99818613281,1.0,0.0,0.0,0.0,1.0,0.0,0.0,0.0,1.0
1463745191145041024,513,1463745191142993637,,12.4497375488,-11.699804306,66.3548965454,0.00999100040644,1.0,0.0,0.0,0.0,1.0,0.0,0.0,0.0,1.0,2.13414645195,-0.12195122242,-0.487804889679,1.0,0.0,0.0,0.0,1.0,0.0,0.0,0.0,1.0,-0.885854614258,-0.9193734375,-10.0412817627,1.0,0.0,0.0,0.0,1.0,0.0,0.0,0.0,1.0
1463745191155468328,514,1463745191152861775,,12.3949241638,-11.6138820648,66.3764190674,0.0100039998069,1.0,0.0,0.0,0.0,1.0,0.0,0.0,0.0,1.0,1.70731711388,-0.12195122242,0.18292683363,1.0,0.0,0.0,0.0,1.0,0.0,0.0,0.0,1.0,-0.833182177734,-1.00077629395,-10.0364933594,1.0,0.0,0.0,0.0,1.0,0.0,0.0,0.0,1.0
1463745191165707142,515,1463745191163189652,,12.3388414383,-11.5274190903,66.3954315186,0.00999699998647,1.0,0.0,0.0,0.0,1.0,0.0,0.0,0.0,1.0,2.01219511032,0.0,-0.18292683363,1.0,0.0,0.0,0.0,1.0,0.0,0.0,0.0,1.0,-0.852335791016,-0.91458503418,-10.180145459,1.0,0.0,0.0,0.0,1.0,0.0,0.0,0.0,1.0
1463745191175750280,516,1463745191173140655,,12.2873859406,-11.4465198517,66.412651062,0.0100010000169,1.0,0.0,0.0,0.0,1.0,0.0,0.0,0.0,1.0,1.70731711388,-0.0609756112099,-0.18292683363,1.0,0.0,0.0,0.0,1.0,0.0,0.0,0.0,1.0,-0.909796630859,-1.01514150391,-9.93593688965,1.0,0.0,0.0,0.0,1.0,0.0,0.0,0.0,1.0
1463745191185747533,517,1463745191183107700,,12.2368793488,-11.3623085022,66.4309082031,0.0100060002878,1.0,0.0,0.0,0.0,1.0,0.0,0.0,0.0,1.0,2.01219511032,0.0,-0.12195122242,1.0,0.0,0.0,0.0,1.0,0.0,0.0,0.0,1.0,-0.852335791016,-0.981622680664,-10.0269165527,1.0,0.0,0.0,0.0,1.0,0.0,0.0,0.0,1.0
1463745191194953643,518,1463745191192880214,,12.1867380142,-11.2795848846,66.4474945068,0.00999100040644,1.0,0.0,0.0,0.0,1.0,0.0,0.0,0.0,1.0,1.8902438879,-0.304878056049,-0.18292683363,1.0,0.0,0.0,0.0,1.0,0.0,0.0,0.0,1.0,-0.804451757813,-0.986411083984,-9.94551369629,1.0,0.0,0.0,0.0,1.0,0.0,0.0,0.0,1.0
1463745191205207666,519,1463745191202806321,,12.133980751,-11.1953487396,66.465133667,0.00999800022691,1.0,0.0,0.0,0.0,1.0,0.0,0.0,0.0,1.0,1.8292683363,0.0609756112099,-0.18292683363,1.0,0.0,0.0,0.0,1.0,0.0,0.0,0.0,1.0,-0.837970581055,-0.957680664062,-10.0748005859,1.0,0.0,0.0,0.0,1.0,0.0,0.0,0.0,1.0
1463745191215874552,520,1463745191213262895,,12.0811605453,-11.1218900681,66.4829940796,0.0100050000474,1.0,0.0,0.0,0.0,1.0,0.0,0.0,0.0,1.0,1.8292683363,-0.0609756112099,-0.12195122242,1.0,0.0,0.0,0.0,1.0,0.0,0.0,0.0,1.0,-0.986411083984,-0.938527050781,-9.98860932617,1.0,0.0,0.0,0.0,1.0,0.0,0.0,0.0,1.0
1463745191225606285,521,1463745191223106086,,12.0268287659,-11.0374250412,66.499671936,0.00999699998647,1.0,0.0,0.0,0.0,1.0,0.0,0.0,0.0,1.0,1.8902438879,0.0609756112099,-0.304878056049,1.0,0.0,0.0,0.0,1.0,0.0,0.0,0.0,1.0,-0.809240161133,-0.895431420898,-10.0795889893,1.0,0.0,0.0,0.0,1.0,0.0,0.0,0.0,1.0
1463745191235786766,522,1463745191233091047,,11.9733762741,-10.9561843872,66.5190811157,0.0100119998679,1.0,0.0,0.0,0.0,1.0,0.0,0.0,0.0,1.0,2.13414645195,-0.12195122242,-0.0,1.0,0.0,0.0,0.0,1.0,0.0,0.0,0.0,1.0,-0.809240161133,-0.866701000977,-10.0652237793,1.0,0.0,0.0,0.0,1.0,0.0,0.0,0.0,1.0
1463745191245009595,523,1463745191242822832,,11.9212884903,-10.8797483444,66.5357589722,0.00999400019646,1.0,0.0,0.0,0.0,1.0,0.0,0.0,0.0,1.0,1.8292683363,-0.12195122242,-0.18292683363,1.0,0.0,0.0,0.0,1.0,0.0,0.0,0.0,1.0,-0.885854614258,-0.92416184082,-10.0412817627,1.0,0.0,0.0,0.0,1.0,0.0,0.0,0.0,1.0
1463745191255768616,524,1463745191252833679,,11.8708600998,-10.8000459671,66.5532836914,0.0099950004369,1.0,0.0,0.0,0.0,1.0,0.0,0.0,0.0,1.0,2.01219511032,-0.243902444839,-0.0609756112099,1.0,0.0,0.0,0.0,1.0,0.0,0.0,0.0,1.0,-0.794874951172,-0.92416184082,-10.1322614258,1.0,0.0,0.0,0.0,1.0,0.0,0.0,0.0,1.0
1463745191265729098,525,1463745191263247024,,11.8142805099,-10.7256803513,66.5742416382,0.00999800022691,1.0,0.0,0.0,0.0,1.0,0.0,0.0,0.0,1.0,1.8292683363,-0.0609756112099,0.18292683363,1.0,0.0,0.0,0.0,1.0,0.0,0.0,0.0,1.0,-0.885854614258,-0.833182177734,-9.98382092285,1.0,0.0,0.0,0.0,1.0,0.0,0.0,0.0,1.0
1463745191276178536,526,1463745191273094955,,11.7683591843,-10.6456642151,66.587348938,0.0100029995665,1.0,0.0,0.0,0.0,1.0,0.0,0.0,0.0,1.0,1.8902438879,-0.0609756112099,-0.426829278469,1.0,0.0,0.0,0.0,1.0,0.0,0.0,0.0,1.0,-0.799663354492,-0.981622680664,-9.98860932617,1.0,0.0,0.0,0.0,1.0,0.0,0.0,0.0,1.0
1463745191285531938,527,1463745191282831167,,11.7221813202,-10.5728168488,66.6036453247,0.0100029995665,1.0,0.0,0.0,0.0,1.0,0.0,0.0,0.0,1.0,2.01219511032,-0.304878056049,-0.0609756112099,1.0,0.0,0.0,0.0,1.0,0.0,0.0,0.0,1.0,-0.866701000977,-0.967257470703,-10.0939541992,1.0,0.0,0.0,0.0,1.0,0.0,0.0,0.0,1.0
1463745191294976068,528,1463745191292907430,,11.6747379303,-10.4995956421,66.6209411621,0.00999699998647,1.0,0.0,0.0,0.0,1.0,0.0,0.0,0.0,1.0,1.70731711388,-0.18292683363,0.0609756112099,1.0,0.0,0.0,0.0,1.0,0.0,0.0,0.0,1.0,-0.857124194336,-0.986411083984,-10.0125513428,1.0,0.0,0.0,0.0,1.0,0.0,0.0,0.0,1.0
1463745191305541339,529,1463745191302836975,,11.6267700195,-10.4289960861,66.6356430054,0.0100010000169,1.0,0.0,0.0,0.0,1.0,0.0,0.0,0.0,1.0,1.76829278469,-0.365853667259,-0.18292683363,1.0,0.0,0.0,0.0,1.0,0.0,0.0,0.0,1.0,-0.871489404297,-0.952892260742,-10.0556469727,1.0,0.0,0.0,0.0,1.0,0.0,0.0,0.0,1.0
1463745191315765622,530,1463745191313136101,,11.5804519653,-10.359498024,66.650428772,0.00999699998647,1.0,0.0,0.0,0.0,1.0,0.0,0.0,0.0,1.0,1.95121955872,0.0,-0.243902444839,1.0,0.0,0.0,0.0,1.0,0.0,0.0,0.0,1.0,-0.938527050781,-0.933738647461,-9.98860932617,1.0,0.0,0.0,0.0,1.0,0.0,0.0,0.0,1.0
1463745191325733396,531,1463745191323166531,,11.5359973907,-10.2898645401,66.6641998291,0.0100010000169,1.0,0.0,0.0,0.0,1.0,0.0,0.0,0.0,1.0,1.70731711388,-0.365853667259,-0.18292683363,1.0,0.0,0.0,0.0,1.0,0.0,0.0,0.0,1.0,-0.871489404297,-1.01514150391,-10.1178962158,1.0,0.0,0.0,0.0,1.0,0.0,0.0,0.0,1.0
1463745191335194662,532,1463745191332845244,,11.4917058945,-10.2176609039,66.6780700684,0.00999800022691,1.0,0.0,0.0,0.0,1.0,0.0,0.0,0.0,1.0,2.07317066193,0.0,-0.304878056049,1.0,0.0,0.0,0.0,1.0,0.0,0.0,0.0,1.0,-0.871489404297,-0.933738647461,-10.0269165527,1.0,0.0,0.0,0.0,1.0,0.0,0.0,0.0,1.0
1463745191345420507,533,1463745191342975829,,11.4460229874,-10.1492424011,66.6902084351,0.0100090000778,1.0,0.0,0.0,0.0,1.0,0.0,0.0,0.0,1.0,1.95121955872,-0.243902444839,-0.426829278469,1.0,0.0,0.0,0.0,1.0,0.0,0.0,0.0,1.0,-0.895431420898,-0.92416184082,-10.0939541992,1.0,0.0,0.0,0.0,1.0,0.0,0.0,0.0,1.0
1463745191355741821,534,1463745191353054801,,11.3983392715,-10.0799207687,66.7041702271,0.00999800022691,1.0,0.0,0.0,0.0,1.0,0.0,0.0,0.0,1.0,1.8292683363,-0.243902444839,-0.243902444839,1.0,0.0,0.0,0.0,1.0,0.0,0.0,0.0,1.0,-0.852335791016,-0.900219824219,-10.0221281494,1.0,0.0,0.0,0.0,1.0,0.0,0.0,0.0,1.0
1463745191365661835,535,1463745191363112991,,11.3533906937,-10.0075616837,66.71849823,0.0100060002878,1.0,0.0,0.0,0.0,1.0,0.0,0.0,0.0,1.0,1.8292683363,-0.365853667259,-0.12195122242,1.0,0.0,0.0,0.0,1.0,0.0,0.0,0.0,1.0,-0.76135612793,-0.943315454102,-10.0125513428,1.0,0.0,0.0,0.0,1.0,0.0,0.0,0.0,1.0
1463745191376078930,536,1463745191373337639,,11.3078117371,-9.94231891632,66.7308197021,0.00999599974602,1.0,0.0,0.0,0.0,1.0,0.0,0.0,0.0,1.0,1.95121955872,-0.304878056049,-0.365853667259,1.0,0.0,0.0,0.0,1.0,0.0,0.0,0.0,1.0,-0.890643017578,-0.890643017578,-9.98382092285,1.0,0.0,0.0,0.0,1.0,0.0,0.0,0.0,1.0
1463745191385363217,537,1463745191382833591,,11.2697544098,-9.87043476105,66.7423477173,0.00999299995601,1.0,0.0,0.0,0.0,1.0,0.0,0.0,0.0,1.0,1.95121955872,0.0,-0.365853667259,1.0,0.0,0.0,0.0,1.0,0.0,0.0,0.0,1.0,-0.837970581055,-1.04387185076,-10.2376062988,1.0,0.0,0.0,0.0,1.0,0.0,0.0,0.0,1.0
1463745191395380574,538,1463745191392909854,,11.2309446335,-9.80099773407,66.7572021484,0.00999899953604,1.0,0.0,0.0,0.0,1.0,0.0,0.0,0.0,1.0,2.07317066193,-0.243902444839,-0.0,1.0,0.0,0.0,0.0,1.0,0.0,0.0,0.0,1.0,-0.804451757813,-1.00077629395,-10.1322614258,1.0,0.0,0.0,0.0,1.0,0.0,0.0,0.0,1.0
1463745191405301994,539,1463745191402832107,,11.1912555695,-9.7359380722,66.7685928345,0.00999899953604,1.0,0.0,0.0,0.0,1.0,0.0,0.0,0.0,1.0,2.01219511032,-0.18292683363,-0.365853667259,1.0,0.0,0.0,0.0,1.0,0.0,0.0,0.0,1.0,-0.885854614258,-0.967257470703,-10.0317049561,1.0,0.0,0.0,0.0,1.0,0.0,0.0,0.0,1.0
1463745191415770911,540,1463745191413114047,,11.1461143494,-9.6727514267,66.7828826904,0.00999800022691,1.0,0.0,0.0,0.0,1.0,0.0,0.0,0.0,1.0,1.8902438879,-0.243902444839,-0.12195122242,1.0,0.0,0.0,0.0,1.0,0.0,0.0,0.0,1.0,-0.885854614258,-0.890643017578,-10.0221281494,1.0,0.0,0.0,0.0,1.0,0.0,0.0,0.0,1.0
1463745191425938528,541,1463745191423390778,,11.0992794037,-9.60743522644,66.7981491089,0.0100210001692,1.0,0.0,0.0,0.0,1.0,0.0,0.0,0.0,1.0,1.64634156227,0.0609756112099,-0.0609756112099,1.0,0.0,0.0,0.0,1.0,0.0,0.0,0.0,1.0,-0.881066210937,-0.890643017578,-9.91199487305,1.0,0.0,0.0,0.0,1.0,0.0,0.0,0.0,1.0
1463745191435468231,542,1463745191432937980,,11.0572633743,-9.54695606232,66.8119354248,0.0099849998951,1.0,0.0,0.0,0.0,1.0,0.0,0.0,0.0,1.0,2.01219511032,-0.243902444839,-0.12195122242,1.0,0.0,0.0,0.0,1.0,0.0,0.0,0.0,1.0,-0.909796630859,-0.905008227539,-10.0077629395,1.0,0.0,0.0,0.0,1.0,0.0,0.0,0.0,1.0
1463745191445471213,543,1463745191442826536,,11.0172367096,-9.481798172,66.8259506226,0.0100039998069,1.0,0.0,0.0,0.0,1.0,0.0,0.0,0.0,1.0,1.8902438879,-0.12195122242,-0.0609756112099,1.0,0.0,0.0,0.0,1.0,0.0,0.0,0.0,1.0,-0.833182177734,-0.952892260742,-9.95030209961,1.0,0.0,0.0,0.0,1.0,0.0,0.0,0.0,1.0
1463745191455485966,544,1463745191452869986,,10.9766321182,-9.41853904724,66.841468811,0.00999999977648,1.0,0.0,0.0,0.0,1.0,0.0,0.0,0.0,1.0,2.07317066193,-0.12195122242,0.0609756112099,1.0,0.0,0.0,0.0,1.0,0.0,0.0,0.0,1.0,-0.866701000977,-0.92416184082,-10.1418382324,1.0,0.0,0.0,0.0,1.0,0.0,0.0,0.0,1.0
1463745191465890040,545,1463745191463280779,,10.9377450943,-9.35565280914,66.8547897339,0.00999699998647,1.0,0.0,0.0,0.0,1.0,0.0,0.0,0.0,1.0,1.8902438879,-0.304878056049,-0.0609756112099,1.0,0.0,0.0,0.0,1.0,0.0,0.0,0.0,1.0,-0.823605371094,-0.962469067383,-10.0077629395,1.0,0.0,0.0,0.0,1.0,0.0,0.0,0.0,1.0
1463745191476220937,546,1463745191473197407,,10.8970947266,-9.2919254303,66.8682250977,0.0100060002878,1.0,0.0,0.0,0.0,1.0,0.0,0.0,0.0,1.0,1.8292683363,0.0,-0.12195122242,1.0,0.0,0.0,0.0,1.0,0.0,0.0,0.0,1.0,-0.852335791016,-0.933738647461,-9.99339772949,1.0,0.0,0.0,0.0,1.0,0.0,0.0,0.0,1.0
1463745191485008820,547,1463745191482922213,,10.8572912216,-9.23165512085,66.8814086914,0.00999299995601,1.0,0.0,0.0,0.0,1.0,0.0,0.0,0.0,1.0,1.95121955872,-0.12195122242,-0.12195122242,1.0,0.0,0.0,0.0,1.0,0.0,0.0,0.0,1.0,-0.885854614258,-0.92416184082,-10.060435376,1.0,0.0,0.0,0.0,1.0,0.0,0.0,0.0,1.0
1463745191495667320,548,1463745191493164986,,10.8146390915,-9.17027568817,66.8956832886,0.0100119998679,1.0,0.0,0.0,0.0,1.0,0.0,0.0,0.0,1.0,1.95121955872,-0.0609756112099,-0.0609756112099,1.0,0.0,0.0,0.0,1.0,0.0,0.0,0.0,1.0,-0.861912597656,-0.866701000977,-10.0269165527,1.0,0.0,0.0,0.0,1.0,0.0,0.0,0.0,1.0
1463745191505056190,549,1463745191502777813,,10.7708654404,-9.10637569427,66.9096603394,0.00999299995601,1.0,0.0,0.0,0.0,1.0,0.0,0.0,0.0,1.0,1.76829278469,-0.12195122242,-0.0609756112099,1.0,0.0,0.0,0.0,1.0,0.0,0.0,0.0,1.0,-0.790086547852,-0.866701000977,-9.98860932617,1.0,0.0,0.0,0.0,1.0,0.0,0.0,0.0,1.0
1463745191515671253,550,1463745191512995795,,10.7358894348,-9.04243850708,66.9201812744,0.00999299995601,1.0,0.0,0.0,0.0,1.0,0.0,0.0,0.0,1.0,2.01219511032,-0.12195122242,-0.304878056049,1.0,0.0,0.0,0.0,1.0,0.0,0.0,0.0,1.0,-0.794874951172,-0.972045874023,-10.0652237793,1.0,0.0,0.0,0.0,1.0,0.0,0.0,0.0,1.0
1463745191525712204,551,1463745191523193307,,10.6968784332,-8.98723697662,66.9332122803,0.0100079998374,1.0,0.0,0.0,0.0,1.0,0.0,0.0,0.0,1.0,2.19512200356,-0.18292683363,-0.12195122242,1.0,0.0,0.0,0.0,1.0,0.0,0.0,0.0,1.0,-0.92416184082,-0.866701000977,-10.0748005859,1.0,0.0,0.0,0.0,1.0,0.0,0.0,0.0,1.0
1463745191535476489,552,1463745191532891967,,10.6644649506,-8.92738056183,66.9434204102,0.00999199971557,1.0,0.0,0.0,0.0,1.0,0.0,0.0,0.0,1.0,2.01219511032,0.0,-0.304878056049,1.0,0.0,0.0,0.0,1.0,0.0,0.0,0.0,1.0,-0.866701000977,-1.00077629395,-10.0317049561,1.0,0.0,0.0,0.0,1.0,0.0,0.0,0.0,1.0
1463745191545565460,553,1463745191542920106,,10.6205663681,-8.87029838562,66.9547119141,0.0100010000169,1.0,0.0,0.0,0.0,1.0,0.0,0.0,0.0,1.0,1.58536589146,-0.304878056049,-0.243902444839,1.0,0.0,0.0,0.0,1.0,0.0,0.0,0.0,1.0,-0.852335791016,-0.871489404297,-10.0795889893,1.0,0.0,0.0,0.0,1.0,0.0,0.0,0.0,1.0
1463745191555208443,554,1463745191552813973,,10.587392807,-8.81195640564,66.9657821655,0.00999999977648,1.0,0.0,0.0,0.0,1.0,0.0,0.0,0.0,1.0,1.95121955872,-0.12195122242,-0.18292683363,1.0,0.0,0.0,0.0,1.0,0.0,0.0,0.0,1.0,-0.847547387695,-0.986411083984,-10.0221281494,1.0,0.0,0.0,0.0,1.0,0.0,0.0,0.0,1.0
1463745191565792829,555,1463745191563281954,,10.5469264984,-8.76015090942,66.9786758423,0.0100170001388,1.0,0.0,0.0,0.0,1.0,0.0,0.0,0.0,1.0,1.8902438879,-0.304878056049,-0.0609756112099,1.0,0.0,0.0,0.0,1.0,0.0,0.0,0.0,1.0,-0.9193734375,-0.866701000977,-10.046070166,1.0,0.0,0.0,0.0,1.0,0.0,0.0,0.0,1.0
1463745191576061383,556,1463745191573366654,,10.512090683,-8.70464420319,66.9906616211,0.00999599974602,1.0,0.0,0.0,0.0,1.0,0.0,0.0,0.0,1.0,2.01219511032,-0.0609756112099,-0.12195122242,1.0,0.0,0.0,0.0,1.0,0.0,0.0,0.0,1.0,-0.890643017578,-0.938527050781,-10.0700121826,1.0,0.0,0.0,0.0,1.0,0.0,0.0,0.0,1.0
1463745191585421086,557,1463745191582919586,,10.4754047394,-8.65093421936,67.0048217773,0.00998899992555,1.0,0.0,0.0,0.0,1.0,0.0,0.0,0.0,1.0,2.19512200356,-0.12195122242,0.0609756112099,1.0,0.0,0.0,0.0,1.0,0.0,0.0,0.0,1.0,-0.905008227539,-0.881066210937,-10.1897222656,1.0,0.0,0.0,0.0,1.0,0.0,0.0,0.0,1.0
1463745191596019327,558,1463745191593559753,,10.4389324188,-8.59393024445,67.0159683228,0.0100060002878,1.0,0.0,0.0,0.0,1.0,0.0,0.0,0.0,1.0,1.8292683363,-0.12195122242,-0.18292683363,1.0,0.0,0.0,0.0,1.0,0.0,0.0,0.0,1.0,-0.833182177734,-0.92416184082,-10.0317049561,1.0,0.0,0.0,0.0,1.0,0.0,0.0,0.0,1.0
1463745191605076479,559,1463745191602781019,,10.3993711472,-8.53943538666,67.0308303833,0.00999699998647,1.0,0.0,0.0,0.0,1.0,0.0,0.0,0.0,1.0,1.8292683363,-0.243902444839,0.18292683363,1.0,0.0,0.0,0.0,1.0,0.0,0.0,0.0,1.0,-0.833182177734,-0.871489404297,-10.0364933594,1.0,0.0,0.0,0.0,1.0,0.0,0.0,0.0,1.0
1463745191615942895,560,1463745191613160823,,10.3588228226,-8.48442077637,67.0434341431,0.00999699998647,1.0,0.0,0.0,0.0,1.0,0.0,0.0,0.0,1.0,1.76829278469,-0.18292683363,-0.0609756112099,1.0,0.0,0.0,0.0,1.0,0.0,0.0,0.0,1.0,-0.847547387695,-0.866701000977,-10.2136642822,1.0,0.0,0.0,0.0,1.0,0.0,0.0,0.0,1.0
1463745191625997960,561,1463745191623119742,,10.3268680573,-8.43601036072,67.0530548096,0.0100039998069,1.0,0.0,0.0,0.0,1.0,0.0,0.0,0.0,1.0,2.07317066193,-0.365853667259,-0.243902444839,1.0,0.0,0.0,0.0,1.0,0.0,0.0,0.0,1.0,-0.9193734375,-0.938527050781,-10.0556469727,1.0,0.0,0.0,0.0,1.0,0.0,0.0,0.0,1.0
1463745191635396518,562,1463745191632870746,,10.2963418961,-8.38364982605,67.062713623,0.00999400019646,1.0,0.0,0.0,0.0,1.0,0.0,0.0,0.0,1.0,2.07317066193,-0.18292683363,-0.243902444839,1.0,0.0,0.0,0.0,1.0,0.0,0.0,0.0,1.0,-0.861912597656,-0.948103857422,-9.94551369629,1.0,0.0,0.0,0.0,1.0,0.0,0.0,0.0,1.0
1463745191645723457,563,1463745191642938207,,10.2653264999,-8.33205032349,67.0735626221,0.0100119998679,1.0,0.0,0.0,0.0,1.0,0.0,0.0,0.0,1.0,1.8902438879,-0.0609756112099,-0.12195122242,1.0,0.0,0.0,0.0,1.0,0.0,0.0,0.0,1.0,-0.900219824219,-0.986411083984,-10.1035310059,1.0,0.0,0.0,0.0,1.0,0.0,0.0,0.0,1.0
1463745191655481231,564,1463745191652873481,,10.2271471024,-8.28239250183,67.0832061768,0.009990000166,1.0,0.0,0.0,0.0,1.0,0.0,0.0,0.0,1.0,1.76829278469,-0.18292683363,-0.304878056049,1.0,0.0,0.0,0.0,1.0,0.0,0.0,0.0,1.0,-0.900219824219,-0.861912597656,-10.0412817627,1.0,0.0,0.0,0.0,1.0,0.0,0.0,0.0,1.0
1463745191665556140,565,1463745191663101879,,10.1994752884,-8.22876834869,67.0942840576,0.0100050000474,1.0,0.0,0.0,0.0,1.0,0.0,0.0,0.0,1.0,2.13414645195,-0.12195122242,-0.0609756112099,1.0,0.0,0.0,0.0,1.0,0.0,0.0,0.0,1.0,-0.828393774414,-0.986411083984,-10.0556469727,1.0,0.0,0.0,0.0,1.0,0.0,0.0,0.0,1.0
1463745191675831517,566,1463745191673123975,,10.1694421768,-8.1776599884,67.1022796631,0.0100010000169,1.0,0.0,0.0,0.0,1.0,0.0,0.0,0.0,1.0,2.01219511032,-0.243902444839,-0.365853667259,1.0,0.0,0.0,0.0,1.0,0.0,0.0,0.0,1.0,-0.847547387695,-0.948103857422,-10.0125513428,1.0,0.0,0.0,0.0,1.0,0.0,0.0,0.0,1.0
1463745191684935492,567,1463745191682875656,,10.141037941,-8.1292848587,67.112953186,0.00999699998647,1.0,0.0,0.0,0.0,1.0,0.0,0.0,0.0,1.0,2.07317066193,-0.304878056049,-0.0609756112099,1.0,0.0,0.0,0.0,1.0,0.0,0.0,0.0,1.0,-0.866701000977,-0.967257470703,-10.0077629395,1.0,0.0,0.0,0.0,1.0,0.0,0.0,0.0,1.0
1463745191695206390,568,1463745191692973117,,10.1035108566,-8.08567333221,67.1223526001,0.00999599974602,1.0,0.0,0.0,0.0,1.0,0.0,0.0,0.0,1.0,1.70731711388,-0.426829278469,-0.243902444839,1.0,0.0,0.0,0.0,1.0,0.0,0.0,0.0,1.0,-0.938527050781,-0.871489404297,-10.1466266357,1.0,0.0,0.0,0.0,1.0,0.0,0.0,0.0,1.0
1463745191705234424,569,1463745191702821620,,10.0695018768,-8.03503227234,67.1346664429,0.0100109996274,1.0,0.0,0.0,0.0,1.0,0.0,0.0,0.0,1.0,1.8902438879,-0.304878056049,0.0609756112099,1.0,0.0,0.0,0.0,1.0,0.0,0.0,0.0,1.0,-0.804451757813,-0.890643017578,-9.98860932617,1.0,0.0,0.0,0.0,1.0,0.0,0.0,0.0,1.0
1463745191715894226,570,1463745191713172309,,10.0385913849,-7.98451709747,67.1427688599,0.009990000166,1.0,0.0,0.0,0.0,1.0,0.0,0.0,0.0,1.0,1.76829278469,0.0609756112099,-0.365853667259,1.0,0.0,0.0,0.0,1.0,0.0,0.0,0.0,1.0,-0.885854614258,-0.962469067383,-10.1131078125,1.0,0.0,0.0,0.0,1.0,0.0,0.0,0.0,1.0
1463745191725689761,571,1463745191723143625,,10.0034999847,-7.93314313889,67.1516799927,0.0100060002878,1.0,0.0,0.0,0.0,1.0,0.0,0.0,0.0,1.0,1.8292683363,-0.18292683363,-0.304878056049,1.0,0.0,0.0,0.0,1.0,0.0,0.0,0.0,1.0,-0.823605371094,-0.881066210937,-10.2088758789,1.0,0.0,0.0,0.0,1.0,0.0,0.0,0.0,1.0
1463745191735060662,572,1463745191732961920,,9.97054100037,-7.88843870163,67.1610641479,0.00999599974602,1.0,0.0,0.0,0.0,1.0,0.0,0.0,0.0,1.0,2.07317066193,-0.243902444839,-0.243902444839,1.0,0.0,0.0,0.0,1.0,0.0,0.0,0.0,1.0,-0.91458503418,-0.861912597656,-10.1274730225,1.0,0.0,0.0,0.0,1.0,0.0,0.0,0.0,1.0
1463745191745350153,573,1463745191742876153,,9.94216632843,-7.83663702011,67.1665115356,0.0100020002574,1.0,0.0,0.0,0.0,1.0,0.0,0.0,0.0,1.0,2.01219511032,0.0,-0.609756112099,1.0,0.0,0.0,0.0,1.0,0.0,0.0,0.0,1.0,-0.823605371094,-0.928950244141,-9.98860932617,1.0,0.0,0.0,0.0,1.0,0.0,0.0,0.0,1.0
1463745191755488083,574,1463745191752896947,,9.90847492218,-7.79481220245,67.1772766113,0.0100029995665,1.0,0.0,0.0,0.0,1.0,0.0,0.0,0.0,1.0,1.64634156227,-0.487804889679,-0.0,1.0,0.0,0.0,0.0,1.0,0.0,0.0,0.0,1.0,-0.895431420898,-0.91458503418,-10.0748005859,1.0,0.0,0.0,0.0,1.0,0.0,0.0,0.0,1.0
1463745191765710439,575,1463745191763238730,,9.88495063782,-7.74193096161,67.1859054565,0.00999899953604,1.0,0.0,0.0,0.0,1.0,0.0,0.0,0.0,1.0,2.07317066193,-0.18292683363,-0.18292683363,1.0,0.0,0.0,0.0,1.0,0.0,0.0,0.0,1.0,-0.742202514648,-1.00077629395,-9.96945571289,1.0,0.0,0.0,0.0,1.0,0.0,0.0,0.0,1.0
1463745191776527116,576,1463745191773317441,,9.85493659973,-7.69513320923,67.1940383911,0.00999999977648,1.0,0.0,0.0,0.0,1.0,0.0,0.0,0.0,1.0,1.8292683363,-0.426829278469,-0.243902444839,1.0,0.0,0.0,0.0,1.0,0.0,0.0,0.0,1.0,-0.809240161133,-0.933738647461,-10.0939541992,1.0,0.0,0.0,0.0,1.0,0.0,0.0,0.0,1.0
1463745191785358175,577,1463745191782963862,,9.82664680481,-7.65358638763,67.2027511597,0.00999299995601,1.0,0.0,0.0,0.0,1.0,0.0,0.0,0.0,1.0,1.95121955872,-0.365853667259,-0.18292683363,1.0,0.0,0.0,0.0,1.0,0.0,0.0,0.0,1.0,-0.895431420898,-0.928950244141,-9.99818613281,1.0,0.0,0.0,0.0,1.0,0.0,0.0,0.0,1.0
1463745191795380688,578,1463745191792953146,,9.80389881134,-7.6097574234,67.2094116211,0.0100020002574,1.0,0.0,0.0,0.0,1.0,0.0,0.0,0.0,1.0,1.95121955872,-0.0609756112099,-0.365853667259,1.0,0.0,0.0,0.0,1.0,0.0,0.0,0.0,1.0,-0.905008227539,-1.01514150391,-9.95509050293,1.0,0.0,0.0,0.0,1.0,0.0,0.0,0.0,1.0
1463745191805217890,579,1463745191802833680,,9.78350543976,-7.55777215958,67.2179412842,0.0100060002878,1.0,0.0,0.0,0.0,1.0,0.0,0.0,0.0,1.0,2.19512200356,0.0,-0.18292683363,1.0,0.0,0.0,0.0,1.0,0.0,0.0,0.0,1.0,-0.76135612793,-1.01992990723,-10.0029745361,1.0,0.0,0.0,0.0,1.0,0.0,0.0,0.0,1.0
1463745191818764921,580,1463745191813143172,,9.76096343994,-7.51352596283,67.2238464355,0.009990000166,1.0,0.0,0.0,0.0,1.0,0.0,0.0,0.0,1.0,2.07317066193,-0.18292683363,-0.426829278469,1.0,0.0,0.0,0.0,1.0,0.0,0.0,0.0,1.0,-0.871489404297,-1.00077629395,-10.0891657959,1.0,0.0,0.0,0.0,1.0,0.0,0.0,0.0,1.0
1463745191827773688,581,1463745191825777550,,9.7207736969,-7.46428775787,67.2371902466,0.0127520002425,1.0,0.0,0.0,0.0,1.0,0.0,0.0,0.0,1.0,2.01219511032,-0.243902444839,-0.0609756112099,1.0,0.0,0.0,0.0,1.0,0.0,0.0,0.0,1.0,-0.938527050781,-0.852335791016,-10.060435376,1.0,0.0,0.0,0.0,1.0,0.0,0.0,0.0,1.0
1463745191834888556,582,1463745191833222937,,9.69690036774,-7.43069553375,67.2430343628,0.00726700015366,1.0,0.0,0.0,0.0,1.0,0.0,0.0,0.0,1.0,1.8292683363,-0.18292683363,-0.304878056049,1.0,0.0,0.0,0.0,1.0,0.0,0.0,0.0,1.0,-0.814028564453,-0.852335791016,-10.0939541992,1.0,0.0,0.0,0.0,1.0,0.0,0.0,0.0,1.0
1463745191844754507,583,1463745191842912587,,9.66567897797,-7.39204311371,67.2534179688,0.00998300034553,1.0,0.0,0.0,0.0,1.0,0.0,0.0,0.0,1.0,1.76829278469,-0.365853667259,-0.0,1.0,0.0,0.0,0.0,1.0,0.0,0.0,0.0,1.0,-0.900219824219,-0.890643017578,-10.0700121826,1.0,0.0,0.0,0.0,1.0,0.0,0.0,0.0,1.0
1463745191855576653,584,1463745191853035621,,9.6448469162,-7.34261894226,67.2627487183,0.0100100003183,1.0,0.0,0.0,0.0,1.0,0.0,0.0,0.0,1.0,2.19512200356,0.914634168148,-0.243902444839,1.0,0.0,0.0,0.0,1.0,0.0,0.0,0.0,1.0,-0.943315454102,-1.00077629395,-10.1274730225,1.0,0.0,0.0,0.0,1.0,0.0,0.0,0.0,1.0
1463745191864564066,585,1463745191862858968,,9.63557338715,-7.29323816299,67.2657546997,0.00999100040644,1.0,0.0,0.0,0.0,1.0,0.0,0.0,0.0,1.0,2.56097555161,0.975609779358,-0.792682945728,1.0,0.0,0.0,0.0,1.0,0.0,0.0,0.0,1.0,-0.962469067383,-1.12527478027,-10.1178962158,1.0,0.0,0.0,0.0,1.0,0.0,0.0,0.0,1.0
1463745191875604231,586,1463745191873473875,,9.62240695953,-7.24460077286,67.267539978,0.0105619998649,1.0,0.0,0.0,0.0,1.0,0.0,0.0,0.0,1.0,2.13414645195,0.304878056049,-0.792682945728,1.0,0.0,0.0,0.0,1.0,0.0,0.0,0.0,1.0,-0.890643017578,-1.13485158691,-10.0652237793,1.0,0.0,0.0,0.0,1.0,0.0,0.0,0.0,1.0
1463745191884488468,587,1463745191882891963,,9.61279201508,-7.19700813293,67.2713012695,0.0094480002299,1.0,0.0,0.0,0.0,1.0,0.0,0.0,0.0,1.0,1.34146344662,1.03658533096,-0.548780500889,1.0,0.0,0.0,0.0,1.0,0.0,0.0,0.0,1.0,-0.91458503418,-1.30244570312,-9.90241806641,1.0,0.0,0.0,0.0,1.0,0.0,0.0,0.0,1.0
1463745191894969365,588,1463745191893084476,,9.57880878448,-7.14911413193,67.2785110474,0.00997299980372,1.0,0.0,0.0,0.0,1.0,0.0,0.0,0.0,1.0,-0.487804889679,0.426829278469,-0.18292683363,1.0,0.0,0.0,0.0,1.0,0.0,0.0,0.0,1.0,-0.828393774414,-1.20667770978,-9.89762966309,1.0,0.0,0.0,0.0,1.0,0.0,0.0,0.0,1.0
1463745191904519796,589,1463745191902905740,,9.53870296478,-7.08869361877,67.2927246094,0.0100159998983,1.0,0.0,0.0,0.0,1.0,0.0,0.0,0.0,1.0,-1.40243899822,1.64634156227,0.365853667259,1.0,0.0,0.0,0.0,1.0,0.0,0.0,0.0,1.0,-0.809240161133,-1.28808049316,-10.0125513428,1.0,0.0,0.0,0.0,1.0,0.0,0.0,0.0,1.0
1463745191914893923,590,1463745191912903878,,9.44362926483,-7.02794504166,67.3069763184,0.0100170001388,1.0,0.0,0.0,0.0,1.0,0.0,0.0,0.0,1.0,-1.70731711388,-0.365853667259,0.0609756112099,1.0,0.0,0.0,0.0,1.0,0.0,0.0,0.0,1.0,-0.435744702148,-0.349553442383,-10.0652237793,1.0,0.0,0.0,0.0,1.0,0.0,0.0,0.0,1.0
1463745191924737530,591,1463745191922859152,,9.39719390869,-6.99777889252,67.2977218628,0.00999299995601,1.0,0.0,0.0,0.0,1.0,0.0,0.0,0.0,1.0,1.09756100178,0.365853667259,-2.19512200356,1.0,0.0,0.0,0.0,1.0,0.0,0.0,0.0,1.0,-1.20188930646,-0.660799658203,-10.3190091553,1.0,0.0,0.0,0.0,1.0,0.0,0.0,0.0,1.0
1463745191935181552,592,1463745191933076508,,9.36578083038,-6.92449474335,67.3108062744,0.0100090000778,1.0,0.0,0.0,0.0,1.0,0.0,0.0,0.0,1.0,0.975609779358,0.670731723309,0.243902444839,1.0,0.0,0.0,0.0,1.0,0.0,0.0,0.0,1.0,-0.368707055664,-0.952892260742,-9.7348239502,1.0,0.0,0.0,0.0,1.0,0.0,0.0,0.0,1.0
1463745191944709901,593,1463745191942840845,,9.2999382019,-6.89084434509,67.3313140869,0.00997699983418,1.0,0.0,0.0,0.0,1.0,0.0,0.0,0.0,1.0,-0.487804889679,0.487804889679,0.792682945728,1.0,0.0,0.0,0.0,1.0,0.0,0.0,0.0,1.0,-1.04866025408,-0.646434448242,-10.3094323486,1.0,0.0,0.0,0.0,1.0,0.0,0.0,0.0,1.0
1463745191955683816,594,1463745191953888771,,9.23923492432,-6.84128904343,67.3510437012,0.0100619997829,1.0,0.0,0.0,0.0,1.0,0.0,0.0,0.0,1.0,-0.792682945728,0.243902444839,0.853658556938,1.0,0.0,0.0,0.0,1.0,0.0,0.0,0.0,1.0,-0.708683691406,-0.790086547852,-10.2280294922,1.0,0.0,0.0,0.0,1.0,0.0,0.0,0.0,1.0
1463745191964545553,595,1463745191962919882,,9.20076179504,-6.81713151932,67.3651657104,0.00996000040323,1.0,0.0,0.0,0.0,1.0,0.0,0.0,0.0,1.0,0.609756112099,-0.304878056049,0.487804889679,1.0,0.0,0.0,0.0,1.0,0.0,0.0,0.0,1.0,-1.06302561017,-0.900219824219,-10.1609918457,1.0,0.0,0.0,0.0,1.0,0.0,0.0,0.0,1.0
1463745191975050043,596,1463745191973075259,,9.18997764587,-6.78552103043,67.3709259033,0.00999699998647,1.0,0.0,0.0,0.0,1.0,0.0,0.0,0.0,1.0,1.2195122242,-0.18292683363,-0.12195122242,1.0,0.0,0.0,0.0,1.0,0.0,0.0,0.0,1.0,-0.962469067383,-1.26413847656,-10.0748005859,1.0,0.0,0.0,0.0,1.0,0.0,0.0,0.0,1.0
1463745191984845370,597,1463745191983155012,,9.17929363251,-6.76607942581,67.3783569336,0.00999100040644,1.0,0.0,0.0,0.0,1.0,0.0,0.0,0.0,1.0,0.0609756112099,0.243902444839,0.12195122242,1.0,0.0,0.0,0.0,1.0,0.0,0.0,0.0,1.0,-1.20667770978,-1.42694418945,-9.72045874023,1.0,0.0,0.0,0.0,1.0,0.0,0.0,0.0,1.0
1463745191994833508,598,1463745191993021484,,9.14594459534,-6.74075841904,67.3924484253,0.00999199971557,1.0,0.0,0.0,0.0,1.0,0.0,0.0,0.0,1.0,-2.19512200356,0.670731723309,0.731707334518,1.0,0.0,0.0,0.0,1.0,0.0,0.0,0.0,1.0,-1.16837033709,-1.45088620605,-9.81622680664,1.0,0.0,0.0,0.0,1.0,0.0,0.0,0.0,1.0
1463745192004397221,599,1463745192002776446,,9.08180809021,-6.70849275589,67.4187545776,0.0100020002574,1.0,0.0,0.0,0.0,1.0,0.0,0.0,0.0,1.0,-4.20731735229,0.792682945728,1.8292683363,1.0,0.0,0.0,0.0,1.0,0.0,0.0,0.0,1.0,-1.05823706072,-1.31681091309,-10.0939541992,1.0,0.0,0.0,0.0,1.0,0.0,0.0,0.0,1.0
1463745192014987961,600,1463745192012931563,,9.01100349426,-6.67553520203,67.4447021484,0.00999699998647,1.0,0.0,0.0,0.0,1.0,0.0,0.0,0.0,1.0,-6.09756088257,0.365853667259,2.01219511032,1.0,0.0,0.0,0.0,1.0,0.0,0.0,0.0,1.0,-0.967257470703,-1.53707746582,-10.1514150391,1.0,0.0,0.0,0.0,1.0,0.0,0.0,0.0,1.0
1463745192024914746,601,1463745192022882462,,8.90715026855,-6.64586782455,67.4763412476,0.00999800022691,1.0,0.0,0.0,0.0,1.0,0.0,0.0,0.0,1.0,-7.86585378647,-0.18292683363,2.5,1.0,0.0,0.0,0.0,1.0,0.0,0.0,0.0,1.0,-0.885854614258,-1.22583125,-9.93593688965,1.0,0.0,0.0,0.0,1.0,0.0,0.0,0.0,1.0
1463745192034642989,602,1463745192033009506,,8.80026245117,-6.64232635498,67.5102844238,0.0100189996883,1.0,0.0,0.0,0.0,1.0,0.0,0.0,0.0,1.0,-8.47560977936,-0.426829278469,2.80487799644,1.0,0.0,0.0,0.0,1.0,0.0,0.0,0.0,1.0,-1.31202250977,-1.28329208984,-10.0412817627,1.0,0.0,0.0,0.0,1.0,0.0,0.0,0.0,1.0
1463745192044714252,603,1463745192042832280,,8.68804740906,-6.6197810173,67.5420608521,0.00998200010508,1.0,0.0,0.0,0.0,1.0,0.0,0.0,0.0,1.0,-9.02439117432,-0.18292683363,2.56097555161,1.0,0.0,0.0,0.0,1.0,0.0,0.0,0.0,1.0,-0.981622680664,-1.21146604004,-9.68693991699,1.0,0.0,0.0,0.0,1.0,0.0,0.0,0.0,1.0
1463745192055028275,604,1463745192052915002,,8.52711105347,-6.58112955093,67.5764007568,0.00999999977648,1.0,0.0,0.0,0.0,1.0,0.0,0.0,0.0,1.0,-8.78048801422,0.365853667259,2.13414645195,1.0,0.0,0.0,0.0,1.0,0.0,0.0,0.0,1.0,-0.833182177734,-0.325611425781,-10.1897222656,1.0,0.0,0.0,0.0,1.0,0.0,0.0,0.0,1.0
1463745192064532196,605,1463745192062896161,,8.40495109558,-6.52893543243,67.614151001,0.0100180003792,1.0,0.0,0.0,0.0,1.0,0.0,0.0,0.0,1.0,-6.0365858078,0.365853667259,2.62195134163,1.0,0.0,0.0,0.0,1.0,0.0,0.0,0.0,1.0,-0.574608398438,-0.517147558594,-10.1945106689,1.0,0.0,0.0,0.0,1.0,0.0,0.0,0.0,1.0
1463745192074775229,606,1463745192072955132,,8.28404331207,-6.46845722198,67.6274871826,0.0100119998679,1.0,0.0,0.0,0.0,1.0,0.0,0.0,0.0,1.0,-5.67073154449,-0.426829278469,0.243902444839,1.0,0.0,0.0,0.0,1.0,0.0,0.0,0.0,1.0,-0.325611425781,-0.387860668945,-9.90720646973,1.0,0.0,0.0,0.0,1.0,0.0,0.0,0.0,1.0
1463745192084793992,607,1463745192083047020,,8.18148899078,-6.39171457291,67.5973052979,0.0100520001724,1.0,0.0,0.0,0.0,1.0,0.0,0.0,0.0,1.0,-2.68292689323,-0.0609756112099,-4.32926845551,1.0,0.0,0.0,0.0,1.0,0.0,0.0,0.0,1.0,-0.215478149414,-0.0861912597656,-10.1322614258,1.0,0.0,0.0,0.0,1.0,0.0,0.0,0.0,1.0
1463745192095926345,608,1463745192093282918,,8.11838150024,-6.33693218231,67.5900039673,0.00992199964821,1.0,0.0,0.0,0.0,1.0,0.0,0.0,0.0,1.0,1.09756100178,0.792682945728,-2.13414645195,1.0,0.0,0.0,0.0,1.0,0.0,0.0,0.0,1.0,-0.660799658203,-0.119710083008,-9.89762966309,1.0,0.0,0.0,0.0,1.0,0.0,0.0,0.0,1.0
1463745192105181726,609,1463745192102892828,,8.08970069885,-6.28887414932,67.6015930176,0.0100220004097,1.0,0.0,0.0,0.0,1.0,0.0,0.0,0.0,1.0,0.243902444839,0.670731723309,0.304878056049,1.0,0.0,0.0,0.0,1.0,0.0,0.0,0.0,1.0,-0.708683691406,-0.9193734375,-9.90720646973,1.0,0.0,0.0,0.0,1.0,0.0,0.0,0.0,1.0
1463745192115804914,610,1463745192112940498,,8.01100921631,-6.23680686951,67.6079406738,0.0100060002878,1.0,0.0,0.0,0.0,1.0,0.0,0.0,0.0,1.0,-2.43902444839,0.731707334518,-0.487804889679,1.0,0.0,0.0,0.0,1.0,0.0,0.0,0.0,1.0,-0.679953271484,-0.512359155273,-10.3046439453,1.0,0.0,0.0,0.0,1.0,0.0,0.0,0.0,1.0
1463745192125297429,611,1463745192122744522,,7.89758872986,-6.21091842651,67.6149291992,0.00993600022048,1.0,0.0,0.0,0.0,1.0,0.0,0.0,0.0,1.0,-2.80487799644,-1.64634156227,-0.426829278469,1.0,0.0,0.0,0.0,1.0,0.0,0.0,0.0,1.0,-0.723048901367,0.0909796630859,-10.5632177246,1.0,0.0,0.0,0.0,1.0,0.0,0.0,0.0,1.0
1463745192135418692,612,1463745192133120628,,7.86480617523,-6.2019200325,67.6241226196,0.0100459996611,1.0,0.0,0.0,0.0,1.0,0.0,0.0,0.0,1.0,1.58536589146,-0.609756112099,0.0609756112099,1.0,0.0,0.0,0.0,1.0,0.0,0.0,0.0,1.0,-1.13963999023,-0.555454785156,-9.7827079834,1.0,0.0,0.0,0.0,1.0,0.0,0.0,0.0,1.0
1463745192145735787,613,1463745192142865590,,7.83526182175,-6.16083240509,67.6313552856,0.00999599974602,1.0,0.0,0.0,0.0,1.0,0.0,0.0,0.0,1.0,2.86585378647,0.304878056049,-0.365853667259,1.0,0.0,0.0,0.0,1.0,0.0,0.0,0.0,1.0,-0.742202514648,-0.378283862305,-9.77791958008,1.0,0.0,0.0,0.0,1.0,0.0,0.0,0.0,1.0
1463745192155407989,614,1463745192152754458,,7.80773639679,-6.13369274139,67.6363372803,0.00998700037599,1.0,0.0,0.0,0.0,1.0,0.0,0.0,0.0,1.0,1.8902438879,-0.365853667259,-0.365853667259,1.0,0.0,0.0,0.0,1.0,0.0,0.0,0.0,1.0,-0.900219824219,-0.598550451572,-10.1753570557,1.0,0.0,0.0,0.0,1.0,0.0,0.0,0.0,1.0
1463745192164996025,615,1463745192162840617,,7.77041959763,-6.09306669235,67.6468963623,0.0100020002574,1.0,0.0,0.0,0.0,1.0,0.0,0.0,0.0,1.0,1.58536589146,0.12195122242,0.0609756112099,1.0,0.0,0.0,0.0,1.0,0.0,0.0,0.0,1.0,-0.727837304687,-0.483628735352,-10.180145459,1.0,0.0,0.0,0.0,1.0,0.0,0.0,0.0,1.0
1463745192175611296,616,1463745192172933650,,7.7425866127,-6.06205940247,67.6627883911,0.0100210001692,1.0,0.0,0.0,0.0,1.0,0.0,0.0,0.0,1.0,2.74390244484,-0.975609779358,0.731707334518,1.0,0.0,0.0,0.0,1.0,0.0,0.0,0.0,1.0,-0.675164868164,-0.445321508789,-10.0748005859,1.0,0.0,0.0,0.0,1.0,0.0,0.0,0.0,1.0
1463745192185058291,617,1463745192182837831,,7.74480009079,-6.02843856812,67.6744384766,0.0100060002878,1.0,0.0,0.0,0.0,1.0,0.0,0.0,0.0,1.0,3.71951246262,-0.243902444839,0.426829278469,1.0,0.0,0.0,0.0,1.0,0.0,0.0,0.0,1.0,-0.76614453125,-0.799663354492,-10.1083194092,1.0,0.0,0.0,0.0,1.0,0.0,0.0,0.0,1.0
1463745192195606948,618,1463745192192943000,,7.73664808273,-5.99646472931,67.6826019287,0.0099950004369,1.0,0.0,0.0,0.0,1.0,0.0,0.0,0.0,1.0,3.35365867615,-0.670731723309,0.0609756112099,1.0,0.0,0.0,0.0,1.0,0.0,0.0,0.0,1.0,-0.708683691406,-0.660799658203,-9.94551369629,1.0,0.0,0.0,0.0,1.0,0.0,0.0,0.0,1.0
1463745192204882381,619,1463745192202752181,,7.73290681839,-5.9748339653,67.690284729,0.00998099986464,1.0,0.0,0.0,0.0,1.0,0.0,0.0,0.0,1.0,3.29268312454,-0.609756112099,0.0609756112099,1.0,0.0,0.0,0.0,1.0,0.0,0.0,0.0,1.0,-0.91458503418,-0.76135612793,-10.1322614258,1.0,0.0,0.0,0.0,1.0,0.0,0.0,0.0,1.0
1463745192215233747,620,1463745192212889068,,7.73213768005,-5.95173597336,67.6999511719,0.0100010000169,1.0,0.0,0.0,0.0,1.0,0.0,0.0,0.0,1.0,3.59756112099,-0.487804889679,0.243902444839,1.0,0.0,0.0,0.0,1.0,0.0,0.0,0.0,1.0,-0.900219824219,-0.76135612793,-10.1083194092,1.0,0.0,0.0,0.0,1.0,0.0,0.0,0.0,1.0
1463745192225530373,621,1463745192222903821,,7.74299287796,-5.92966508865,67.7029495239,0.0100170001388,1.0,0.0,0.0,0.0,1.0,0.0,0.0,0.0,1.0,4.08536577225,-0.426829278469,-0.365853667259,1.0,0.0,0.0,0.0,1.0,0.0,0.0,0.0,1.0,-0.943315454102,-0.871489404297,-10.1178962158,1.0,0.0,0.0,0.0,1.0,0.0,0.0,0.0,1.0
1463745192235082940,622,1463745192232865137,,7.76528978348,-5.88481807709,67.6996078491,0.0100010000169,1.0,0.0,0.0,0.0,1.0,0.0,0.0,0.0,1.0,4.20731735229,0.12195122242,-0.975609779358,1.0,0.0,0.0,0.0,1.0,0.0,0.0,0.0,1.0,-0.636857641602,-1.03908344744,-10.0269165527,1.0,0.0,0.0,0.0,1.0,0.0,0.0,0.0,1.0
1463745192245167172,623,1463745192242802494,,7.7668466568,-5.8325009346,67.6923828125,0.00998399965465,1.0,0.0,0.0,0.0,1.0,0.0,0.0,0.0,1.0,3.35365867615,-0.12195122242,-1.46341466904,1.0,0.0,0.0,0.0,1.0,0.0,0.0,0.0,1.0,-0.46447512207,-0.823605371094,-10.1083194092,1.0,0.0,0.0,0.0,1.0,0.0,0.0,0.0,1.0
1463745192255007811,624,1463745192252850111,,7.76271533966,-5.77495479584,67.6826477051,0.009990000166,1.0,0.0,0.0,0.0,1.0,0.0,0.0,0.0,1.0,3.90243911743,-0.12195122242,-1.8292683363,1.0,0.0,0.0,0.0,1.0,0.0,0.0,0.0,1.0,-0.368707055664,-0.61770402832,-10.1083194092,1.0,0.0,0.0,0.0,1.0,0.0,0.0,0.0,1.0
1463745192265359750,625,1463745192262941530,,7.77154874802,-5.70282030106,67.6796112061,0.0100490003824,1.0,0.0,0.0,0.0,1.0,0.0,0.0,0.0,1.0,4.32926845551,0.18292683363,-1.09756100178,1.0,0.0,0.0,0.0,1.0,0.0,0.0,0.0,1.0,-0.143652099609,-0.794874951172,-10.2184526855,1.0,0.0,0.0,0.0,1.0,0.0,0.0,0.0,1.0
1463745192275386378,626,1463745192272827742,,7.76792192459,-5.64552593231,67.6500930786,0.00997400004417,1.0,0.0,0.0,0.0,1.0,0.0,0.0,0.0,1.0,6.0365858078,0.18292683363,-4.08536577225,1.0,0.0,0.0,0.0,1.0,0.0,0.0,0.0,1.0,-0.450109912109,-0.205901342773,-10.0508585693,1.0,0.0,0.0,0.0,1.0,0.0,0.0,0.0,1.0
1463745192285035351,627,1463745192282789943,,7.7839345932,-5.59314584732,67.6292572021,0.00998700037599,1.0,0.0,0.0,0.0,1.0,0.0,0.0,0.0,1.0,8.5365858078,0.0609756112099,-3.23170733452,1.0,0.0,0.0,0.0,1.0,0.0,0.0,0.0,1.0,-0.497993945312,-0.129286889648,-10.2950671387,1.0,0.0,0.0,0.0,1.0,0.0,0.0,0.0,1.0
1463745192295661820,628,1463745192292899956,,7.8418264389,-5.53931903839,67.6055679321,0.00999199971557,1.0,0.0,0.0,0.0,1.0,0.0,0.0,0.0,1.0,9.75609779358,-0.731707334518,-3.10975623131,1.0,0.0,0.0,0.0,1.0,0.0,0.0,0.0,1.0,-0.320823022461,-0.670376464844,-10.2328178955,1.0,0.0,0.0,0.0,1.0,0.0,0.0,0.0,1.0
1463745192304974075,629,1463745192302896531,,7.90071392059,-5.49160480499,67.5867538452,0.0100159998983,1.0,0.0,0.0,0.0,1.0,0.0,0.0,0.0,1.0,9.02439117432,-0.0609756112099,-2.62195134163,1.0,0.0,0.0,0.0,1.0,0.0,0.0,0.0,1.0,-0.521935925381,-0.818816967773,-9.99339772949,1.0,0.0,0.0,0.0,1.0,0.0,0.0,0.0,1.0
1463745192314909141,630,1463745192312862534,,7.94338321686,-5.40847539902,67.5614395142,0.0100050000474,1.0,0.0,0.0,0.0,1.0,0.0,0.0,0.0,1.0,8.59756088257,0.0609756112099,-3.41463422775,1.0,0.0,0.0,0.0,1.0,0.0,0.0,0.0,1.0,0.076614453125,-0.612915625,-10.0843773926,1.0,0.0,0.0,0.0,1.0,0.0,0.0,0.0,1.0
1463745192325315090,631,1463745192322758277,,7.97740030289,-5.3513879776,67.561416626,0.00999800022691,1.0,0.0,0.0,0.0,1.0,0.0,0.0,0.0,1.0,9.02439117432,-0.792682945728,-0.853658556938,1.0,0.0,0.0,0.0,1.0,0.0,0.0,0.0,1.0,-0.162805712891,-0.445321508789,-10.3860468018,1.0,0.0,0.0,0.0,1.0,0.0,0.0,0.0,1.0
1463745192335193698,632,1463745192333036206,,8.04646110535,-5.27945995331,67.5522079468,0.0100210001692,1.0,0.0,0.0,0.0,1.0,0.0,0.0,0.0,1.0,10.2439022064,0.243902444839,-1.70731711388,1.0,0.0,0.0,0.0,1.0,0.0,0.0,0.0,1.0,-0.0957680664062,-0.852335791016,-10.3333743652,1.0,0.0,0.0,0.0,1.0,0.0,0.0,0.0,1.0
1463745192345741157,633,1463745192343077261,,8.08518028259,-5.19400119781,67.5239715576,0.00996099971235,1.0,0.0,0.0,0.0,1.0,0.0,0.0,0.0,1.0,11.7073173523,-0.0609756112099,-4.02439022064,1.0,0.0,0.0,0.0,1.0,0.0,0.0,0.0,1.0,0.186747729492,-0.00957680664062,-10.8792523438,1.0,0.0,0.0,0.0,1.0,0.0,0.0,0.0,1.0
1463745192354959142,634,1463745192352792744,,8.15149116516,-5.09481668472,67.4403915405,0.0100180003792,1.0,0.0,0.0,0.0,1.0,0.0,0.0,0.0,1.0,17.317073822,-0.365853667259,-9.81707286835,1.0,0.0,0.0,0.0,1.0,0.0,0.0,0.0,1.0,0.354341845703,0.61770402832,-10.4674496582,1.0,0.0,0.0,0.0,1.0,0.0,0.0,0.0,1.0
1463745192364860458,635,1463745192362857080,,8.31618022919,-5.05805587769,67.3850097656,0.0100050000474,1.0,0.0,0.0,0.0,1.0,0.0,0.0,0.0,1.0,23.3536586761,-0.548780500889,-6.58536624908,1.0,0.0,0.0,0.0,1.0,0.0,0.0,0.0,1.0,-0.641646044922,-0.148440512063,-9.91678327637,1.0,0.0,0.0,0.0,1.0,0.0,0.0,0.0,1.0
1463745192376026456,636,1463745192372894645,,8.51179218292,-5.01017093658,67.349571228,0.00997800007463,1.0,0.0,0.0,0.0,1.0,0.0,0.0,0.0,1.0,21.5853652954,-0.487804889679,-4.14634132385,1.0,0.0,0.0,0.0,1.0,0.0,0.0,0.0,1.0,-0.392649072266,-1.06781401349,-9.79228479004,1.0,0.0,0.0,0.0,1.0,0.0,0.0,0.0,1.0
1463745192385210899,637,1463745192382949085,,8.62697887421,-4.97896718979,67.3026351929,0.0100010000169,1.0,0.0,0.0,0.0,1.0,0.0,0.0,0.0,1.0,15.7926826477,0.18292683363,-5.60975599289,1.0,0.0,0.0,0.0,1.0,0.0,0.0,0.0,1.0,-0.857124194336,-0.703895288086,-10.1322614258,1.0,0.0,0.0,0.0,1.0,0.0,0.0,0.0,1.0
1463745192396020858,638,1463745192393247743,,8.75141716003,-4.95704984665,67.2769393921,0.0100159998983,1.0,0.0,0.0,0.0,1.0,0.0,0.0,0.0,1.0,15.6097564697,-0.243902444839,-3.29268312454,1.0,0.0,0.0,0.0,1.0,0.0,0.0,0.0,1.0,-0.895431420898,-0.967257470703,-10.2471831055,1.0,0.0,0.0,0.0,1.0,0.0,0.0,0.0,1.0
1463745192405778736,639,1463745192403434266,,8.90394973755,-4.94844055176,67.2593688965,0.0100619997829,1.0,0.0,0.0,0.0,1.0,0.0,0.0,0.0,1.0,17.6219520569,0.0,-2.43902444839,1.0,0.0,0.0,0.0,1.0,0.0,0.0,0.0,1.0,-1.13963999023,-1.11569797363,-10.0700121826,1.0,0.0,0.0,0.0,1.0,0.0,0.0,0.0,1.0
1463745192415762343,640,1463745192413338030,,9.09334087372,-4.95465755463,67.2321014404,0.0100050000474,1.0,0.0,0.0,0.0,1.0,0.0,0.0,0.0,1.0,17.2560977936,0.243902444839,-3.10975623131,1.0,0.0,0.0,0.0,1.0,0.0,0.0,0.0,1.0,-1.40779057617,-1.78607443848,-9.52413478862,1.0,0.0,0.0,0.0,1.0,0.0,0.0,0.0,1.0
1463745192425985429,641,1463745192423317314,,9.24934387207,-5.01303911209,67.1935653687,0.00999199971557,1.0,0.0,0.0,0.0,1.0,0.0,0.0,0.0,1.0,14.4512205124,-2.25609779358,-3.90243911743,1.0,0.0,0.0,0.0,1.0,0.0,0.0,0.0,1.0,-2.02549460449,-1.81001645508,-10.0700121826,1.0,0.0,0.0,0.0,1.0,0.0,0.0,0.0,1.0
1463745192435514923,642,1463745192433257953,,9.39784145355,-4.95896577835,67.1569595337,0.0100159998983,1.0,0.0,0.0,0.0,1.0,0.0,0.0,0.0,1.0,13.3536586761,3.17073178291,-4.57317066193,1.0,0.0,0.0,0.0,1.0,0.0,0.0,0.0,1.0,-0.9193734375,-1.79565124512,-9.53371159526,1.0,0.0,0.0,0.0,1.0,0.0,0.0,0.0,1.0
1463745192445968685,643,1463745192443374736,,9.50248527527,-5.02415895462,67.1255950928,0.00998399965465,1.0,0.0,0.0,0.0,1.0,0.0,0.0,0.0,1.0,11.1585359573,-2.92682933807,-3.23170733452,1.0,0.0,0.0,0.0,1.0,0.0,0.0,0.0,1.0,-1.97282216797,-1.5083470459,-9.90720646973,1.0,0.0,0.0,0.0,1.0,0.0,0.0,0.0,1.0
1463745192455825313,644,1463745192453444958,,9.60491847992,-5.04997873306,67.1129608154,0.0100260004401,1.0,0.0,0.0,0.0,1.0,0.0,0.0,0.0,1.0,10.4878053665,-0.0609756112099,-1.76829278469,1.0,0.0,0.0,0.0,1.0,0.0,0.0,0.0,1.0,-1.81959326172,-1.70945998535,-10.3812583984,1.0,0.0,0.0,0.0,1.0,0.0,0.0,0.0,1.0
1463745192465510327,645,1463745192462820130,,9.68768310547,-5.0384311676,67.1092681885,0.00990699976683,1.0,0.0,0.0,0.0,1.0,0.0,0.0,0.0,1.0,7.25609779358,0.548780500889,-0.853658556938,1.0,0.0,0.0,0.0,1.0,0.0,0.0,0.0,1.0,-1.13485158691,-1.8866309082,-9.76834277344,1.0,0.0,0.0,0.0,1.0,0.0,0.0,0.0,1.0
1463745192475961849,646,1463745192473325349,,9.69463157654,-5.05763578415,67.1130371094,0.0100830001757,1.0,0.0,0.0,0.0,1.0,0.0,0.0,0.0,1.0,3.47560977936,-1.34146344662,-0.12195122242,1.0,0.0,0.0,0.0,1.0,0.0,0.0,0.0,1.0,-1.33596452637,-1.24019645996,-9.95030209961,1.0,0.0,0.0,0.0,1.0,0.0,0.0,0.0,1.0
1463745192485594416,647,1463745192483246352,,9.69785881042,-5.05459213257,67.1377868652,0.0099950004369,1.0,0.0,0.0,0.0,1.0,0.0,0.0,0.0,1.0,3.41463422775,-0.0609756112099,1.76829278469,1.0,0.0,0.0,0.0,1.0,0.0,0.0,0.0,1.0,-1.11569797363,-1.22583125,-9.98860932617,1.0,0.0,0.0,0.0,1.0,0.0,0.0,0.0,1.0
1463745192496095417,648,1463745192493096575,,9.70989322662,-5.06433773041,67.1542739868,0.009990000166,1.0,0.0,0.0,0.0,1.0,0.0,0.0,0.0,1.0,3.90243911743,-0.487804889679,1.03658533096,1.0,0.0,0.0,0.0,1.0,0.0,0.0,0.0,1.0,-1.31681091309,-1.30723410645,-10.1705686523,1.0,0.0,0.0,0.0,1.0,0.0,0.0,0.0,1.0
1463745192506085899,649,1463745192502877630,,9.71604156494,-5.04498291016,67.162109375,0.00993099994957,1.0,0.0,0.0,0.0,1.0,0.0,0.0,0.0,1.0,3.90243911743,0.487804889679,-0.0609756112099,1.0,0.0,0.0,0.0,1.0,0.0,0.0,0.0,1.0,-0.981622680664,-1.17794714373,-10.0748005859,1.0,0.0,0.0,0.0,1.0,0.0,0.0,0.0,1.0
1463745192516284089,650,1463745192513250455,,9.72615623474,-5.01708078384,67.1625747681,0.0100760003552,1.0,0.0,0.0,0.0,1.0,0.0,0.0,0.0,1.0,3.96341490746,-0.18292683363,-0.670731723309,1.0,0.0,0.0,0.0,1.0,0.0,0.0,0.0,1.0,-0.732625708008,-1.23061965332,-10.1035310059,1.0,0.0,0.0,0.0,1.0,0.0,0.0,0.0,1.0
1463745192525865354,651,1463745192523273541,,9.7583694458,-4.98478269577,67.1649780273,0.0100189996883,1.0,0.0,0.0,0.0,1.0,0.0,0.0,0.0,1.0,4.51219558716,0.0609756112099,-0.365853667259,1.0,0.0,0.0,0.0,1.0,0.0,0.0,0.0,1.0,-0.641646044922,-1.44609780273,-9.49061596538,1.0,0.0,0.0,0.0,1.0,0.0,0.0,0.0,1.0
1463745192535724378,652,1463745192533331314,,9.77716827393,-4.98742437363,67.1744003296,0.00994800031185,1.0,0.0,0.0,0.0,1.0,0.0,0.0,0.0,1.0,3.84146332741,0.0,0.304878056049,1.0,0.0,0.0,0.0,1.0,0.0,0.0,0.0,1.0,-1.25456166992,-1.40779057617,-9.91199487305,1.0,0.0,0.0,0.0,1.0,0.0,0.0,0.0,1.0
1463745192545931630,653,1463745192542889454,,9.7845993042,-4.94428682327,67.1917877197,0.00995399989188,1.0,0.0,0.0,0.0,1.0,0.0,0.0,0.0,1.0,2.92682933807,1.40243899822,0.853658556938,1.0,0.0,0.0,0.0,1.0,0.0,0.0,0.0,1.0,-0.684741674805,-1.42694418945,-10.2184526855,1.0,0.0,0.0,0.0,1.0,0.0,0.0,0.0,1.0
1463745192555510759,654,1463745192553249674,,9.76357364655,-4.9235830307,67.2134170532,0.0100760003552,1.0,0.0,0.0,0.0,1.0,0.0,0.0,0.0,1.0,1.2804877758,0.0,1.40243899822,1.0,0.0,0.0,0.0,1.0,0.0,0.0,0.0,1.0,-0.809240161133,-1.19710090314,-10.0700121826,1.0,0.0,0.0,0.0,1.0,0.0,0.0,0.0,1.0
1463745192565688480,655,1463745192563263542,,9.74908447266,-4.91040611267,67.2375564575,0.0100119998679,1.0,0.0,0.0,0.0,1.0,0.0,0.0,0.0,1.0,1.15853655338,0.18292683363,1.70731711388,1.0,0.0,0.0,0.0,1.0,0.0,0.0,0.0,1.0,-0.957680664062,-1.32638771973,-10.0029745361,1.0,0.0,0.0,0.0,1.0,0.0,0.0,0.0,1.0
1463745192575933284,656,1463745192573298295,,9.73366165161,-4.89482021332,67.2650375366,0.00994599983096,1.0,0.0,0.0,0.0,1.0,0.0,0.0,0.0,1.0,1.64634156227,0.548780500889,1.95121955872,1.0,0.0,0.0,0.0,1.0,0.0,0.0,0.0,1.0,-0.957680664062,-1.21146604004,-9.91678327637,1.0,0.0,0.0,0.0,1.0,0.0,0.0,0.0,1.0
1463745192585597413,657,1463745192583312422,,9.71300697327,-4.89344263077,67.2855529785,0.0100429998711,1.0,0.0,0.0,0.0,1.0,0.0,0.0,0.0,1.0,1.03658533096,0.243902444839,1.2804877758,1.0,0.0,0.0,0.0,1.0,0.0,0.0,0.0,1.0,-1.17794714373,-1.21625444336,-9.92636008301,1.0,0.0,0.0,0.0,1.0,0.0,0.0,0.0,1.0
1463745192596340445,658,1463745192593197332,,9.69859695435,-4.89505529404,67.3001708984,0.00992199964821,1.0,0.0,0.0,0.0,1.0,0.0,0.0,0.0,1.0,1.2804877758,0.609756112099,0.670731723309,1.0,0.0,0.0,0.0,1.0,0.0,0.0,0.0,1.0,-1.32638771973,-1.27850368652,-10.0077629395,1.0,0.0,0.0,0.0,1.0,0.0,0.0,0.0,1.0
1463745192605530044,659,1463745192602856461,,9.67589092255,-4.89684391022,67.3168029785,0.00999899953604,1.0,0.0,0.0,0.0,1.0,0.0,0.0,0.0,1.0,1.09756100178,0.365853667259,0.853658556938,1.0,0.0,0.0,0.0,1.0,0.0,0.0,0.0,1.0,-1.28329208984,-1.16837033709,-10.046070166,1.0,0.0,0.0,0.0,1.0,0.0,0.0,0.0,1.0
1463745192615781411,660,1463745192613398920,,9.64789104462,-4.89888238907,67.3385848999,0.0100779999048,1.0,0.0,0.0,0.0,1.0,0.0,0.0,0.0,1.0,0.548780500889,0.12195122242,1.40243899822,1.0,0.0,0.0,0.0,1.0,0.0,0.0,0.0,1.0,-1.21625444336,-1.16837033709,-9.95030209961,1.0,0.0,0.0,0.0,1.0,0.0,0.0,0.0,1.0
1463745192625878403,661,1463745192623296017,,9.6160774231,-4.88621902466,67.369392395,0.0100060002878,1.0,0.0,0.0,0.0,1.0,0.0,0.0,0.0,1.0,0.0,1.03658533096,2.19512200356,1.0,0.0,0.0,0.0,1.0,0.0,0.0,0.0,1.0,-1.11090957031,-1.22583125,-10.1226846191,1.0,0.0,0.0,0.0,1.0,0.0,0.0,0.0,1.0
1463745192636187894,662,1463745192633101396,,9.58200454712,-4.86551237106,67.3987121582,0.00997699983418,1.0,0.0,0.0,0.0,1.0,0.0,0.0,0.0,1.0,-0.670731723309,0.792682945728,2.13414645195,1.0,0.0,0.0,0.0,1.0,0.0,0.0,0.0,1.0,-0.92416184082,-1.30244570312,-10.1562034424,1.0,0.0,0.0,0.0,1.0,0.0,0.0,0.0,1.0
1463745192645834107,663,1463745192642893806,,9.53906822205,-4.8383564949,67.4314956665,0.0099419998005,1.0,0.0,0.0,0.0,1.0,0.0,0.0,0.0,1.0,-1.09756100178,0.914634168148,2.43902444839,1.0,0.0,0.0,0.0,1.0,0.0,0.0,0.0,1.0,-0.814028564453,-1.21625444336,-10.1705686523,1.0,0.0,0.0,0.0,1.0,0.0,0.0,0.0,1.0
1463745192655792818,664,1463745192653381265,,9.49581336975,-4.81340503693,67.4649200439,0.0100750001147,1.0,0.0,0.0,0.0,1.0,0.0,0.0,0.0,1.0,-1.15853655338,1.09756100178,2.43902444839,1.0,0.0,0.0,0.0,1.0,0.0,0.0,0.0,1.0,-0.876277807617,-1.20667770978,-10.0269165527,1.0,0.0,0.0,0.0,1.0,0.0,0.0,0.0,1.0
1463745192665693665,665,1463745192663407997,,9.46603870392,-4.78336334229,67.4904937744,0.0100170001388,1.0,0.0,0.0,0.0,1.0,0.0,0.0,0.0,1.0,-0.548780500889,1.2195122242,1.70731711388,1.0,0.0,0.0,0.0,1.0,0.0,0.0,0.0,1.0,-0.823605371094,-1.31681091309,-10.0317049561,1.0,0.0,0.0,0.0,1.0,0.0,0.0,0.0,1.0
1463745192675939563,666,1463745192673030772,,9.42757701874,-4.75271320343,67.5169448853,0.00994000025094,1.0,0.0,0.0,0.0,1.0,0.0,0.0,0.0,1.0,-0.487804889679,1.76829278469,1.64634156227,1.0,0.0,0.0,0.0,1.0,0.0,0.0,0.0,1.0,-0.900219824219,-1.13963999023,-10.0364933594,1.0,0.0,0.0,0.0,1.0,0.0,0.0,0.0,1.0
1463745192685737337,667,1463745192683297607,,9.38238620758,-4.72401571274,67.5524978638,0.0100520001724,1.0,0.0,0.0,0.0,1.0,0.0,0.0,0.0,1.0,-1.15853655338,1.64634156227,2.56097555161,1.0,0.0,0.0,0.0,1.0,0.0,0.0,0.0,1.0,-0.895431420898,-1.16358193377,-10.1226846191,1.0,0.0,0.0,0.0,1.0,0.0,0.0,0.0,1.0
1463745192696129120,668,1463745192693107205,,9.32995223999,-4.70041847229,67.5977630615,0.0100010000169,1.0,0.0,0.0,0.0,1.0,0.0,0.0,0.0,1.0,-1.8292683363,1.46341466904,3.59756112099,1.0,0.0,0.0,0.0,1.0,0.0,0.0,0.0,1.0,-0.9193734375,-1.15879360352,-10.1466266357,1.0,0.0,0.0,0.0,1.0,0.0,0.0,0.0,1.0
1463745192705560073,669,1463745192703200915,,9.26758098602,-4.66834163666,67.6489257812,0.00999299995601,1.0,0.0,0.0,0.0,1.0,0.0,0.0,0.0,1.0,-2.37804889679,1.95121955872,4.08536577225,1.0,0.0,0.0,0.0,1.0,0.0,0.0,0.0,1.0,-0.823605371094,-1.06302561017,-10.0269165527,1.0,0.0,0.0,0.0,1.0,0.0,0.0,0.0,1.0
1463745192715696231,670,1463745192713028117,,9.20513820648,-4.62250471115,67.7001190186,0.00993700046092,1.0,0.0,0.0,0.0,1.0,0.0,0.0,0.0,1.0,-2.43902444839,1.8292683363,4.14634132385,1.0,0.0,0.0,0.0,1.0,0.0,0.0,0.0,1.0,-0.545877978516,-1.05823706072,-10.046070166,1.0,0.0,0.0,0.0,1.0,0.0,0.0,0.0,1.0
1463745192725832755,671,1463745192723218702,,9.14232349396,-4.57815504074,67.7555999756,0.0100619997829,1.0,0.0,0.0,0.0,1.0,0.0,0.0,0.0,1.0,-2.31707310677,1.8292683363,4.51219558716,1.0,0.0,0.0,0.0,1.0,0.0,0.0,0.0,1.0,-0.555454785156,-1.01992990723,-9.88326445312,1.0,0.0,0.0,0.0,1.0,0.0,0.0,0.0,1.0
1463745192735912090,672,1463745192733258611,,9.07760906219,-4.55272054672,67.8129577637,0.0100570004433,1.0,0.0,0.0,0.0,1.0,0.0,0.0,0.0,1.0,-2.62195134163,1.58536589146,4.75609779358,1.0,0.0,0.0,0.0,1.0,0.0,0.0,0.0,1.0,-0.837970581055,-1.03908344744,-9.96945571289,1.0,0.0,0.0,0.0,1.0,0.0,0.0,0.0,1.0
1463745192746115020,673,1463745192743251437,,9.01613044739,-4.51745605469,67.867225647,0.00986200012267,1.0,0.0,0.0,0.0,1.0,0.0,0.0,0.0,1.0,-2.19512200356,1.76829278469,4.51219558716,1.0,0.0,0.0,0.0,1.0,0.0,0.0,0.0,1.0,-0.684741674805,-0.981622680664,-9.94072529297,1.0,0.0,0.0,0.0,1.0,0.0,0.0,0.0,1.0
1463745192755500764,674,1463745192753219784,,8.9629611969,-4.4803481102,67.9182357788,0.0100790001452,1.0,0.0,0.0,0.0,1.0,0.0,0.0,0.0,1.0,-1.70731711388,1.52439022064,4.14634132385,1.0,0.0,0.0,0.0,1.0,0.0,0.0,0.0,1.0,-0.632069238281,-1.0534486574,-9.98860932617,1.0,0.0,0.0,0.0,1.0,0.0,0.0,0.0,1.0
1463745192766161817,675,1463745192762984902,,8.91495037079,-4.45071983337,67.9641876221,0.0099849998951,1.0,0.0,0.0,0.0,1.0,0.0,0.0,0.0,1.0,-0.914634168148,1.52439022064,3.65853667259,1.0,0.0,0.0,0.0,1.0,0.0,0.0,0.0,1.0,-0.76135612793,-0.972045874023,-9.92636008301,1.0,0.0,0.0,0.0,1.0,0.0,0.0,0.0,1.0
1463745192776080580,676,1463745192773374185,,8.8750667572,-4.42040252686,68.0067138672,0.0100250001997,1.0,0.0,0.0,0.0,1.0,0.0,0.0,0.0,1.0,-0.304878056049,1.2804877758,3.35365867615,1.0,0.0,0.0,0.0,1.0,0.0,0.0,0.0,1.0,-0.718260498047,-1.00556469727,-10.0029745361,1.0,0.0,0.0,0.0,1.0,0.0,0.0,0.0,1.0
1463745192785647731,677,1463745192783298209,,8.83432674408,-4.38524436951,68.0490570068,0.0099950004369,1.0,0.0,0.0,0.0,1.0,0.0,0.0,0.0,1.0,-0.426829278469,1.2804877758,3.35365867615,1.0,0.0,0.0,0.0,1.0,0.0,0.0,0.0,1.0,-0.627280834961,-1.00556469727,-10.0317049561,1.0,0.0,0.0,0.0,1.0,0.0,0.0,0.0,1.0
1463745192796052430,678,1463745192793101139,,8.80140304565,-4.35268259048,68.0912017822,0.0101190004498,1.0,0.0,0.0,0.0,1.0,0.0,0.0,0.0,1.0,-0.243902444839,1.15853655338,3.35365867615,1.0,0.0,0.0,0.0,1.0,0.0,0.0,0.0,1.0,-0.651222851562,-1.10612116699,-9.97903251953,1.0,0.0,0.0,0.0,1.0,0.0,0.0,0.0,1.0
1463745192805416508,679,1463745192803213652,,8.77348613739,-4.32142114639,68.1182861328,0.0098729999736,1.0,0.0,0.0,0.0,1.0,0.0,0.0,0.0,1.0,0.731707334518,1.03658533096,1.8902438879,1.0,0.0,0.0,0.0,1.0,0.0,0.0,0.0,1.0,-0.684741674805,-1.00077629395,-10.165780249,1.0,0.0,0.0,0.0,1.0,0.0,0.0,0.0,1.0
1463745192815902457,680,1463745192812969604,,8.75889778137,-4.28567218781,68.1352539062,0.0099240001291,1.0,0.0,0.0,0.0,1.0,0.0,0.0,0.0,1.0,1.95121955872,0.670731723309,0.914634168148,1.0,0.0,0.0,0.0,1.0,0.0,0.0,0.0,1.0,-0.550666381836,-0.986411083984,-9.95987890625,1.0,0.0,0.0,0.0,1.0,0.0,0.0,0.0,1.0
1463745192827362204,681,1463745192825367368,,8.76019763947,-4.25081729889,68.1385879517,0.0124340001494,1.0,0.0,0.0,0.0,1.0,0.0,0.0,0.0,1.0,3.23170733452,0.0609756112099,-0.426829278469,1.0,0.0,0.0,0.0,1.0,0.0,0.0,0.0,1.0,-0.61770402832,-1.01992990723,-9.98860932617,1.0,0.0,0.0,0.0,1.0,0.0,0.0,0.0,1.0
1463745192834831446,682,1463745192832834735,,8.77119445801,-4.23432159424,68.1350326538,0.00757399993017,1.0,0.0,0.0,0.0,1.0,0.0,0.0,0.0,1.0,3.96341490746,-0.12195122242,-1.09756100178,1.0,0.0,0.0,0.0,1.0,0.0,0.0,0.0,1.0,-0.703895288086,-1.11090957031,-9.90241806641,1.0,0.0,0.0,0.0,1.0,0.0,0.0,0.0,1.0
1463745192844719533,683,1463745192842860634,,8.78945446014,-4.21219825745,68.1253814697,0.00999800022691,1.0,0.0,0.0,0.0,1.0,0.0,0.0,0.0,1.0,4.02439022064,-0.0609756112099,-1.58536589146,1.0,0.0,0.0,0.0,1.0,0.0,0.0,0.0,1.0,-0.723048901367,-1.16837033709,-9.95509050293,1.0,0.0,0.0,0.0,1.0,0.0,0.0,0.0,1.0
1463745192854585901,684,1463745192852990542,,8.79938411713,-4.18944358826,68.1190872192,0.0100060002878,1.0,0.0,0.0,0.0,1.0,0.0,0.0,0.0,1.0,4.2682929039,-0.365853667259,-1.2804877758,1.0,0.0,0.0,0.0,1.0,0.0,0.0,0.0,1.0,-0.646434448242,-0.986411083984,-9.98382092285,1.0,0.0,0.0,0.0,1.0,0.0,0.0,0.0,1.0
1463745192865388880,685,1463745192862859202,,8.81352710724,-4.17270898819,68.1178283691,0.00999299995601,1.0,0.0,0.0,0.0,1.0,0.0,0.0,0.0,1.0,4.20731735229,-0.365853667259,-0.731707334518,1.0,0.0,0.0,0.0,1.0,0.0,0.0,0.0,1.0,-0.742202514648,-1.09175595703,-10.0795889893,1.0,0.0,0.0,0.0,1.0,0.0,0.0,0.0,1.0
1463745192875328997,686,1463745192872851976,,8.8179063797,-4.16173171997,68.1182785034,0.0100029995665,1.0,0.0,0.0,0.0,1.0,0.0,0.0,0.0,1.0,3.35365867615,-0.487804889679,-0.548780500889,1.0,0.0,0.0,0.0,1.0,0.0,0.0,0.0,1.0,-0.818816967773,-1.07739082014,-10.1131078125,1.0,0.0,0.0,0.0,1.0,0.0,0.0,0.0,1.0
1463745192885405156,687,1463745192882872822,,8.82112789154,-4.13898849487,68.1151885986,0.0100020002574,1.0,0.0,0.0,0.0,1.0,0.0,0.0,0.0,1.0,3.71951246262,0.12195122242,-1.03658533096,1.0,0.0,0.0,0.0,1.0,0.0,0.0,0.0,1.0,-0.732625708008,-0.995987890625,-10.2088758789,1.0,0.0,0.0,0.0,1.0,0.0,0.0,0.0,1.0
1463745192895720949,688,1463745192893136480,,8.84611129761,-4.1053981781,68.0991592407,0.00999800022691,1.0,0.0,0.0,0.0,1.0,0.0,0.0,0.0,1.0,4.51219558716,0.18292683363,-2.25609779358,1.0,0.0,0.0,0.0,1.0,0.0,0.0,0.0,1.0,-0.579396801758,-1.23540805664,-10.2232410889,1.0,0.0,0.0,0.0,1.0,0.0,0.0,0.0,1.0
1463745192905042580,689,1463745192902927380,,8.87291717529,-4.06605052948,68.0743103027,0.0100079998374,1.0,0.0,0.0,0.0,1.0,0.0,0.0,0.0,1.0,4.75609779358,0.304878056049,-3.17073178291,1.0,0.0,0.0,0.0,1.0,0.0,0.0,0.0,1.0,-0.512359155273,-1.20667770978,-10.1370498291,1.0,0.0,0.0,0.0,1.0,0.0,0.0,0.0,1.0
1463745192915409154,690,1463745192912893435,,8.90664291382,-4.01300191879,68.0525054932,0.0099950004369,1.0,0.0,0.0,0.0,1.0,0.0,0.0,0.0,1.0,5.24390268326,0.792682945728,-2.92682933807,1.0,0.0,0.0,0.0,1.0,0.0,0.0,0.0,1.0,-0.335188232422,-1.24498486328,-10.0652237793,1.0,0.0,0.0,0.0,1.0,0.0,0.0,0.0,1.0
1463745192925208439,691,1463745192922819959,,8.93257808685,-3.97080564499,68.0346832275,0.00999899953604,1.0,0.0,0.0,0.0,1.0,0.0,0.0,0.0,1.0,4.69512224197,0.548780500889,-2.5,1.0,0.0,0.0,0.0,1.0,0.0,0.0,0.0,1.0,-0.46447512207,-1.21146604004,-10.0412817627,1.0,0.0,0.0,0.0,1.0,0.0,0.0,0.0,1.0
1463745192935725325,692,1463745192933170440,,8.94302940369,-3.93413424492,68.0208740234,0.00999599974602,1.0,0.0,0.0,0.0,1.0,0.0,0.0,0.0,1.0,3.71951246262,0.548780500889,-2.13414645195,1.0,0.0,0.0,0.0,1.0,0.0,0.0,0.0,1.0,-0.550666381836,-1.13006318359,-10.1514150391,1.0,0.0,0.0,0.0,1.0,0.0,0.0,0.0,1.0
1463745192945454454,693,1463745192942918162,,8.93877124786,-3.89358663559,68.0190811157,0.00999800022691,1.0,0.0,0.0,0.0,1.0,0.0,0.0,0.0,1.0,3.35365867615,1.2195122242,-1.09756100178,1.0,0.0,0.0,0.0,1.0,0.0,0.0,0.0,1.0,-0.569819995117,-0.957680664062,-10.2759135254,1.0,0.0,0.0,0.0,1.0,0.0,0.0,0.0,1.0
1463745192955387228,694,1463745192952929009,,8.9285697937,-3.85546946526,68.0251464844,0.00999699998647,1.0,0.0,0.0,0.0,1.0,0.0,0.0,0.0,1.0,3.17073178291,1.46341466904,-0.365853667259,1.0,0.0,0.0,0.0,1.0,0.0,0.0,0.0,1.0,-0.622492431641,-0.881066210937,-10.165780249,1.0,0.0,0.0,0.0,1.0,0.0,0.0,0.0,1.0
1463745192965385731,695,1463745192962915897,,8.90933036804,-3.83426189423,68.0391921997,0.0100079998374,1.0,0.0,0.0,0.0,1.0,0.0,0.0,0.0,1.0,2.80487799644,1.34146344662,0.426829278469,1.0,0.0,0.0,0.0,1.0,0.0,0.0,0.0,1.0,-0.866701000977,-0.780509741211,-10.046070166,1.0,0.0,0.0,0.0,1.0,0.0,0.0,0.0,1.0
1463745192975490275,696,1463745192972928619,,8.90801525116,-3.8000562191,68.0484619141,0.00999999977648,1.0,0.0,0.0,0.0,1.0,0.0,0.0,0.0,1.0,3.7804877758,2.13414645195,-0.12195122242,1.0,0.0,0.0,0.0,1.0,0.0,0.0,0.0,1.0,-0.799663354492,-0.933738647461,-10.2088758789,1.0,0.0,0.0,0.0,1.0,0.0,0.0,0.0,1.0
1463745192985799402,697,1463745192983150141,,8.92753791809,-3.7676756382,68.0472717285,0.00999599974602,1.0,0.0,0.0,0.0,1.0,0.0,0.0,0.0,1.0,5.36585378647,1.8292683363,-1.09756100178,1.0,0.0,0.0,0.0,1.0,0.0,0.0,0.0,1.0,-0.794874951172,-1.00556469727,-10.1418382324,1.0,0.0,0.0,0.0,1.0,0.0,0.0,0.0,1.0
1463745192995642072,698,1463745192993103488,,8.96717453003,-3.73955154419,68.0335006714,0.010006999597,1.0,0.0,0.0,0.0,1.0,0.0,0.0,0.0,1.0,6.70731735229,1.76829278469,-2.31707310677,1.0,0.0,0.0,0.0,1.0,0.0,0.0,0.0,1.0,-0.861912597656,-1.07739082014,-9.80186159668,1.0,0.0,0.0,0.0,1.0,0.0,0.0,0.0,1.0
1463745193005381513,699,1463745193002847982,,9.0158367157,-3.71946668625,68.0145111084,0.0099950004369,1.0,0.0,0.0,0.0,1.0,0.0,0.0,0.0,1.0,6.70731735229,1.09756100178,-2.68292689323,1.0,0.0,0.0,0.0,1.0,0.0,0.0,0.0,1.0,-0.905008227539,-1.25456166992,-9.92636008301,1.0,0.0,0.0,0.0,1.0,0.0,0.0,0.0,1.0
1463745193015227361,700,1463745193012983203,,9.0659828186,-3.70031142235,67.9945755005,0.0100039998069,1.0,0.0,0.0,0.0,1.0,0.0,0.0,0.0,1.0,6.64634132385,1.34146344662,-2.80487799644,1.0,0.0,0.0,0.0,1.0,0.0,0.0,0.0,1.0,-0.957680664062,-1.28808049316,-9.84495722656,1.0,0.0,0.0,0.0,1.0,0.0,0.0,0.0,1.0
1463745193025528050,701,1463745193022858894,,9.10538864136,-3.69027972221,67.9785995483,0.00999400019646,1.0,0.0,0.0,0.0,1.0,0.0,0.0,0.0,1.0,5.85365867615,0.670731723309,-2.31707310677,1.0,0.0,0.0,0.0,1.0,0.0,0.0,0.0,1.0,-0.986411083984,-1.25456166992,-9.86411083984,1.0,0.0,0.0,0.0,1.0,0.0,0.0,0.0,1.0
1463745193035858739,702,1463745193033287238,,9.13694286346,-3.69297385216,67.9703140259,0.0100100003183,1.0,0.0,0.0,0.0,1.0,0.0,0.0,0.0,1.0,5.12195110321,0.18292683363,-1.46341466904,1.0,0.0,0.0,0.0,1.0,0.0,0.0,0.0,1.0,-1.10133276367,-1.25935007324,-9.86411083984,1.0,0.0,0.0,0.0,1.0,0.0,0.0,0.0,1.0
1463745193045576201,703,1463745193042859441,,9.16764736176,-3.70198845863,67.9615020752,0.00998700037599,1.0,0.0,0.0,0.0,1.0,0.0,0.0,0.0,1.0,4.63414621353,0.0,-1.46341466904,1.0,0.0,0.0,0.0,1.0,0.0,0.0,0.0,1.0,-1.18273554705,-1.33596452637,-9.8545340332,1.0,0.0,0.0,0.0,1.0,0.0,0.0,0.0,1.0
1463745193055388507,704,1463745193052986433,,9.19897079468,-3.70068073273,67.9485321045,0.0100010000169,1.0,0.0,0.0,0.0,1.0,0.0,0.0,0.0,1.0,4.63414621353,0.0609756112099,-1.8902438879,1.0,0.0,0.0,0.0,1.0,0.0,0.0,0.0,1.0,-1.04387185076,-1.37427175293,-10.0508585693,1.0,0.0,0.0,0.0,1.0,0.0,0.0,0.0,1.0
1463745193065366437,705,1463745193063003738,,9.22169494629,-3.69858670235,67.943107605,0.0100050000474,1.0,0.0,0.0,0.0,1.0,0.0,0.0,0.0,1.0,3.90243911743,-0.18292683363,-1.09756100178,1.0,0.0,0.0,0.0,1.0,0.0,0.0,0.0,1.0,-0.962469067383,-1.36469494629,-10.046070166,1.0,0.0,0.0,0.0,1.0,0.0,0.0,0.0,1.0
1463745193075576814,706,1463745193072834220,,9.23450088501,-3.68962049484,67.9483032227,0.00999199971557,1.0,0.0,0.0,0.0,1.0,0.0,0.0,0.0,1.0,3.10975623131,0.0,-0.0609756112099,1.0,0.0,0.0,0.0,1.0,0.0,0.0,0.0,1.0,-0.828393774414,-1.32638771973,-9.90241806641,1.0,0.0,0.0,0.0,1.0,0.0,0.0,0.0,1.0
1463745193085762087,707,1463745193083196628,,9.22834205627,-3.67695760727,67.9640426636,0.0100020002574,1.0,0.0,0.0,0.0,1.0,0.0,0.0,0.0,1.0,1.34146344662,-0.243902444839,1.03658533096,1.0,0.0,0.0,0.0,1.0,0.0,0.0,0.0,1.0,-0.694318481445,-1.33117612305,-10.0029745361,1.0,0.0,0.0,0.0,1.0,0.0,0.0,0.0,1.0
1463745193096238400,708,1463745193093651379,,9.20151233673,-3.66791892052,67.9842071533,0.010006999597,1.0,0.0,0.0,0.0,1.0,0.0,0.0,0.0,1.0,0.548780500889,-0.609756112099,1.46341466904,1.0,0.0,0.0,0.0,1.0,0.0,0.0,0.0,1.0,-0.689530078125,-1.12527478027,-10.1753570557,1.0,0.0,0.0,0.0,1.0,0.0,0.0,0.0,1.0
1463745193104995189,709,1463745193102925458,,9.17247009277,-3.65614414215,68.0034561157,0.00999800022691,1.0,0.0,0.0,0.0,1.0,0.0,0.0,0.0,1.0,1.40243899822,-0.487804889679,1.2804877758,1.0,0.0,0.0,0.0,1.0,0.0,0.0,0.0,1.0,-0.660799658203,-0.9193734375,-10.1370498291,1.0,0.0,0.0,0.0,1.0,0.0,0.0,0.0,1.0
1463745193114930359,710,1463745193112837607,,9.16844940186,-3.64507365227,68.0136032104,0.00999999977648,1.0,0.0,0.0,0.0,1.0,0.0,0.0,0.0,1.0,3.04878044128,-0.18292683363,0.365853667259,1.0,0.0,0.0,0.0,1.0,0.0,0.0,0.0,1.0,-0.756567724609,-1.06302561017,-10.1753570557,1.0,0.0,0.0,0.0,1.0,0.0,0.0,0.0,1.0
1463745193125741515,711,1463745193122812776,,9.17037582397,-3.62942457199,68.0182189941,0.00999800022691,1.0,0.0,0.0,0.0,1.0,0.0,0.0,0.0,1.0,3.47560977936,-0.18292683363,-0.18292683363,1.0,0.0,0.0,0.0,1.0,0.0,0.0,0.0,1.0,-0.684741674805,-1.08217922346,-10.1322614258,1.0,0.0,0.0,0.0,1.0,0.0,0.0,0.0,1.0
1463745193135845903,712,1463745193133311121,,9.17272853851,-3.61818742752,68.0175170898,0.0100039998069,1.0,0.0,0.0,0.0,1.0,0.0,0.0,0.0,1.0,3.35365867615,-0.426829278469,-0.670731723309,1.0,0.0,0.0,0.0,1.0,0.0,0.0,0.0,1.0,-0.732625708008,-1.10612116699,-10.1322614258,1.0,0.0,0.0,0.0,1.0,0.0,0.0,0.0,1.0
1463745193145702948,713,1463745193143226135,,9.18844985962,-3.61086797714,68.0160140991,0.0099950004369,1.0,0.0,0.0,0.0,1.0,0.0,0.0,0.0,1.0,3.90243911743,-0.243902444839,-0.731707334518,1.0,0.0,0.0,0.0,1.0,0.0,0.0,0.0,1.0,-0.828393774414,-1.23540805664,-10.0221281494,1.0,0.0,0.0,0.0,1.0,0.0,0.0,0.0,1.0
1463745193155492285,714,1463745193153134638,,9.21875762939,-3.59595155716,68.002243042,0.0100039998069,1.0,0.0,0.0,0.0,1.0,0.0,0.0,0.0,1.0,4.57317066193,0.304878056049,-2.01219511032,1.0,0.0,0.0,0.0,1.0,0.0,0.0,0.0,1.0,-0.814028564453,-1.34554133301,-9.86889924316,1.0,0.0,0.0,0.0,1.0,0.0,0.0,0.0,1.0
1463745193165024071,715,1463745193162977360,,9.2582025528,-3.57703995705,67.9761047363,0.0099950004369,1.0,0.0,0.0,0.0,1.0,0.0,0.0,0.0,1.0,5.54878091812,0.426829278469,-3.29268312454,1.0,0.0,0.0,0.0,1.0,0.0,0.0,0.0,1.0,-0.809240161133,-1.34554133301,-10.0077629395,1.0,0.0,0.0,0.0,1.0,0.0,0.0,0.0,1.0
1463745193175760748,716,1463745193173032529,,9.29968070984,-3.55153155327,67.9410476685,0.0100170001388,1.0,0.0,0.0,0.0,1.0,0.0,0.0,0.0,1.0,6.28048801422,0.304878056049,-4.20731735229,1.0,0.0,0.0,0.0,1.0,0.0,0.0,0.0,1.0,-0.689530078125,-1.24019645996,-9.95987890625,1.0,0.0,0.0,0.0,1.0,0.0,0.0,0.0,1.0
1463745193185670709,717,1463745193183149521,,9.33253002167,-3.53658461571,67.9049453735,0.0099849998951,1.0,0.0,0.0,0.0,1.0,0.0,0.0,0.0,1.0,6.28048801422,-0.365853667259,-4.2682929039,1.0,0.0,0.0,0.0,1.0,0.0,0.0,0.0,1.0,-0.76614453125,-1.11090957031,-10.1131078125,1.0,0.0,0.0,0.0,1.0,0.0,0.0,0.0,1.0
1463745193196057805,718,1463745193193421200,,9.36915683746,-3.53187179565,67.8643951416,0.0100039998069,1.0,0.0,0.0,0.0,1.0,0.0,0.0,0.0,1.0,6.21951246262,-0.304878056049,-4.69512224197,1.0,0.0,0.0,0.0,1.0,0.0,0.0,0.0,1.0,-0.972045874023,-1.1875240965,-10.0939541992,1.0,0.0,0.0,0.0,1.0,0.0,0.0,0.0,1.0
1463745193205384643,719,1463745193202815226,,9.40374183655,-3.51573824883,67.811706543,0.00999999977648,1.0,0.0,0.0,0.0,1.0,0.0,0.0,0.0,1.0,6.58536624908,0.12195122242,-6.0365858078,1.0,0.0,0.0,0.0,1.0,0.0,0.0,0.0,1.0,-0.890643017578,-1.09175595703,-10.2232410889,1.0,0.0,0.0,0.0,1.0,0.0,0.0,0.0,1.0
1463745193215592937,720,1463745193213119822,,9.45571708679,-3.50520300865,67.7503738403,0.00999899953604,1.0,0.0,0.0,0.0,1.0,0.0,0.0,0.0,1.0,8.59756088257,-0.487804889679,-6.82926845551,1.0,0.0,0.0,0.0,1.0,0.0,0.0,0.0,1.0,-0.900219824219,-1.03429511719,-10.180145459,1.0,0.0,0.0,0.0,1.0,0.0,0.0,0.0,1.0
1463745193225460451,721,1463745193222883221,,9.53677845001,-3.49356293678,67.6711120605,0.0100010000169,1.0,0.0,0.0,0.0,1.0,0.0,0.0,0.0,1.0,10.4878053665,-0.0609756112099,-8.65853691101,1.0,0.0,0.0,0.0,1.0,0.0,0.0,0.0,1.0,-1.01514150391,-1.21146604004,-10.1945106689,1.0,0.0,0.0,0.0,1.0,0.0,0.0,0.0,1.0
1463745193235758328,722,1463745193233133129,,9.6388425827,-3.46767187119,67.5763397217,0.0100010000169,1.0,0.0,0.0,0.0,1.0,0.0,0.0,0.0,1.0,11.8902444839,0.243902444839,-10.2439022064,1.0,0.0,0.0,0.0,1.0,0.0,0.0,0.0,1.0,-0.852335791016,-1.32638771973,-10.1035310059,1.0,0.0,0.0,0.0,1.0,0.0,0.0,0.0,1.0
1463745193245625112,723,1463745193243070591,,9.73996448517,-3.43546772003,67.4867553711,0.00999299995601,1.0,0.0,0.0,0.0,1.0,0.0,0.0,0.0,1.0,11.7073173523,0.426829278469,-9.75609779358,1.0,0.0,0.0,0.0,1.0,0.0,0.0,0.0,1.0,-0.751779321289,-1.36469494629,-10.0700121826,1.0,0.0,0.0,0.0,1.0,0.0,0.0,0.0,1.0
1463745193255558251,724,1463745193253248989,,9.83106422424,-3.40387678146,67.4055328369,0.0100109996274,1.0,0.0,0.0,0.0,1.0,0.0,0.0,0.0,1.0,10.6097564697,0.12195122242,-8.84146404266,1.0,0.0,0.0,0.0,1.0,0.0,0.0,0.0,1.0,-0.665588061523,-1.37906015625,-9.86889924316,1.0,0.0,0.0,0.0,1.0,0.0,0.0,0.0,1.0
1463745193265635087,725,1463745193263164263,,9.91348361969,-3.37319421768,67.3353118896,0.00999100040644,1.0,0.0,0.0,0.0,1.0,0.0,0.0,0.0,1.0,9.14634132385,0.0,-7.68292665482,1.0,0.0,0.0,0.0,1.0,0.0,0.0,0.0,1.0,-0.612915625,-1.49398183594,-9.72045874023,1.0,0.0,0.0,0.0,1.0,0.0,0.0,0.0,1.0
1463745193275333278,726,1463745193272875788,,9.97016525269,-3.34599518776,67.2738494873,0.0100130001083,1.0,0.0,0.0,0.0,1.0,0.0,0.0,0.0,1.0,7.98780536652,-0.243902444839,-6.82926845551,1.0,0.0,0.0,0.0,1.0,0.0,0.0,0.0,1.0,-0.61770402832,-1.30244570312,-9.99339772949,1.0,0.0,0.0,0.0,1.0,0.0,0.0,0.0,1.0
1463745193286435475,727,1463745193283856839,,10.0503015518,-3.35073757172,67.2192611694,0.00999100040644,1.0,0.0,0.0,0.0,1.0,0.0,0.0,0.0,1.0,8.84146404266,-1.70731711388,-5.79268312454,1.0,0.0,0.0,0.0,1.0,0.0,0.0,0.0,1.0,-0.9193734375,-1.62805712891,-10.2184526855,1.0,0.0,0.0,0.0,1.0,0.0,0.0,0.0,1.0
1463745193296910955,728,1463745193294053987,,10.1249856949,-3.37019705772,67.1659927368,0.0100020002574,1.0,0.0,0.0,0.0,1.0,0.0,0.0,0.0,1.0,7.19512224197,-0.914634168148,-5.73170757294,1.0,0.0,0.0,0.0,1.0,0.0,0.0,0.0,1.0,-1.31681091309,-1.8148048584,-10.0364933594,1.0,0.0,0.0,0.0,1.0,0.0,0.0,0.0,1.0
1463745193305825243,729,1463745193303690720,,10.1446151733,-3.37314844131,67.1173858643,0.0100010000169,1.0,0.0,0.0,0.0,1.0,0.0,0.0,0.0,1.0,4.93902444839,0.609756112099,-5.73170757294,1.0,0.0,0.0,0.0,1.0,0.0,0.0,0.0,1.0,-1.25456166992,-1.21146604004,-9.82101520996,1.0,0.0,0.0,0.0,1.0,0.0,0.0,0.0,1.0
1463745193315860204,730,1463745193313648181,,10.191649437,-3.3464448452,67.0756759644,0.00999400019646,1.0,0.0,0.0,0.0,1.0,0.0,0.0,0.0,1.0,5.18292713165,0.914634168148,-4.93902444839,1.0,0.0,0.0,0.0,1.0,0.0,0.0,0.0,1.0,-0.790086547852,-1.72382519531,-10.1370498291,1.0,0.0,0.0,0.0,1.0,0.0,0.0,0.0,1.0
1463745193326004956,731,1463745193323753923,,10.1982488632,-3.40420484543,67.0463943481,0.0100020002574,1.0,0.0,0.0,0.0,1.0,0.0,0.0,0.0,1.0,0.426829278469,-1.64634156227,-3.17073178291,1.0,0.0,0.0,0.0,1.0,0.0,0.0,0.0,1.0,-1.62326872559,-1.66636435547,-8.99740983887,1.0,0.0,0.0,0.0,1.0,0.0,0.0,0.0,1.0
1463745193336319500,732,1463745193333735812,,10.1267213821,-3.461840868,67.0518875122,0.00999699998647,1.0,0.0,0.0,0.0,1.0,0.0,0.0,0.0,1.0,-1.03658533096,-2.80487799644,0.18292683363,1.0,0.0,0.0,0.0,1.0,0.0,0.0,0.0,1.0,-1.46525141602,-0.732625708008,-9.98382092285,1.0,0.0,0.0,0.0,1.0,0.0,0.0,0.0,1.0
1463745193346571179,733,1463745193343884210,,10.1284246445,-3.44873476028,67.0979919434,0.0100060002878,1.0,0.0,0.0,0.0,1.0,0.0,0.0,0.0,1.0,1.2195122242,0.18292683363,4.08536577225,1.0,0.0,0.0,0.0,1.0,0.0,0.0,0.0,1.0,-0.632069238281,-1.70945998535,-10.1274730225,1.0,0.0,0.0,0.0,1.0,0.0,0.0,0.0,1.0
1463745193356011975,734,1463745193353775213,,10.1023435593,-3.4706132412,67.1454315186,0.0100039998069,1.0,0.0,0.0,0.0,1.0,0.0,0.0,0.0,1.0,-1.76829278469,-2.74390244484,4.75609779358,1.0,0.0,0.0,0.0,1.0,0.0,0.0,0.0,1.0,-0.708683691406,-1.71903679199,-9.95030209961,1.0,0.0,0.0,0.0,1.0,0.0,0.0,0.0,1.0
1463745193366183238,735,1463745193363823039,,10.0283498764,-3.50028681755,67.1902770996,0.00999199971557,1.0,0.0,0.0,0.0,1.0,0.0,0.0,0.0,1.0,-4.08536577225,-2.31707310677,4.2682929039,1.0,0.0,0.0,0.0,1.0,0.0,0.0,0.0,1.0,-0.962469067383,-1.2976572998,-10.2184526855,1.0,0.0,0.0,0.0,1.0,0.0,0.0,0.0,1.0
1463745193376259345,736,1463745193373460085,,9.95746517181,-3.53898787498,67.2417449951,0.0100109996274,1.0,0.0,0.0,0.0,1.0,0.0,0.0,0.0,1.0,-3.59756112099,-3.47560977936,5.12195110321,1.0,0.0,0.0,0.0,1.0,0.0,0.0,0.0,1.0,-0.881066210937,-1.24019645996,-10.0412817627,1.0,0.0,0.0,0.0,1.0,0.0,0.0,0.0,1.0
1463745193386330399,737,1463745193383834576,,9.91296672821,-3.5597987175,67.299407959,0.00998799968511,1.0,0.0,0.0,0.0,1.0,0.0,0.0,0.0,1.0,-2.92682933807,-2.25609779358,5.67073154449,1.0,0.0,0.0,0.0,1.0,0.0,0.0,0.0,1.0,-0.780509741211,-1.60890351563,-10.1562034424,1.0,0.0,0.0,0.0,1.0,0.0,0.0,0.0,1.0
1463745193396615620,738,1463745193394040578,,9.83360385895,-3.57342982292,67.3663787842,0.0100010000169,1.0,0.0,0.0,0.0,1.0,0.0,0.0,0.0,1.0,-5.54878091812,-2.43902444839,6.58536624908,1.0,0.0,0.0,0.0,1.0,0.0,0.0,0.0,1.0,-0.584185168546,-1.43652099609,-10.0364933594,1.0,0.0,0.0,0.0,1.0,0.0,0.0,0.0,1.0
1463745193404822827,739,1463745193402809658,,9.73633575439,-3.59446811676,67.444732666,0.0100039998069,1.0,0.0,0.0,0.0,1.0,0.0,0.0,0.0,1.0,-6.28048801422,-3.23170733452,7.80487823486,1.0,0.0,0.0,0.0,1.0,0.0,0.0,0.0,1.0,-0.550666381836,-1.26413847656,-10.1945106689,1.0,0.0,0.0,0.0,1.0,0.0,0.0,0.0,1.0
1463745193415758202,740,1463745193413470867,,9.63001823425,-3.6296415329,67.5364379883,0.0100130001083,1.0,0.0,0.0,0.0,1.0,0.0,0.0,0.0,1.0,-6.09756088257,-3.29268312454,9.08536529541,1.0,0.0,0.0,0.0,1.0,0.0,0.0,0.0,1.0,-0.756567724609,-1.05823706072,-10.1370498291,1.0,0.0,0.0,0.0,1.0,0.0,0.0,0.0,1.0
1463745193425815038,741,1463745193422886872,,9.5234375,-3.65900874138,67.6243209839,0.0099849998951,1.0,0.0,0.0,0.0,1.0,0.0,0.0,0.0,1.0,-5.79268312454,-4.87804889679,8.96341514587,1.0,0.0,0.0,0.0,1.0,0.0,0.0,0.0,1.0,-0.397437475586,-1.00556469727,-10.4866032715,1.0,0.0,0.0,0.0,1.0,0.0,0.0,0.0,1.0
1463745193435069585,742,1463745193432957250,,9.58424377441,-3.77046322823,67.6900558472,0.00999999977648,1.0,0.0,0.0,0.0,1.0,0.0,0.0,0.0,1.0,1.15853655338,-8.71951198578,7.98780536652,1.0,0.0,0.0,0.0,1.0,0.0,0.0,0.0,1.0,-1.31681091309,-2.89219560547,-10.6302553711,1.0,0.0,0.0,0.0,1.0,0.0,0.0,0.0,1.0
1463745193444892151,743,1463745193442866117,,9.58529376984,-3.88215780258,67.6688537598,0.00999899953604,1.0,0.0,0.0,0.0,1.0,0.0,0.0,0.0,1.0,-0.487804889679,-11.341463089,-0.670731723309,1.0,0.0,0.0,0.0,1.0,0.0,0.0,0.0,1.0,-1.03908344744,-1.81959326172,-10.0364933594,1.0,0.0,0.0,0.0,1.0,0.0,0.0,0.0,1.0
1463745193454577999,744,1463745193452944464,,9.56187343597,-4.00909614563,67.598991394,0.0100100003183,1.0,0.0,0.0,0.0,1.0,0.0,0.0,0.0,1.0,0.609756112099,-10.6097564697,-5.97560977936,1.0,0.0,0.0,0.0,1.0,0.0,0.0,0.0,1.0,-1.5083470459,-1.03429511719,-9.37569311665,1.0,0.0,0.0,0.0,1.0,0.0,0.0,0.0,1.0
1463745193464680460,745,1463745193463113487,,9.53280448914,-4.09239721298,67.590637207,0.00998300034553,1.0,0.0,0.0,0.0,1.0,0.0,0.0,0.0,1.0,-0.609756112099,-9.20731735229,0.0609756112099,1.0,0.0,0.0,0.0,1.0,0.0,0.0,0.0,1.0,-0.881066210937,-1.24498486328,-9.60074924175,1.0,0.0,0.0,0.0,1.0,0.0,0.0,0.0,1.0
1463745193474799743,746,1463745193472946365,,9.47221851349,-4.15956735611,67.6050720215,0.0100220004097,1.0,0.0,0.0,0.0,1.0,0.0,0.0,0.0,1.0,-4.93902444839,-7.68292665482,2.19512200356,1.0,0.0,0.0,0.0,1.0,0.0,0.0,0.0,1.0,-0.828393774414,-1.50355864258,-9.77791958008,1.0,0.0,0.0,0.0,1.0,0.0,0.0,0.0,1.0
1463745193484856267,747,1463745193482951430,,9.38019561768,-4.20728874207,67.6206207275,0.0099849998951,1.0,0.0,0.0,0.0,1.0,0.0,0.0,0.0,1.0,-6.70731735229,-9.08536529541,2.43902444839,1.0,0.0,0.0,0.0,1.0,0.0,0.0,0.0,1.0,-0.263362164351,-1.2976572998,-10.1705686523,1.0,0.0,0.0,0.0,1.0,0.0,0.0,0.0,1.0
1463745193495064040,748,1463745193492931652,,9.27852153778,-4.25264978409,67.6259460449,0.00999699998647,1.0,0.0,0.0,0.0,1.0,0.0,0.0,0.0,1.0,-6.15853643417,-10.9756097794,1.58536589146,1.0,0.0,0.0,0.0,1.0,0.0,0.0,0.0,1.0,0.0861912597656,-1.01035310059,-10.3429511719,1.0,0.0,0.0,0.0,1.0,0.0,0.0,0.0,1.0
1463745193504508170,749,1463745193502921874,,9.18074989319,-4.33582639694,67.6323623657,0.00999800022691,1.0,0.0,0.0,0.0,1.0,0.0,0.0,0.0,1.0,-3.53658556938,-15.1829271317,2.19512200356,1.0,0.0,0.0,0.0,1.0,0.0,0.0,0.0,1.0,0.167594116211,-0.588973571866,-10.4722380615,1.0,0.0,0.0,0.0,1.0,0.0,0.0,0.0,1.0
1463745193514441829,750,1463745193512856002,,9.1375837326,-4.45327186584,67.6471481323,0.0100029995665,1.0,0.0,0.0,0.0,1.0,0.0,0.0,0.0,1.0,0.18292683363,-19.4512195587,3.84146332741,1.0,0.0,0.0,0.0,1.0,0.0,0.0,0.0,1.0,0.344765039063,-0.905008227539,-10.4243540283,1.0,0.0,0.0,0.0,1.0,0.0,0.0,0.0,1.0
1463745193524728820,751,1463745193522840963,,9.12902164459,-4.58989238739,67.6830444336,0.00999299995601,1.0,0.0,0.0,0.0,1.0,0.0,0.0,0.0,1.0,7.98780536652,-20.1219520569,5.73170757294,1.0,0.0,0.0,0.0,1.0,0.0,0.0,0.0,1.0,0.148440512063,-0.119710083008,-10.3237975586,1.0,0.0,0.0,0.0,1.0,0.0,0.0,0.0,1.0
1463745193534908000,752,1463745193533020247,,9.21031761169,-4.76107501984,67.7513961792,0.010006999597,1.0,0.0,0.0,0.0,1.0,0.0,0.0,0.0,1.0,15.4878053665,-22.8658542633,9.5731716156,1.0,0.0,0.0,0.0,1.0,0.0,0.0,0.0,1.0,0.100556469727,-0.445321508789,-10.3860468018,1.0,0.0,0.0,0.0,1.0,0.0,0.0,0.0,1.0
1463745193544928429,753,1463745193542863906,,9.35784912109,-4.94861268997,67.8484268188,0.00999299995601,1.0,0.0,0.0,0.0,1.0,0.0,0.0,0.0,1.0,23.1097564697,-22.8658542633,12.4390249252,1.0,0.0,0.0,0.0,1.0,0.0,0.0,0.0,1.0,-0.143652099609,-0.320823022461,-10.1753570557,1.0,0.0,0.0,0.0,1.0,0.0,0.0,0.0,1.0
1463745193554611465,754,1463745193552917201,,9.58362674713,-5.15967416763,67.971572876,0.0100199999288,1.0,0.0,0.0,0.0,1.0,0.0,0.0,0.0,1.0,29.6951236725,-25.6097564697,15.6707315445,1.0,0.0,0.0,0.0,1.0,0.0,0.0,0.0,1.0,-0.00478840332031,-0.60812722168,-10.1370498291,1.0,0.0,0.0,0.0,1.0,0.0,0.0,0.0,1.0
1463745193564423041,755,1463745193562817995,,9.88204956055,-5.38636398315,68.119178772,0.00998200010508,1.0,0.0,0.0,0.0,1.0,0.0,0.0,0.0,1.0,35.9756088257,-26.7073173523,18.5975627899,1.0,0.0,0.0,0.0,1.0,0.0,0.0,0.0,1.0,-0.0478840332031,-0.905008227539,-10.2423947021,1.0,0.0,0.0,0.0,1.0,0.0,0.0,0.0,1.0
1463745193574989719,756,1463745193573079622,,10.2521953583,-5.66205501556,68.2862014771,0.00999999977648,1.0,0.0,0.0,0.0,1.0,0.0,0.0,0.0,1.0,41.7073173523,-28.1707324982,21.0975627899,1.0,0.0,0.0,0.0,1.0,0.0,0.0,0.0,1.0,-0.612915625,-1.24498486328,-10.1226846191,1.0,0.0,0.0,0.0,1.0,0.0,0.0,0.0,1.0
1463745193584760202,757,1463745193582903855,,10.6598100662,-5.92882633209,68.4744262695,0.0100029995665,1.0,0.0,0.0,0.0,1.0,0.0,0.0,0.0,1.0,44.2073173523,-27.0121955872,23.3536586761,1.0,0.0,0.0,0.0,1.0,0.0,0.0,0.0,1.0,-0.593762048251,-1.53707746582,-9.77313117676,1.0,0.0,0.0,0.0,1.0,0.0,0.0,0.0,1.0
1463745193594814902,758,1463745193592914702,,11.1086874008,-6.2153429985,68.6937637329,0.00999800022691,1.0,0.0,0.0,0.0,1.0,0.0,0.0,0.0,1.0,45.4268302917,-26.3414649963,26.9512195587,1.0,0.0,0.0,0.0,1.0,0.0,0.0,0.0,1.0,-0.943315454102,-2.14520483363,-9.46667277974,1.0,0.0,0.0,0.0,1.0,0.0,0.0,0.0,1.0
1463745193604574292,759,1463745193602903152,,11.4402427673,-6.54222774506,68.9370727539,0.0100180003792,1.0,0.0,0.0,0.0,1.0,0.0,0.0,0.0,1.0,37.5609779358,-29.1463413239,29.6951236725,1.0,0.0,0.0,0.0,1.0,0.0,0.0,0.0,1.0,-1.16837033709,-1.73819040527,-10.299855542,1.0,0.0,0.0,0.0,1.0,0.0,0.0,0.0,1.0
1463745193614553940,760,1463745193612999988,,11.7562475204,-6.88173675537,69.1812896729,0.00998200010508,1.0,0.0,0.0,0.0,1.0,0.0,0.0,0.0,1.0,35.1829299927,-29.5121974945,30.2439022064,1.0,0.0,0.0,0.0,1.0,0.0,0.0,0.0,1.0,-1.23540805664,-1.79565124512,-9.20809958496,1.0,0.0,0.0,0.0,1.0,0.0,0.0,0.0,1.0
1463745193624871088,761,1463745193622892294,,12.1173467636,-7.20988607407,69.4223022461,0.0100010000169,1.0,0.0,0.0,0.0,1.0,0.0,0.0,0.0,1.0,33.6585388184,-29.4512195587,30.7926845551,1.0,0.0,0.0,0.0,1.0,0.0,0.0,0.0,1.0,-1.06781401349,-2.87783039551,-9.07881269531,1.0,0.0,0.0,0.0,1.0,0.0,0.0,0.0,1.0
