%time,field.header.seq,field.header.stamp,field.header.frame_id,field.orientation.x,field.orientation.y,field.orientation.z,field.orientation.w,field.orientation_covariance0,field.orientation_covariance1,field.orientation_covariance2,field.orientation_covariance3,field.orientation_covariance4,field.orientation_covariance5,field.orientation_covariance6,field.orientation_covariance7,field.orientation_covariance8,field.angular_velocity.x,field.angular_velocity.y,field.angular_velocity.z,field.angular_velocity_covariance0,field.angular_velocity_covariance1,field.angular_velocity_covariance2,field.angular_velocity_covariance3,field.angular_velocity_covariance4,field.angular_velocity_covariance5,field.angular_velocity_covariance6,field.angular_velocity_covariance7,field.angular_velocity_covariance8,field.linear_acceleration.x,field.linear_acceleration.y,field.linear_acceleration.z,field.linear_acceleration_covariance0,field.linear_acceleration_covariance1,field.linear_acceleration_covariance2,field.linear_acceleration_covariance3,field.linear_acceleration_covariance4,field.linear_acceleration_covariance5,field.linear_acceleration_covariance6,field.linear_acceleration_covariance7,field.linear_acceleration_covariance8
1464970729010159184,201,1464970728843135343,,1.73073244095,-14.5413274765,-152.630096436,0.00128099997528,1.0,0.0,0.0,0.0,1.0,0.0,0.0,0.0,1.0,-0.426829278469,2.62195134163,-0.365853667259,1.0,0.0,0.0,0.0,1.0,0.0,0.0,0.0,1.0,-0.172382519531,-0.742202514648,10.0795889893,1.0,0.0,0.0,0.0,1.0,0.0,0.0,0.0,1.0
1464970729010195121,202,1464970728862789505,,1.8300101757,-14.3127880096,-152.643157959,0.00368799990974,1.0,0.0,0.0,0.0,1.0,0.0,0.0,0.0,1.0,-0.12195122242,2.98780488968,0.731707334518,1.0,0.0,0.0,0.0,1.0,0.0,0.0,0.0,1.0,-0.105344873047,-0.804451757813,10.3812583984,1.0,0.0,0.0,0.0,1.0,0.0,0.0,0.0,1.0
1464970729010270954,203,1464970728884183766,,1.91814601421,-14.1007537842,-152.657409668,0.00110899994615,1.0,0.0,0.0,0.0,1.0,0.0,0.0,0.0,1.0,-0.487804889679,2.25609779358,-0.365853667259,1.0,0.0,0.0,0.0,1.0,0.0,0.0,0.0,1.0,-0.119710083008,-0.871489404297,10.2519715088,1.0,0.0,0.0,0.0,1.0,0.0,0.0,0.0,1.0
1464970729010363871,204,1464970728906064849,,1.9851089716,-13.8934841156,-152.695877075,0.00139899994247,1.0,0.0,0.0,0.0,1.0,0.0,0.0,0.0,1.0,-0.365853667259,1.09756100178,-1.52439022064,1.0,0.0,0.0,0.0,1.0,0.0,0.0,0.0,1.0,-0.316034619141,-0.77093293457,10.0652237793,1.0,0.0,0.0,0.0,1.0,0.0,0.0,0.0,1.0
1464970729010475016,205,1464970728927351871,,2.04306769371,-13.6835155487,-152.72038269,0.00180399999954,1.0,0.0,0.0,0.0,1.0,0.0,0.0,0.0,1.0,-0.426829278469,0.609756112099,0.243902444839,1.0,0.0,0.0,0.0,1.0,0.0,0.0,0.0,1.0,-0.258573779297,-0.665588061523,10.1753570557,1.0,0.0,0.0,0.0,1.0,0.0,0.0,0.0,1.0
1464970729010582516,206,1464970728948309571,,2.09226083755,-13.4728269577,-152.718566895,0.00109100004192,1.0,0.0,0.0,0.0,1.0,0.0,0.0,0.0,1.0,-0.12195122242,-0.0609756112099,0.365853667259,1.0,0.0,0.0,0.0,1.0,0.0,0.0,0.0,1.0,-0.124498486328,-0.689530078125,10.1897222656,1.0,0.0,0.0,0.0,1.0,0.0,0.0,0.0,1.0
1464970729016616092,207,1464970728969532322,,2.10502076149,-13.2755384445,-152.722900391,0.00135999999475,1.0,0.0,0.0,0.0,1.0,0.0,0.0,0.0,1.0,-0.426829278469,-0.426829278469,-0.365853667259,1.0,0.0,0.0,0.0,1.0,0.0,0.0,0.0,1.0,0.0430956298828,-0.833182177734,10.3094323486,1.0,0.0,0.0,0.0,1.0,0.0,0.0,0.0,1.0
1464970729016680102,208,1464970728990321272,,2.10516357422,-13.0843324661,-152.737167358,0.00109499995597,1.0,0.0,0.0,0.0,1.0,0.0,0.0,0.0,1.0,0.12195122242,-0.243902444839,-0.487804889679,1.0,0.0,0.0,0.0,1.0,0.0,0.0,0.0,1.0,-0.100556469727,-0.675164868164,10.1322614258,1.0,0.0,0.0,0.0,1.0,0.0,0.0,0.0,1.0
1464970729018748378,209,1464970729011706158,,2.11661839485,-12.8801755905,-152.753707886,0.00119600002654,1.0,0.0,0.0,0.0,1.0,0.0,0.0,0.0,1.0,0.12195122242,0.609756112099,-0.12195122242,1.0,0.0,0.0,0.0,1.0,0.0,0.0,0.0,1.0,0.129286889648,-0.689530078125,10.1035310059,1.0,0.0,0.0,0.0,1.0,0.0,0.0,0.0,1.0
1464970729039253266,210,1464970729033154690,,2.14867353439,-12.6889123917,-152.764709473,0.00113300001249,1.0,0.0,0.0,0.0,1.0,0.0,0.0,0.0,1.0,-0.18292683363,1.52439022064,-0.12195122242,1.0,0.0,0.0,0.0,1.0,0.0,0.0,0.0,1.0,0.00478840332031,-0.828393774414,10.3573163818,1.0,0.0,0.0,0.0,1.0,0.0,0.0,0.0,1.0
1464970729058365034,211,1464970729053894057,,2.18743419647,-12.5174026489,-152.790374756,0.00121300003957,1.0,0.0,0.0,0.0,1.0,0.0,0.0,0.0,1.0,-0.304878056049,0.914634168148,-1.2195122242,1.0,0.0,0.0,0.0,1.0,0.0,0.0,0.0,1.0,-0.0622492431641,-0.871489404297,10.1514150391,1.0,0.0,0.0,0.0,1.0,0.0,0.0,0.0,1.0
1464970729080211377,212,1464970729075552849,,2.22460198402,-12.3371171951,-152.813796997,0.00128600001335,1.0,0.0,0.0,0.0,1.0,0.0,0.0,0.0,1.0,-0.18292683363,1.40243899822,0.12195122242,1.0,0.0,0.0,0.0,1.0,0.0,0.0,0.0,1.0,-0.076614453125,-0.732625708008,10.1083194092,1.0,0.0,0.0,0.0,1.0,0.0,0.0,0.0,1.0
1464970729102296626,213,1464970729096730705,,2.27474665642,-12.1555891037,-152.820495605,0.00126000004821,1.0,0.0,0.0,0.0,1.0,0.0,0.0,0.0,1.0,-0.426829278469,2.31707310677,0.487804889679,1.0,0.0,0.0,0.0,1.0,0.0,0.0,0.0,1.0,0.100556469727,-0.756567724609,10.2423947021,1.0,0.0,0.0,0.0,1.0,0.0,0.0,0.0,1.0
1464970729122492766,214,1464970729117694707,,2.32109856606,-11.9862194061,-152.833602905,0.00119700003415,1.0,0.0,0.0,0.0,1.0,0.0,0.0,0.0,1.0,-0.304878056049,2.74390244484,0.0,1.0,0.0,0.0,0.0,1.0,0.0,0.0,0.0,1.0,0.105344873047,-0.799663354492,10.1514150391,1.0,0.0,0.0,0.0,1.0,0.0,0.0,0.0,1.0
1464970729140142923,215,1464970729138000012,,2.38208532333,-11.8313980103,-152.862228394,0.00128600001335,1.0,0.0,0.0,0.0,1.0,0.0,0.0,0.0,1.0,-0.487804889679,2.5,-0.609756112099,1.0,0.0,0.0,0.0,1.0,0.0,0.0,0.0,1.0,-0.105344873047,-0.737414111328,10.1322614258,1.0,0.0,0.0,0.0,1.0,0.0,0.0,0.0,1.0
1464970729161970724,216,1464970729159691356,,2.45169591904,-11.6607341766,-152.898071289,0.00145099998917,1.0,0.0,0.0,0.0,1.0,0.0,0.0,0.0,1.0,-0.0609756112099,2.98780488968,-0.548780500889,1.0,0.0,0.0,0.0,1.0,0.0,0.0,0.0,1.0,-0.15322890625,-0.723048901367,10.1562034424,1.0,0.0,0.0,0.0,1.0,0.0,0.0,0.0,1.0
1464970729182849831,217,1464970729180512806,,2.53469204903,-11.4946098328,-152.907623291,0.00104400003329,1.0,0.0,0.0,0.0,1.0,0.0,0.0,0.0,1.0,-0.365853667259,3.41463422775,0.731707334518,1.0,0.0,0.0,0.0,1.0,0.0,0.0,0.0,1.0,-0.172382519531,-0.751779321289,10.2280294922,1.0,0.0,0.0,0.0,1.0,0.0,0.0,0.0,1.0
1464970729203847479,218,1464970729201624360,,2.60912156105,-11.33730793,-152.918228149,0.00103100005072,1.0,0.0,0.0,0.0,1.0,0.0,0.0,0.0,1.0,-0.548780500889,3.10975623131,0.0609756112099,1.0,0.0,0.0,0.0,1.0,0.0,0.0,0.0,1.0,0.0287304199219,-0.732625708008,10.2184526855,1.0,0.0,0.0,0.0,1.0,0.0,0.0,0.0,1.0
1464970729225859238,219,1464970729223235704,,2.67334747314,-11.1818332672,-152.946182251,0.00111800001469,1.0,0.0,0.0,0.0,1.0,0.0,0.0,0.0,1.0,-0.304878056049,3.17073178291,-0.365853667259,1.0,0.0,0.0,0.0,1.0,0.0,0.0,0.0,1.0,0.0526724365234,-0.780509741211,10.1609918457,1.0,0.0,0.0,0.0,1.0,0.0,0.0,0.0,1.0
1464970729246313710,220,1464970729243719291,,2.74752092361,-11.0319471359,-152.969009399,0.00096700002905,1.0,0.0,0.0,0.0,1.0,0.0,0.0,0.0,1.0,-0.0609756112099,4.20731735229,0.18292683363,1.0,0.0,0.0,0.0,1.0,0.0,0.0,0.0,1.0,-0.0191536132812,-0.737414111328,10.1945106689,1.0,0.0,0.0,0.0,1.0,0.0,0.0,0.0,1.0
1464970729267261410,221,1464970729264668865,,2.84187746048,-10.8817968369,-152.988098145,0.000973000016529,1.0,0.0,0.0,0.0,1.0,0.0,0.0,0.0,1.0,-0.365853667259,4.45121955872,-0.0609756112099,1.0,0.0,0.0,0.0,1.0,0.0,0.0,0.0,1.0,-0.0478840332031,-0.751779321289,10.3333743652,1.0,0.0,0.0,0.0,1.0,0.0,0.0,0.0,1.0
1464970729287897288,222,1464970729285363649,,2.93568611145,-10.7513074875,-153.014328003,0.000998000032268,1.0,0.0,0.0,0.0,1.0,0.0,0.0,0.0,1.0,-0.609756112099,4.02439022064,-0.548780500889,1.0,0.0,0.0,0.0,1.0,0.0,0.0,0.0,1.0,-0.148440512063,-0.861912597656,10.1274730225,1.0,0.0,0.0,0.0,1.0,0.0,0.0,0.0,1.0
1464970729309172331,223,1464970729306412912,,3.03269600868,-10.6246452332,-153.040878296,0.000962999998592,1.0,0.0,0.0,0.0,1.0,0.0,0.0,0.0,1.0,-0.18292683363,3.53658556938,0.0,1.0,0.0,0.0,0.0,1.0,0.0,0.0,0.0,1.0,-0.253785375977,-0.780509741211,10.165780249,1.0,0.0,0.0,0.0,1.0,0.0,0.0,0.0,1.0
1464970729335639598,224,1464970729327669204,,3.1192009449,-10.4806947708,-153.062667847,0.0009710000013,1.0,0.0,0.0,0.0,1.0,0.0,0.0,0.0,1.0,0.0609756112099,3.04878044128,-0.0609756112099,1.0,0.0,0.0,0.0,1.0,0.0,0.0,0.0,1.0,-0.225054956055,-0.742202514648,10.1083194092,1.0,0.0,0.0,0.0,1.0,0.0,0.0,0.0,1.0
1464970729355314489,225,1464970729348272166,,3.19332790375,-10.3360614777,-153.074584961,0.000975999981165,1.0,0.0,0.0,0.0,1.0,0.0,0.0,0.0,1.0,-0.243902444839,3.29268312454,0.304878056049,1.0,0.0,0.0,0.0,1.0,0.0,0.0,0.0,1.0,-0.119710083008,-0.689530078125,10.1514150391,1.0,0.0,0.0,0.0,1.0,0.0,0.0,0.0,1.0
1464970729374251570,226,1464970729369133564,,3.26400327682,-10.2057676315,-153.086074829,0.000980000011623,1.0,0.0,0.0,0.0,1.0,0.0,0.0,0.0,1.0,-0.548780500889,2.62195134163,-0.243902444839,1.0,0.0,0.0,0.0,1.0,0.0,0.0,0.0,1.0,-0.143652099609,-0.756567724609,10.180145459,1.0,0.0,0.0,0.0,1.0,0.0,0.0,0.0,1.0
1464970729392914329,227,1464970729390430638,,3.30923652649,-10.0843229294,-153.10458374,0.00101999996696,1.0,0.0,0.0,0.0,1.0,0.0,0.0,0.0,1.0,-0.304878056049,2.5,-0.12195122242,1.0,0.0,0.0,0.0,1.0,0.0,0.0,0.0,1.0,0.067037651051,-0.780509741211,10.2807019287,1.0,0.0,0.0,0.0,1.0,0.0,0.0,0.0,1.0
1464970729420460968,228,1464970729411269692,,3.35890102386,-9.96414852142,-153.10307312,0.00102500000503,1.0,0.0,0.0,0.0,1.0,0.0,0.0,0.0,1.0,-0.365853667259,3.84146332741,1.03658533096,1.0,0.0,0.0,0.0,1.0,0.0,0.0,0.0,1.0,0.124498486328,-0.751779321289,10.1753570557,1.0,0.0,0.0,0.0,1.0,0.0,0.0,0.0,1.0
1464970729435756861,229,1464970729432732859,,3.42841410637,-9.83941364288,-153.126312256,0.00105700001586,1.0,0.0,0.0,0.0,1.0,0.0,0.0,0.0,1.0,-0.304878056049,3.35365867615,-1.46341466904,1.0,0.0,0.0,0.0,1.0,0.0,0.0,0.0,1.0,-0.181959326172,-0.814028564453,10.2423947021,1.0,0.0,0.0,0.0,1.0,0.0,0.0,0.0,1.0
1464970729456241958,230,1464970729453947486,,3.49650740623,-9.72435379028,-153.180709839,0.00117399997544,1.0,0.0,0.0,0.0,1.0,0.0,0.0,0.0,1.0,0.0,1.52439022064,-1.52439022064,1.0,0.0,0.0,0.0,1.0,0.0,0.0,0.0,1.0,-0.430956298828,-0.809240161133,10.1322614258,1.0,0.0,0.0,0.0,1.0,0.0,0.0,0.0,1.0
1464970729477157679,231,1464970729474891175,,3.55745506287,-9.60817337036,-153.202011108,0.00127899996005,1.0,0.0,0.0,0.0,1.0,0.0,0.0,0.0,1.0,0.0,1.34146344662,0.792682945728,1.0,0.0,0.0,0.0,1.0,0.0,0.0,0.0,1.0,-0.426167895508,-0.756567724609,10.2615483154,1.0,0.0,0.0,0.0,1.0,0.0,0.0,0.0,1.0
1464970729498268764,232,1464970729495770438,,3.60340952873,-9.48155975342,-153.187957764,0.00124999997206,1.0,0.0,0.0,0.0,1.0,0.0,0.0,0.0,1.0,-0.18292683363,0.304878056049,0.975609779358,1.0,0.0,0.0,0.0,1.0,0.0,0.0,0.0,1.0,-0.263362164351,-0.646434448242,10.1897222656,1.0,0.0,0.0,0.0,1.0,0.0,0.0,0.0,1.0
1464970729519428026,233,1464970729516742461,,3.59657526016,-9.35057258606,-153.191009521,0.00129799998831,1.0,0.0,0.0,0.0,1.0,0.0,0.0,0.0,1.0,-0.12195122242,-1.2195122242,-0.914634168148,1.0,0.0,0.0,0.0,1.0,0.0,0.0,0.0,1.0,-0.138863696289,-0.651222851562,10.2567599121,1.0,0.0,0.0,0.0,1.0,0.0,0.0,0.0,1.0
1464970729540097133,234,1464970729537489380,,3.56739473343,-9.2346830368,-153.209991455,0.00132100004703,1.0,0.0,0.0,0.0,1.0,0.0,0.0,0.0,1.0,-0.487804889679,-1.76829278469,-0.609756112099,1.0,0.0,0.0,0.0,1.0,0.0,0.0,0.0,1.0,-0.162805712891,-0.780509741211,10.2232410889,1.0,0.0,0.0,0.0,1.0,0.0,0.0,0.0,1.0
1464970729561470248,235,1464970729558419111,,3.53356266022,-9.12113189697,-153.210571289,0.00112499995157,1.0,0.0,0.0,0.0,1.0,0.0,0.0,0.0,1.0,0.12195122242,-1.2195122242,0.12195122242,1.0,0.0,0.0,0.0,1.0,0.0,0.0,0.0,1.0,-0.0861912597656,-0.804451757813,10.0652237793,1.0,0.0,0.0,0.0,1.0,0.0,0.0,0.0,1.0
1464970729581554982,236,1464970729579209832,,3.4909017086,-9.00805473328,-153.200164795,0.00132100004703,1.0,0.0,0.0,0.0,1.0,0.0,0.0,0.0,1.0,-0.18292683363,-0.731707334518,0.670731723309,1.0,0.0,0.0,0.0,1.0,0.0,0.0,0.0,1.0,0.100556469727,-0.814028564453,10.2136642822,1.0,0.0,0.0,0.0,1.0,0.0,0.0,0.0,1.0
1464970729602497525,237,1464970729599890554,,3.4549703598,-8.90267372131,-153.199813843,0.00123199995141,1.0,0.0,0.0,0.0,1.0,0.0,0.0,0.0,1.0,-0.304878056049,-0.0609756112099,-0.304878056049,1.0,0.0,0.0,0.0,1.0,0.0,0.0,0.0,1.0,0.0478840332031,-0.780509741211,10.2615483154,1.0,0.0,0.0,0.0,1.0,0.0,0.0,0.0,1.0
1464970729624014338,238,1464970729621212784,,3.43019676208,-8.80191230774,-153.221252441,0.00124000001233,1.0,0.0,0.0,0.0,1.0,0.0,0.0,0.0,1.0,0.0,0.548780500889,-0.914634168148,1.0,0.0,0.0,0.0,1.0,0.0,0.0,0.0,1.0,0.15322890625,-0.804451757813,10.3237975586,1.0,0.0,0.0,0.0,1.0,0.0,0.0,0.0,1.0
1464970729645108236,239,1464970729642291577,,3.4301738739,-8.70044326782,-153.242416382,0.001007999992,1.0,0.0,0.0,0.0,1.0,0.0,0.0,0.0,1.0,0.0609756112099,1.8292683363,-0.304878056049,1.0,0.0,0.0,0.0,1.0,0.0,0.0,0.0,1.0,0.0239420166016,-0.780509741211,10.165780249,1.0,0.0,0.0,0.0,1.0,0.0,0.0,0.0,1.0
1464970729668721084,240,1464970729663533235,,3.45616698265,-8.59369277954,-153.254592896,0.0010379999876,1.0,0.0,0.0,0.0,1.0,0.0,0.0,0.0,1.0,-0.304878056049,2.56097555161,-0.0609756112099,1.0,0.0,0.0,0.0,1.0,0.0,0.0,0.0,1.0,0.0383072265625,-0.77093293457,10.1897222656,1.0,0.0,0.0,0.0,1.0,0.0,0.0,0.0,1.0
1464970729687407541,241,1464970729684260258,,3.48446989059,-8.49793338776,-153.27305603,0.00103699997999,1.0,0.0,0.0,0.0,1.0,0.0,0.0,0.0,1.0,-0.365853667259,1.8292683363,-0.609756112099,1.0,0.0,0.0,0.0,1.0,0.0,0.0,0.0,1.0,0.0909796630859,-0.703895288086,10.3429511719,1.0,0.0,0.0,0.0,1.0,0.0,0.0,0.0,1.0
1464970729707709722,242,1464970729705097594,,3.51762247086,-8.40556049347,-153.29447937,0.000979000004008,1.0,0.0,0.0,0.0,1.0,0.0,0.0,0.0,1.0,-0.243902444839,2.68292689323,-0.18292683363,1.0,0.0,0.0,0.0,1.0,0.0,0.0,0.0,1.0,0.0383072265625,-0.694318481445,10.1466266357,1.0,0.0,0.0,0.0,1.0,0.0,0.0,0.0,1.0
1464970729729268409,243,1464970729725920711,,3.56679940224,-8.31190395355,-153.308151245,0.00102800002787,1.0,0.0,0.0,0.0,1.0,0.0,0.0,0.0,1.0,-0.243902444839,2.86585378647,-0.12195122242,1.0,0.0,0.0,0.0,1.0,0.0,0.0,0.0,1.0,-0.0957680664062,-0.794874951172,10.165780249,1.0,0.0,0.0,0.0,1.0,0.0,0.0,0.0,1.0
1464970729750829962,244,1464970729746811796,,3.62074232101,-8.22177410126,-153.324386597,0.000972000008915,1.0,0.0,0.0,0.0,1.0,0.0,0.0,0.0,1.0,-0.487804889679,2.74390244484,-0.243902444839,1.0,0.0,0.0,0.0,1.0,0.0,0.0,0.0,1.0,-0.0622492431641,-0.660799658203,10.1466266357,1.0,0.0,0.0,0.0,1.0,0.0,0.0,0.0,1.0
1464970729773304584,245,1464970729768006631,,3.66898155212,-8.13366031647,-153.341629028,0.00108499999624,1.0,0.0,0.0,0.0,1.0,0.0,0.0,0.0,1.0,-0.426829278469,3.10975623131,-0.0609756112099,1.0,0.0,0.0,0.0,1.0,0.0,0.0,0.0,1.0,-0.0287304199219,-0.77093293457,10.2040874756,1.0,0.0,0.0,0.0,1.0,0.0,0.0,0.0,1.0
1464970729792048853,246,1464970729789158653,,3.72238564491,-8.03800296783,-153.35269165,0.000981000019237,1.0,0.0,0.0,0.0,1.0,0.0,0.0,0.0,1.0,0.0,3.53658556938,-0.0609756112099,1.0,0.0,0.0,0.0,1.0,0.0,0.0,0.0,1.0,-0.0239420166016,-0.699106884766,10.1705686523,1.0,0.0,0.0,0.0,1.0,0.0,0.0,0.0,1.0
1464970729815904461,247,1464970729809700781,,3.78186225891,-7.94492149353,-153.364807129,0.00104999996256,1.0,0.0,0.0,0.0,1.0,0.0,0.0,0.0,1.0,-0.548780500889,3.7804877758,0.0609756112099,1.0,0.0,0.0,0.0,1.0,0.0,0.0,0.0,1.0,-0.105344873047,-0.699106884766,10.1514150391,1.0,0.0,0.0,0.0,1.0,0.0,0.0,0.0,1.0
1464970729842655113,248,1464970729830869210,,3.84951710701,-7.85932159424,-153.383361816,0.00111099996138,1.0,0.0,0.0,0.0,1.0,0.0,0.0,0.0,1.0,0.0609756112099,3.53658556938,-0.609756112099,1.0,0.0,0.0,0.0,1.0,0.0,0.0,0.0,1.0,-0.143652099609,-0.76614453125,10.2328178955,1.0,0.0,0.0,0.0,1.0,0.0,0.0,0.0,1.0
1464970729855429139,249,1464970729851508056,,3.90997195244,-7.78851747513,-153.406280518,0.00106499996036,1.0,0.0,0.0,0.0,1.0,0.0,0.0,0.0,1.0,-0.548780500889,3.17073178291,-0.12195122242,1.0,0.0,0.0,0.0,1.0,0.0,0.0,0.0,1.0,-0.201112939453,-0.794874951172,10.1418382324,1.0,0.0,0.0,0.0,1.0,0.0,0.0,0.0,1.0
1464970729879454486,250,1464970729872251434,,3.96830844879,-7.71437740326,-153.41468811,0.00106799998321,1.0,0.0,0.0,0.0,1.0,0.0,0.0,0.0,1.0,0.0,3.59756112099,0.365853667259,1.0,0.0,0.0,0.0,1.0,0.0,0.0,0.0,1.0,-0.0478840332031,-0.871489404297,10.285490332,1.0,0.0,0.0,0.0,1.0,0.0,0.0,0.0,1.0
1464970729896018605,251,1464970729893717101,,4.02584934235,-7.63620948792,-153.421264648,0.00118100002874,1.0,0.0,0.0,0.0,1.0,0.0,0.0,0.0,1.0,-0.12195122242,2.86585378647,-0.12195122242,1.0,0.0,0.0,0.0,1.0,0.0,0.0,0.0,1.0,-0.0814028564453,-0.790086547852,10.1992990723,1.0,0.0,0.0,0.0,1.0,0.0,0.0,0.0,1.0
1464970729918429842,252,1464970729914959019,,4.06959199905,-7.56593990326,-153.443115234,0.00116900005378,1.0,0.0,0.0,0.0,1.0,0.0,0.0,0.0,1.0,0.0609756112099,2.56097555161,-0.975609779358,1.0,0.0,0.0,0.0,1.0,0.0,0.0,0.0,1.0,-0.167594116211,-0.76614453125,10.1322614258,1.0,0.0,0.0,0.0,1.0,0.0,0.0,0.0,1.0
1464970729940916652,253,1464970729935967708,,4.11600208282,-7.49488592148,-153.465591431,0.0012080000015,1.0,0.0,0.0,0.0,1.0,0.0,0.0,0.0,1.0,-0.243902444839,2.37804889679,0.0609756112099,1.0,0.0,0.0,0.0,1.0,0.0,0.0,0.0,1.0,-0.181959326172,-0.727837304687,10.1370498291,1.0,0.0,0.0,0.0,1.0,0.0,0.0,0.0,1.0
1464970729959372120,254,1464970729957602073,,4.1610622406,-7.41613054276,-153.468261719,0.00123299995903,1.0,0.0,0.0,0.0,1.0,0.0,0.0,0.0,1.0,-0.365853667259,2.56097555161,0.487804889679,1.0,0.0,0.0,0.0,1.0,0.0,0.0,0.0,1.0,-0.196324536133,-0.723048901367,10.1514150391,1.0,0.0,0.0,0.0,1.0,0.0,0.0,0.0,1.0
1464970729983712154,255,1464970729978507013,,4.18867254257,-7.34539222717,-153.480178833,0.00116400001571,1.0,0.0,0.0,0.0,1.0,0.0,0.0,0.0,1.0,0.0609756112099,1.95121955872,-0.609756112099,1.0,0.0,0.0,0.0,1.0,0.0,0.0,0.0,1.0,-0.0478840332031,-0.847547387695,10.1753570557,1.0,0.0,0.0,0.0,1.0,0.0,0.0,0.0,1.0
1464970730003528295,256,1464970729999358567,,4.20602083206,-7.27533769608,-153.495391846,0.00129899999592,1.0,0.0,0.0,0.0,1.0,0.0,0.0,0.0,1.0,0.0,2.43902444839,-0.18292683363,1.0,0.0,0.0,0.0,1.0,0.0,0.0,0.0,1.0,-0.0814028564453,-0.809240161133,10.1514150391,1.0,0.0,0.0,0.0,1.0,0.0,0.0,0.0,1.0
1464970730026969477,257,1464970730021213764,,4.23692083359,-7.19419574738,-153.508270264,0.00124699994922,1.0,0.0,0.0,0.0,1.0,0.0,0.0,0.0,1.0,0.0609756112099,2.25609779358,-0.731707334518,1.0,0.0,0.0,0.0,1.0,0.0,0.0,0.0,1.0,-0.0814028564453,-0.579396801758,10.1226846191,1.0,0.0,0.0,0.0,1.0,0.0,0.0,0.0,1.0
1464970730045544580,258,1464970730042238079,,4.26891517639,-7.11473655701,-153.526290894,0.000966000021435,1.0,0.0,0.0,0.0,1.0,0.0,0.0,0.0,1.0,-0.18292683363,1.8902438879,-0.243902444839,1.0,0.0,0.0,0.0,1.0,0.0,0.0,0.0,1.0,-0.225054956055,-0.799663354492,10.2759135254,1.0,0.0,0.0,0.0,1.0,0.0,0.0,0.0,1.0
1464970730066911549,259,1464970730063400153,,4.29305839539,-7.04953813553,-153.539642334,0.000980000011623,1.0,0.0,0.0,0.0,1.0,0.0,0.0,0.0,1.0,-0.18292683363,1.8292683363,-0.548780500889,1.0,0.0,0.0,0.0,1.0,0.0,0.0,0.0,1.0,-0.162805712891,-0.785298144531,10.1705686523,1.0,0.0,0.0,0.0,1.0,0.0,0.0,0.0,1.0
1464970730087492063,260,1464970730083988531,,4.30406284332,-6.98262262344,-153.550125122,0.000964000006206,1.0,0.0,0.0,0.0,1.0,0.0,0.0,0.0,1.0,0.243902444839,1.52439022064,-0.304878056049,1.0,0.0,0.0,0.0,1.0,0.0,0.0,0.0,1.0,-0.15801730957,-0.751779321289,10.2328178955,1.0,0.0,0.0,0.0,1.0,0.0,0.0,0.0,1.0
1464970730108967938,261,1464970730105238834,,4.30668067932,-6.9081029892,-153.558029175,0.000985000049695,1.0,0.0,0.0,0.0,1.0,0.0,0.0,0.0,1.0,-0.0609756112099,1.64634156227,0.0609756112099,1.0,0.0,0.0,0.0,1.0,0.0,0.0,0.0,1.0,0.0335188255255,-0.636857641602,10.3908352051,1.0,0.0,0.0,0.0,1.0,0.0,0.0,0.0,1.0
1464970730128787516,262,1464970730126153409,,4.31748580933,-6.84770345688,-153.567245483,0.000972000008915,1.0,0.0,0.0,0.0,1.0,0.0,0.0,0.0,1.0,-0.12195122242,1.46341466904,-0.548780500889,1.0,0.0,0.0,0.0,1.0,0.0,0.0,0.0,1.0,-0.0622492431641,-0.794874951172,10.1992990723,1.0,0.0,0.0,0.0,1.0,0.0,0.0,0.0,1.0
1464970730150209277,263,1464970730146804443,,4.3249578476,-6.80418920517,-153.591781616,0.00108299998101,1.0,0.0,0.0,0.0,1.0,0.0,0.0,0.0,1.0,-0.304878056049,1.8292683363,-0.731707334518,1.0,0.0,0.0,0.0,1.0,0.0,0.0,0.0,1.0,-0.0814028564453,-0.823605371094,10.2711251221,1.0,0.0,0.0,0.0,1.0,0.0,0.0,0.0,1.0
1464970730171698538,264,1464970730167772091,,4.3397102356,-6.74597787857,-153.605804443,0.00104999996256,1.0,0.0,0.0,0.0,1.0,0.0,0.0,0.0,1.0,0.0,1.8292683363,-0.0609756112099,1.0,0.0,0.0,0.0,1.0,0.0,0.0,0.0,1.0,-0.162805712891,-0.703895288086,10.165780249,1.0,0.0,0.0,0.0,1.0,0.0,0.0,0.0,1.0
1464970730192668269,265,1464970730189240258,,4.35951566696,-6.67382764816,-153.614395142,0.0010529999854,1.0,0.0,0.0,0.0,1.0,0.0,0.0,0.0,1.0,-0.18292683363,1.52439022064,-0.548780500889,1.0,0.0,0.0,0.0,1.0,0.0,0.0,0.0,1.0,-0.0335188255255,-0.694318481445,10.3237975586,1.0,0.0,0.0,0.0,1.0,0.0,0.0,0.0,1.0
1464970730212580139,266,1464970730210511395,,4.36915588379,-6.60872220993,-153.633270264,0.00133100000676,1.0,0.0,0.0,0.0,1.0,0.0,0.0,0.0,1.0,-0.18292683363,1.52439022064,-0.548780500889,1.0,0.0,0.0,0.0,1.0,0.0,0.0,0.0,1.0,-0.143652099609,-0.732625708008,10.3190091553,1.0,0.0,0.0,0.0,1.0,0.0,0.0,0.0,1.0
1464970730235209136,267,1464970730231391335,,4.37564468384,-6.55356025696,-153.640487671,0.00117199996021,1.0,0.0,0.0,0.0,1.0,0.0,0.0,0.0,1.0,-0.12195122242,1.46341466904,0.243902444839,1.0,0.0,0.0,0.0,1.0,0.0,0.0,0.0,1.0,-0.0814028564453,-0.756567724609,10.1274730225,1.0,0.0,0.0,0.0,1.0,0.0,0.0,0.0,1.0
1464970730256154388,268,1464970730251665964,,4.38192558289,-6.49274921417,-153.645935059,0.00119700003415,1.0,0.0,0.0,0.0,1.0,0.0,0.0,0.0,1.0,0.12195122242,1.70731711388,0.0,1.0,0.0,0.0,0.0,1.0,0.0,0.0,0.0,1.0,-0.110133276367,-0.723048901367,10.2280294922,1.0,0.0,0.0,0.0,1.0,0.0,0.0,0.0,1.0
1464970730278564844,269,1464970730272636736,,4.38616991043,-6.43396806717,-153.66166687,0.0011569999624,1.0,0.0,0.0,0.0,1.0,0.0,0.0,0.0,1.0,0.0609756112099,1.64634156227,-0.670731723309,1.0,0.0,0.0,0.0,1.0,0.0,0.0,0.0,1.0,-0.134075302102,-0.77093293457,10.1226846191,1.0,0.0,0.0,0.0,1.0,0.0,0.0,0.0,1.0
1464970730299142024,270,1464970730295388441,,4.3919839859,-6.36965894699,-153.673278809,0.00337300007232,1.0,0.0,0.0,0.0,1.0,0.0,0.0,0.0,1.0,0.0609756112099,1.76829278469,-0.0609756112099,1.0,0.0,0.0,0.0,1.0,0.0,0.0,0.0,1.0,-0.076614453125,-0.689530078125,10.1753570557,1.0,0.0,0.0,0.0,1.0,0.0,0.0,0.0,1.0
1464970730319222591,271,1464970730316099580,,4.40672111511,-6.30060005188,-153.683990479,0.0022150001023,1.0,0.0,0.0,0.0,1.0,0.0,0.0,0.0,1.0,0.609756112099,2.07317066193,-0.304878056049,1.0,0.0,0.0,0.0,1.0,0.0,0.0,0.0,1.0,-0.0814028564453,-0.660799658203,10.3046439453,1.0,0.0,0.0,0.0,1.0,0.0,0.0,0.0,1.0
1464970730343739239,272,1464970730337552591,,4.41804885864,-6.23941040039,-153.70022583,0.00133700005244,1.0,0.0,0.0,0.0,1.0,0.0,0.0,0.0,1.0,-0.12195122242,1.8292683363,-0.853658556938,1.0,0.0,0.0,0.0,1.0,0.0,0.0,0.0,1.0,-0.186747729492,-0.703895288086,10.1035310059,1.0,0.0,0.0,0.0,1.0,0.0,0.0,0.0,1.0
1464970730367599066,273,1464970730358528988,,4.43030023575,-6.19515323639,-153.71774292,0.001704000053,1.0,0.0,0.0,0.0,1.0,0.0,0.0,0.0,1.0,0.0,1.8292683363,-0.304878056049,1.0,0.0,0.0,0.0,1.0,0.0,0.0,0.0,1.0,-0.0478840332031,-0.876277807617,10.1945106689,1.0,0.0,0.0,0.0,1.0,0.0,0.0,0.0,1.0
1464970730387340728,274,1464970730379347470,,4.44938087463,-6.15267086029,-153.719329834,0.0014380000066,1.0,0.0,0.0,0.0,1.0,0.0,0.0,0.0,1.0,-0.487804889679,2.92682933807,0.670731723309,1.0,0.0,0.0,0.0,1.0,0.0,0.0,0.0,1.0,-0.0622492431641,-0.871489404297,10.0891657959,1.0,0.0,0.0,0.0,1.0,0.0,0.0,0.0,1.0
1464970730407830669,275,1464970730400647513,,4.4724855423,-6.1060218811,-153.723892212,0.00193599995691,1.0,0.0,0.0,0.0,1.0,0.0,0.0,0.0,1.0,-0.426829278469,2.80487799644,-0.243902444839,1.0,0.0,0.0,0.0,1.0,0.0,0.0,0.0,1.0,-0.0814028564453,-0.785298144531,10.2567599121,1.0,0.0,0.0,0.0,1.0,0.0,0.0,0.0,1.0
1464970730430548260,276,1464970730422085419,,4.50179576874,-6.06752872467,-153.75402832,0.00139999995008,1.0,0.0,0.0,0.0,1.0,0.0,0.0,0.0,1.0,-0.365853667259,2.19512200356,-1.03658533096,1.0,0.0,0.0,0.0,1.0,0.0,0.0,0.0,1.0,-0.239420166016,-0.828393774414,10.2232410889,1.0,0.0,0.0,0.0,1.0,0.0,0.0,0.0,1.0
1464970730446699046,277,1464970730442919370,,4.53351926804,-6.02368545532,-153.769393921,0.00101899995934,1.0,0.0,0.0,0.0,1.0,0.0,0.0,0.0,1.0,-0.365853667259,2.07317066193,0.12195122242,1.0,0.0,0.0,0.0,1.0,0.0,0.0,0.0,1.0,-0.15322890625,-0.818816967773,10.1945106689,1.0,0.0,0.0,0.0,1.0,0.0,0.0,0.0,1.0
1464970730469785959,278,1464970730464124361,,4.56489801407,-5.97873973846,-153.765945435,0.00101699994411,1.0,0.0,0.0,0.0,1.0,0.0,0.0,0.0,1.0,-0.365853667259,1.76829278469,0.487804889679,1.0,0.0,0.0,0.0,1.0,0.0,0.0,0.0,1.0,-0.196324536133,-0.737414111328,10.1753570557,1.0,0.0,0.0,0.0,1.0,0.0,0.0,0.0,1.0
1464970730487376429,279,1464970730484546385,,4.57400131226,-5.94325780869,-153.770996094,0.000981000019237,1.0,0.0,0.0,0.0,1.0,0.0,0.0,0.0,1.0,-0.304878056049,0.975609779358,-0.243902444839,1.0,0.0,0.0,0.0,1.0,0.0,0.0,0.0,1.0,-0.110133276367,-0.809240161133,10.1466266357,1.0,0.0,0.0,0.0,1.0,0.0,0.0,0.0,1.0
1464970730509299334,280,1464970730506126062,,4.56451320648,-5.89906072617,-153.791137695,0.000980000011623,1.0,0.0,0.0,0.0,1.0,0.0,0.0,0.0,1.0,0.0609756112099,0.792682945728,-0.670731723309,1.0,0.0,0.0,0.0,1.0,0.0,0.0,0.0,1.0,-0.181959326172,-0.694318481445,10.1466266357,1.0,0.0,0.0,0.0,1.0,0.0,0.0,0.0,1.0
1464970730529449484,281,1464970730526383868,,4.55327558517,-5.84196519852,-153.795227051,0.00096700002905,1.0,0.0,0.0,0.0,1.0,0.0,0.0,0.0,1.0,0.0,1.34146344662,0.670731723309,1.0,0.0,0.0,0.0,1.0,0.0,0.0,0.0,1.0,-0.0239420166016,-0.651222851562,10.180145459,1.0,0.0,0.0,0.0,1.0,0.0,0.0,0.0,1.0
1464970730551309525,282,1464970730547735369,,4.54755687714,-5.78682756424,-153.787017822,0.00108299998101,1.0,0.0,0.0,0.0,1.0,0.0,0.0,0.0,1.0,-0.243902444839,2.62195134163,0.609756112099,1.0,0.0,0.0,0.0,1.0,0.0,0.0,0.0,1.0,0.167594116211,-0.732625708008,10.2471831055,1.0,0.0,0.0,0.0,1.0,0.0,0.0,0.0,1.0
1464970730574446750,283,1464970730569017026,,4.5561466217,-5.7457857132,-153.792556763,0.000973000016529,1.0,0.0,0.0,0.0,1.0,0.0,0.0,0.0,1.0,0.12195122242,3.23170733452,-0.18292683363,1.0,0.0,0.0,0.0,1.0,0.0,0.0,0.0,1.0,0.0909796630859,-0.861912597656,10.1226846191,1.0,0.0,0.0,0.0,1.0,0.0,0.0,0.0,1.0
1464970730594877681,284,1464970730590313423,,4.58879756927,-5.70940589905,-153.81942749,0.00101600005291,1.0,0.0,0.0,0.0,1.0,0.0,0.0,0.0,1.0,-0.18292683363,3.65853667259,-0.731707334518,1.0,0.0,0.0,0.0,1.0,0.0,0.0,0.0,1.0,-0.0526724365234,-0.809240161133,10.0556469727,1.0,0.0,0.0,0.0,1.0,0.0,0.0,0.0,1.0
1464970730619502454,285,1464970730611210238,,4.63910961151,-5.67397642136,-153.83984375,0.00102800002787,1.0,0.0,0.0,0.0,1.0,0.0,0.0,0.0,1.0,-0.243902444839,4.08536577225,0.365853667259,1.0,0.0,0.0,0.0,1.0,0.0,0.0,0.0,1.0,-0.148440512063,-0.737414111328,10.2184526855,1.0,0.0,0.0,0.0,1.0,0.0,0.0,0.0,1.0
1464970730638525784,286,1464970730633031842,,4.70579481125,-5.64328193665,-153.848876953,0.00133200001437,1.0,0.0,0.0,0.0,1.0,0.0,0.0,0.0,1.0,-0.670731723309,4.20731735229,-0.12195122242,1.0,0.0,0.0,0.0,1.0,0.0,0.0,0.0,1.0,-0.105344873047,-0.742202514648,10.1178962158,1.0,0.0,0.0,0.0,1.0,0.0,0.0,0.0,1.0
1464970730660932594,287,1464970730654072302,,4.7577958107,-5.61437988281,-153.872207642,0.00115999998525,1.0,0.0,0.0,0.0,1.0,0.0,0.0,0.0,1.0,-0.426829278469,3.65853667259,-0.609756112099,1.0,0.0,0.0,0.0,1.0,0.0,0.0,0.0,1.0,-0.129286889648,-0.756567724609,10.1609918457,1.0,0.0,0.0,0.0,1.0,0.0,0.0,0.0,1.0
1464970730677758900,288,1464970730675749739,,4.80804586411,-5.5761256218,-153.888046265,0.00116500002332,1.0,0.0,0.0,0.0,1.0,0.0,0.0,0.0,1.0,-0.670731723309,4.75609779358,0.243902444839,1.0,0.0,0.0,0.0,1.0,0.0,0.0,0.0,1.0,0.0,-0.651222851562,10.1992990723,1.0,0.0,0.0,0.0,1.0,0.0,0.0,0.0,1.0
1464970730699903888,289,1464970730696928897,,4.87966632843,-5.54722929001,-153.892364502,0.00136400002521,1.0,0.0,0.0,0.0,1.0,0.0,0.0,0.0,1.0,-0.243902444839,4.20731735229,-0.12195122242,1.0,0.0,0.0,0.0,1.0,0.0,0.0,0.0,1.0,-0.167594116211,-0.890643017578,10.1370498291,1.0,0.0,0.0,0.0,1.0,0.0,0.0,0.0,1.0
1464970730722775541,290,1464970730717505504,,4.93578290939,-5.52779245377,-153.917190552,0.00123699998949,1.0,0.0,0.0,0.0,1.0,0.0,0.0,0.0,1.0,-0.365853667259,3.23170733452,-0.975609779358,1.0,0.0,0.0,0.0,1.0,0.0,0.0,0.0,1.0,-0.287304199219,-0.866701000977,10.0939541992,1.0,0.0,0.0,0.0,1.0,0.0,0.0,0.0,1.0
1464970730744169854,291,1464970730738641745,,4.98205327988,-5.49402093887,-153.942138672,0.00119900004938,1.0,0.0,0.0,0.0,1.0,0.0,0.0,0.0,1.0,-0.0609756112099,2.13414645195,-0.243902444839,1.0,0.0,0.0,0.0,1.0,0.0,0.0,0.0,1.0,-0.407014282227,-0.660799658203,10.1562034424,1.0,0.0,0.0,0.0,1.0,0.0,0.0,0.0,1.0
1464970730762072354,292,1464970730759081634,,5.00988960266,-5.43588495255,-153.952438354,0.00114399997983,1.0,0.0,0.0,0.0,1.0,0.0,0.0,0.0,1.0,-0.243902444839,1.2804877758,-0.0609756112099,1.0,0.0,0.0,0.0,1.0,0.0,0.0,0.0,1.0,-0.296881024126,-0.569819995117,10.060435376,1.0,0.0,0.0,0.0,1.0,0.0,0.0,0.0,1.0
1464970730786319732,293,1464970730780182146,,5.01630783081,-5.38582086563,-153.949935913,0.00119199999608,1.0,0.0,0.0,0.0,1.0,0.0,0.0,0.0,1.0,-0.243902444839,1.15853655338,0.426829278469,1.0,0.0,0.0,0.0,1.0,0.0,0.0,0.0,1.0,-0.210689746094,-0.794874951172,10.2184526855,1.0,0.0,0.0,0.0,1.0,0.0,0.0,0.0,1.0
1464970730803996556,294,1464970730801263856,,5.00789499283,-5.34857225418,-153.956893921,0.00103299994953,1.0,0.0,0.0,0.0,1.0,0.0,0.0,0.0,1.0,0.0609756112099,0.487804889679,-0.914634168148,1.0,0.0,0.0,0.0,1.0,0.0,0.0,0.0,1.0,-0.172382519531,-0.756567724609,10.1131078125,1.0,0.0,0.0,0.0,1.0,0.0,0.0,0.0,1.0
1464970730825991284,295,1464970730821894317,,4.98433971405,-5.30986118317,-153.970932007,0.00102500000503,1.0,0.0,0.0,0.0,1.0,0.0,0.0,0.0,1.0,0.0,0.792682945728,0.18292683363,1.0,0.0,0.0,0.0,1.0,0.0,0.0,0.0,1.0,-0.067037651051,-0.703895288086,10.3285859619,1.0,0.0,0.0,0.0,1.0,0.0,0.0,0.0,1.0
1464970730846629350,296,1464970730842682799,,4.96574115753,-5.27434301376,-153.964706421,0.001007999992,1.0,0.0,0.0,0.0,1.0,0.0,0.0,0.0,1.0,-0.426829278469,2.62195134163,0.548780500889,1.0,0.0,0.0,0.0,1.0,0.0,0.0,0.0,1.0,0.138863696289,-0.718260498047,10.2328178955,1.0,0.0,0.0,0.0,1.0,0.0,0.0,0.0,1.0
1464970730868123194,297,1464970730863906435,,4.96972417831,-5.25613498688,-153.972000122,0.00102600001264,1.0,0.0,0.0,0.0,1.0,0.0,0.0,0.0,1.0,-0.487804889679,2.56097555161,-0.12195122242,1.0,0.0,0.0,0.0,1.0,0.0,0.0,0.0,1.0,-0.067037651051,-0.852335791016,10.2184526855,1.0,0.0,0.0,0.0,1.0,0.0,0.0,0.0,1.0
1464970730890308026,298,1464970730884923354,,4.98650884628,-5.25512599945,-154.006256104,0.0010379999876,1.0,0.0,0.0,0.0,1.0,0.0,0.0,0.0,1.0,-0.487804889679,2.74390244484,-1.2804877758,1.0,0.0,0.0,0.0,1.0,0.0,0.0,0.0,1.0,-0.167594116211,-0.91458503418,10.0939541992,1.0,0.0,0.0,0.0,1.0,0.0,0.0,0.0,1.0
1464970730910433228,299,1464970730906011210,,5.0145907402,-5.24294471741,-154.02532959,0.00101699994411,1.0,0.0,0.0,0.0,1.0,0.0,0.0,0.0,1.0,-0.304878056049,3.47560977936,0.731707334518,1.0,0.0,0.0,0.0,1.0,0.0,0.0,0.0,1.0,-0.100556469727,-0.785298144531,10.1562034424,1.0,0.0,0.0,0.0,1.0,0.0,0.0,0.0,1.0
1464970730936152893,300,1464970730926687296,,5.0611538887,-5.21333599091,-154.018188477,0.00101799995173,1.0,0.0,0.0,0.0,1.0,0.0,0.0,0.0,1.0,-0.12195122242,4.14634132385,0.731707334518,1.0,0.0,0.0,0.0,1.0,0.0,0.0,0.0,1.0,-0.0191536132812,-0.684741674805,10.2950671387,1.0,0.0,0.0,0.0,1.0,0.0,0.0,0.0,1.0
1464970730952861022,301,1464970730947849578,,5.09680700302,-5.18456268311,-154.028030396,0.00116700003855,1.0,0.0,0.0,0.0,1.0,0.0,0.0,0.0,1.0,-0.365853667259,4.81707286835,-0.12195122242,1.0,0.0,0.0,0.0,1.0,0.0,0.0,0.0,1.0,0.0574608398438,-0.852335791016,10.1178962158,1.0,0.0,0.0,0.0,1.0,0.0,0.0,0.0,1.0
1464970730976735432,302,1464970730968864257,,5.14581727982,-5.16621732712,-154.044143677,0.00102099997457,1.0,0.0,0.0,0.0,1.0,0.0,0.0,0.0,1.0,-0.609756112099,5.60975599289,0.243902444839,1.0,0.0,0.0,0.0,1.0,0.0,0.0,0.0,1.0,-0.0143652099609,-0.751779321289,10.1466266357,1.0,0.0,0.0,0.0,1.0,0.0,0.0,0.0,1.0
1464970730997157249,303,1464970730989724562,,5.23241662979,-5.13714933395,-154.05809021,0.00109599996358,1.0,0.0,0.0,0.0,1.0,0.0,0.0,0.0,1.0,-0.0609756112099,6.09756088257,0.12195122242,1.0,0.0,0.0,0.0,1.0,0.0,0.0,0.0,1.0,-0.191536132812,-0.684741674805,10.0795889893,1.0,0.0,0.0,0.0,1.0,0.0,0.0,0.0,1.0
1464970731024308993,304,1464970731019799839,,5.35990142822,-5.0930724144,-154.082946777,0.00675900001079,1.0,0.0,0.0,0.0,1.0,0.0,0.0,0.0,1.0,0.243902444839,5.24390268326,-0.304878056049,1.0,0.0,0.0,0.0,1.0,0.0,0.0,0.0,1.0,-0.526724328702,-0.713472094727,10.0843773926,1.0,0.0,0.0,0.0,1.0,0.0,0.0,0.0,1.0
1464970731040791237,305,1464970731036861144,,5.44956207275,-5.07262182236,-154.106918335,0.00118499994278,1.0,0.0,0.0,0.0,1.0,0.0,0.0,0.0,1.0,-0.12195122242,3.59756112099,-0.670731723309,1.0,0.0,0.0,0.0,1.0,0.0,0.0,0.0,1.0,-0.502782348633,-0.780509741211,10.3190091553,1.0,0.0,0.0,0.0,1.0,0.0,0.0,0.0,1.0
1464970731062204561,306,1464970731058449363,,5.50828409195,-5.04143810272,-154.124160767,0.0014230000088,1.0,0.0,0.0,0.0,1.0,0.0,0.0,0.0,1.0,-0.12195122242,2.37804889679,0.12195122242,1.0,0.0,0.0,0.0,1.0,0.0,0.0,0.0,1.0,-0.368707055664,-0.713472094727,10.1274730225,1.0,0.0,0.0,0.0,1.0,0.0,0.0,0.0,1.0
1464970731082626950,307,1464970731079521073,,5.53737020493,-5.00193405151,-154.120681763,0.00106399995275,1.0,0.0,0.0,0.0,1.0,0.0,0.0,0.0,1.0,0.18292683363,1.64634156227,0.487804889679,1.0,0.0,0.0,0.0,1.0,0.0,0.0,0.0,1.0,-0.378283862305,-0.641646044922,10.2423947021,1.0,0.0,0.0,0.0,1.0,0.0,0.0,0.0,1.0
1464970731104048294,308,1464970731100447627,,5.53260993958,-4.96203756332,-154.122406006,0.00105099997018,1.0,0.0,0.0,0.0,1.0,0.0,0.0,0.0,1.0,-0.0609756112099,1.03658533096,-0.243902444839,1.0,0.0,0.0,0.0,1.0,0.0,0.0,0.0,1.0,-0.100556469727,-0.708683691406,10.165780249,1.0,0.0,0.0,0.0,1.0,0.0,0.0,0.0,1.0
1464970731124657610,309,1464970731121479181,,5.51349067688,-4.92919158936,-154.127838135,0.00131399999373,1.0,0.0,0.0,0.0,1.0,0.0,0.0,0.0,1.0,-0.304878056049,2.13414645195,0.365853667259,1.0,0.0,0.0,0.0,1.0,0.0,0.0,0.0,1.0,-0.0861912597656,-0.775721337891,10.1322614258,1.0,0.0,0.0,0.0,1.0,0.0,0.0,0.0,1.0
1464970731146073641,310,1464970731142749120,,5.50558948517,-4.90908622742,-154.143554688,0.00107700005174,1.0,0.0,0.0,0.0,1.0,0.0,0.0,0.0,1.0,-0.365853667259,2.37804889679,-0.914634168148,1.0,0.0,0.0,0.0,1.0,0.0,0.0,0.0,1.0,-0.129286889648,-0.866701000977,10.2376062988,1.0,0.0,0.0,0.0,1.0,0.0,0.0,0.0,1.0
1464970731167952589,311,1464970731164140621,,5.50827789307,-4.89781904221,-154.164321899,0.0010229999898,1.0,0.0,0.0,0.0,1.0,0.0,0.0,0.0,1.0,-0.18292683363,2.68292689323,0.0,1.0,0.0,0.0,0.0,1.0,0.0,0.0,0.0,1.0,-0.0909796630859,-0.962469067383,10.0556469727,1.0,0.0,0.0,0.0,1.0,0.0,0.0,0.0,1.0
1464970731188263676,312,1464970731185128789,,5.5315413475,-4.89459276199,-154.173599243,0.00101699994411,1.0,0.0,0.0,0.0,1.0,0.0,0.0,0.0,1.0,-0.0609756112099,2.98780488968,-0.304878056049,1.0,0.0,0.0,0.0,1.0,0.0,0.0,0.0,1.0,-0.186747729492,-0.861912597656,10.1562034424,1.0,0.0,0.0,0.0,1.0,0.0,0.0,0.0,1.0
1464970731214045372,313,1464970731206469717,,5.55152606964,-4.88250541687,-154.194488525,0.00102399999741,1.0,0.0,0.0,0.0,1.0,0.0,0.0,0.0,1.0,-0.365853667259,2.62195134163,-0.609756112099,1.0,0.0,0.0,0.0,1.0,0.0,0.0,0.0,1.0,-0.239420166016,-0.727837304687,10.2807019287,1.0,0.0,0.0,0.0,1.0,0.0,0.0,0.0,1.0
1464970731237031920,314,1464970731227114032,,5.56898593903,-4.85761499405,-154.210403442,0.00104200001806,1.0,0.0,0.0,0.0,1.0,0.0,0.0,0.0,1.0,-0.243902444839,2.74390244484,0.12195122242,1.0,0.0,0.0,0.0,1.0,0.0,0.0,0.0,1.0,-0.186747729492,-0.675164868164,10.2759135254,1.0,0.0,0.0,0.0,1.0,0.0,0.0,0.0,1.0
1464970731254466193,315,1464970731248426211,,5.59595870972,-4.83909988403,-154.218231201,0.0011419999646,1.0,0.0,0.0,0.0,1.0,0.0,0.0,0.0,1.0,-0.365853667259,2.43902444839,-0.243902444839,1.0,0.0,0.0,0.0,1.0,0.0,0.0,0.0,1.0,-0.335188232422,-0.833182177734,10.2376062988,1.0,0.0,0.0,0.0,1.0,0.0,0.0,0.0,1.0
1464970731273829627,316,1464970731270218283,,5.6064324379,-4.82187080383,-154.235061646,0.00132399995346,1.0,0.0,0.0,0.0,1.0,0.0,0.0,0.0,1.0,-0.304878056049,2.25609779358,-0.243902444839,1.0,0.0,0.0,0.0,1.0,0.0,0.0,0.0,1.0,-0.181959326172,-0.804451757813,10.1753570557,1.0,0.0,0.0,0.0,1.0,0.0,0.0,0.0,1.0
1464970731296510915,317,1464970731293705403,,5.61975288391,-4.802318573,-154.241409302,0.00110899994615,1.0,0.0,0.0,0.0,1.0,0.0,0.0,0.0,1.0,-0.304878056049,2.07317066193,0.12195122242,1.0,0.0,0.0,0.0,1.0,0.0,0.0,0.0,1.0,-0.201112939453,-0.727837304687,10.180145459,1.0,0.0,0.0,0.0,1.0,0.0,0.0,0.0,1.0
1464970731320890689,318,1464970731315566746,,5.62670850754,-4.77081394196,-154.253112793,0.0010529999854,1.0,0.0,0.0,0.0,1.0,0.0,0.0,0.0,1.0,-0.12195122242,2.01219511032,-0.243902444839,1.0,0.0,0.0,0.0,1.0,0.0,0.0,0.0,1.0,-0.172382519531,-0.684741674805,10.180145459,1.0,0.0,0.0,0.0,1.0,0.0,0.0,0.0,1.0
1464970731340137196,319,1464970731336656789,,5.64176940918,-4.74904203415,-154.268508911,0.00401700008661,1.0,0.0,0.0,0.0,1.0,0.0,0.0,0.0,1.0,-0.12195122242,1.8902438879,0.0,1.0,0.0,0.0,0.0,1.0,0.0,0.0,0.0,1.0,-0.354341845703,-0.76614453125,10.1370498291,1.0,0.0,0.0,0.0,1.0,0.0,0.0,0.0,1.0
1464970731361943539,320,1464970731358677611,,5.6431684494,-4.72709798813,-154.277664185,0.00507600000128,1.0,0.0,0.0,0.0,1.0,0.0,0.0,0.0,1.0,0.0609756112099,1.15853655338,0.0,1.0,0.0,0.0,0.0,1.0,0.0,0.0,0.0,1.0,-0.225054956055,-0.780509741211,10.060435376,1.0,0.0,0.0,0.0,1.0,0.0,0.0,0.0,1.0
1464970731382196241,321,1464970731378890990,,5.63564491272,-4.70116281509,-154.283752441,0.00127600005362,1.0,0.0,0.0,0.0,1.0,0.0,0.0,0.0,1.0,-0.18292683363,0.975609779358,0.18292683363,1.0,0.0,0.0,0.0,1.0,0.0,0.0,0.0,1.0,-0.220266552734,-0.723048901367,10.1609918457,1.0,0.0,0.0,0.0,1.0,0.0,0.0,0.0,1.0
1464970731402655192,322,1464970731400019731,,5.62159824371,-4.67980718613,-154.294174194,0.00124899996445,1.0,0.0,0.0,0.0,1.0,0.0,0.0,0.0,1.0,-0.243902444839,0.304878056049,-0.670731723309,1.0,0.0,0.0,0.0,1.0,0.0,0.0,0.0,1.0,-0.172382519531,-0.742202514648,10.180145459,1.0,0.0,0.0,0.0,1.0,0.0,0.0,0.0,1.0
1464970731423126487,323,1464970731420475974,,5.59213161469,-4.67498636246,-154.311981201,0.0013119999785,1.0,0.0,0.0,0.0,1.0,0.0,0.0,0.0,1.0,-0.365853667259,-0.12195122242,-0.365853667259,1.0,0.0,0.0,0.0,1.0,0.0,0.0,0.0,1.0,-0.196324536133,-0.780509741211,10.1322614258,1.0,0.0,0.0,0.0,1.0,0.0,0.0,0.0,1.0
1464970731444679602,324,1464970731442200078,,5.55800390244,-4.65403366089,-154.318466187,0.00108600000385,1.0,0.0,0.0,0.0,1.0,0.0,0.0,0.0,1.0,-0.12195122242,0.0,0.12195122242,1.0,0.0,0.0,0.0,1.0,0.0,0.0,0.0,1.0,-0.215478149414,-0.622492431641,10.2807019287,1.0,0.0,0.0,0.0,1.0,0.0,0.0,0.0,1.0
1464970731465623188,325,1464970731463155226,,5.51157140732,-4.63152885437,-154.324920654,0.00112999998964,1.0,0.0,0.0,0.0,1.0,0.0,0.0,0.0,1.0,-0.304878056049,-0.426829278469,-0.426829278469,1.0,0.0,0.0,0.0,1.0,0.0,0.0,0.0,1.0,-0.186747729492,-0.823605371094,10.3333743652,1.0,0.0,0.0,0.0,1.0,0.0,0.0,0.0,1.0
1464970731487033855,326,1464970731484399383,,5.46355676651,-4.61759805679,-154.341796875,0.0009710000013,1.0,0.0,0.0,0.0,1.0,0.0,0.0,0.0,1.0,0.0609756112099,-0.731707334518,-0.853658556938,1.0,0.0,0.0,0.0,1.0,0.0,0.0,0.0,1.0,-0.268150604204,-0.794874951172,10.1609918457,1.0,0.0,0.0,0.0,1.0,0.0,0.0,0.0,1.0
1464970731513412841,327,1464970731505149896,,5.4157409668,-4.5943236351,-154.356506348,0.00101000000723,1.0,0.0,0.0,0.0,1.0,0.0,0.0,0.0,1.0,0.487804889679,0.0,-0.304878056049,1.0,0.0,0.0,0.0,1.0,0.0,0.0,0.0,1.0,-0.0861912597656,-0.727837304687,10.0556469727,1.0,0.0,0.0,0.0,1.0,0.0,0.0,0.0,1.0
1464970731529008213,328,1464970731526437595,,5.37216901779,-4.55720567703,-154.352493286,0.000973000016529,1.0,0.0,0.0,0.0,1.0,0.0,0.0,0.0,1.0,0.975609779358,1.2804877758,0.18292683363,1.0,0.0,0.0,0.0,1.0,0.0,0.0,0.0,1.0,0.00478840332031,-0.675164868164,10.0795889893,1.0,0.0,0.0,0.0,1.0,0.0,0.0,0.0,1.0
1464970731554258348,329,1464970731547404878,,5.34288787842,-4.5197262764,-154.36819458,0.000954999995884,1.0,0.0,0.0,0.0,1.0,0.0,0.0,0.0,1.0,0.548780500889,0.609756112099,-0.975609779358,1.0,0.0,0.0,0.0,1.0,0.0,0.0,0.0,1.0,-0.100556469727,-0.77093293457,10.2184526855,1.0,0.0,0.0,0.0,1.0,0.0,0.0,0.0,1.0
1464970731573760011,330,1464970731568493568,,5.32259654999,-4.50071907043,-154.394683838,0.000959999975748,1.0,0.0,0.0,0.0,1.0,0.0,0.0,0.0,1.0,0.426829278469,1.2195122242,-0.853658556938,1.0,0.0,0.0,0.0,1.0,0.0,0.0,0.0,1.0,-0.0478840332031,-0.881066210937,10.180145459,1.0,0.0,0.0,0.0,1.0,0.0,0.0,0.0,1.0
1464970731594757606,331,1464970731589466372,,5.31900930405,-4.48091220856,-154.402252197,0.000960999983363,1.0,0.0,0.0,0.0,1.0,0.0,0.0,0.0,1.0,0.243902444839,1.8902438879,0.426829278469,1.0,0.0,0.0,0.0,1.0,0.0,0.0,0.0,1.0,-0.110133276367,-0.713472094727,10.2376062988,1.0,0.0,0.0,0.0,1.0,0.0,0.0,0.0,1.0
1464970731614615674,332,1464970731610466780,,5.32090520859,-4.46098566055,-154.403244019,0.000997000024654,1.0,0.0,0.0,0.0,1.0,0.0,0.0,0.0,1.0,0.0,2.25609779358,0.12195122242,1.0,0.0,0.0,0.0,1.0,0.0,0.0,0.0,1.0,-0.00478840332031,-0.756567724609,10.1609918457,1.0,0.0,0.0,0.0,1.0,0.0,0.0,0.0,1.0
1464970731639889820,333,1464970731635502749,,5.32224655151,-4.44809627533,-154.422729492,0.00119500001892,1.0,0.0,0.0,0.0,1.0,0.0,0.0,0.0,1.0,-0.426829278469,2.5,-0.670731723309,1.0,0.0,0.0,0.0,1.0,0.0,0.0,0.0,1.0,-0.15801730957,-0.828393774414,10.1705686523,1.0,0.0,0.0,0.0,1.0,0.0,0.0,0.0,1.0
1464970731658026174,334,1464970731656289200,,5.34177017212,-4.42588663101,-154.437728882,0.00610399991274,1.0,0.0,0.0,0.0,1.0,0.0,0.0,0.0,1.0,-0.243902444839,2.62195134163,0.243902444839,1.0,0.0,0.0,0.0,1.0,0.0,0.0,0.0,1.0,-0.148440512063,-0.713472094727,10.1466266357,1.0,0.0,0.0,0.0,1.0,0.0,0.0,0.0,1.0
1464970731687814161,335,1464970731677814346,,5.35934877396,-4.41093730927,-154.438873291,0.00638800021261,1.0,0.0,0.0,0.0,1.0,0.0,0.0,0.0,1.0,-0.365853667259,2.5,0.487804889679,1.0,0.0,0.0,0.0,1.0,0.0,0.0,0.0,1.0,-0.100556469727,-0.694318481445,10.2902787354,1.0,0.0,0.0,0.0,1.0,0.0,0.0,0.0,1.0
1464970731703149637,336,1464970731698424182,,5.36792373657,-4.40079116821,-154.44972229,0.00166599999648,1.0,0.0,0.0,0.0,1.0,0.0,0.0,0.0,1.0,-0.18292683363,2.86585378647,-0.18292683363,1.0,0.0,0.0,0.0,1.0,0.0,0.0,0.0,1.0,-0.0814028564453,-0.857124194336,10.1705686523,1.0,0.0,0.0,0.0,1.0,0.0,0.0,0.0,1.0
1464970731722372759,337,1464970731719827454,,5.38592529297,-4.38641643524,-154.468643188,0.00120499997865,1.0,0.0,0.0,0.0,1.0,0.0,0.0,0.0,1.0,-0.18292683363,2.31707310677,-0.548780500889,1.0,0.0,0.0,0.0,1.0,0.0,0.0,0.0,1.0,-0.220266552734,-0.560243188477,10.1992990723,1.0,0.0,0.0,0.0,1.0,0.0,0.0,0.0,1.0
1464970731743635197,338,1464970731740785466,,5.40383481979,-4.35993766785,-154.483642578,0.000980000011623,1.0,0.0,0.0,0.0,1.0,0.0,0.0,0.0,1.0,-0.18292683363,2.5,0.548780500889,1.0,0.0,0.0,0.0,1.0,0.0,0.0,0.0,1.0,-0.105344873047,-0.708683691406,10.1418382324,1.0,0.0,0.0,0.0,1.0,0.0,0.0,0.0,1.0
1464970731764985344,339,1464970731761790405,,5.43040275574,-4.34460926056,-154.482406616,0.00105700001586,1.0,0.0,0.0,0.0,1.0,0.0,0.0,0.0,1.0,0.304878056049,2.43902444839,-0.0609756112099,1.0,0.0,0.0,0.0,1.0,0.0,0.0,0.0,1.0,-0.0861912597656,-0.794874951172,10.2040874756,1.0,0.0,0.0,0.0,1.0,0.0,0.0,0.0,1.0
1464970731785597264,340,1464970731783004250,,5.43742990494,-4.32406377792,-154.500762939,0.000969999993686,1.0,0.0,0.0,0.0,1.0,0.0,0.0,0.0,1.0,0.731707334518,1.70731711388,-0.731707334518,1.0,0.0,0.0,0.0,1.0,0.0,0.0,0.0,1.0,-0.201112939453,-0.727837304687,10.1897222656,1.0,0.0,0.0,0.0,1.0,0.0,0.0,0.0,1.0
1464970731807235795,341,1464970731804360647,,5.44049167633,-4.28862667084,-154.51802063,0.00108600000385,1.0,0.0,0.0,0.0,1.0,0.0,0.0,0.0,1.0,1.52439022064,1.76829278469,-0.12195122242,1.0,0.0,0.0,0.0,1.0,0.0,0.0,0.0,1.0,-0.148440512063,-0.689530078125,9.98382092285,1.0,0.0,0.0,0.0,1.0,0.0,0.0,0.0,1.0
1464970731826924228,342,1464970731824780640,,5.4499001503,-4.24099683762,-154.525909424,0.00103299994953,1.0,0.0,0.0,0.0,1.0,0.0,0.0,0.0,1.0,1.46341466904,1.8902438879,-0.18292683363,1.0,0.0,0.0,0.0,1.0,0.0,0.0,0.0,1.0,-0.205901342773,-0.675164868164,10.3381627686,1.0,0.0,0.0,0.0,1.0,0.0,0.0,0.0,1.0
1464970731847859167,343,1464970731845865371,,5.44998025894,-4.20070457458,-154.534439087,0.000985000049695,1.0,0.0,0.0,0.0,1.0,0.0,0.0,0.0,1.0,0.975609779358,2.13414645195,0.243902444839,1.0,0.0,0.0,0.0,1.0,0.0,0.0,0.0,1.0,-0.15322890625,-0.756567724609,10.2519715088,1.0,0.0,0.0,0.0,1.0,0.0,0.0,0.0,1.0
1464970731871057434,344,1464970731866766561,,5.44945716858,-4.16724920273,-154.541030884,0.000969999993686,1.0,0.0,0.0,0.0,1.0,0.0,0.0,0.0,1.0,0.792682945728,2.19512200356,0.18292683363,1.0,0.0,0.0,0.0,1.0,0.0,0.0,0.0,1.0,-0.167594116211,-0.636857641602,10.1418382324,1.0,0.0,0.0,0.0,1.0,0.0,0.0,0.0,1.0
1464970731897109129,345,1464970731887794364,,5.4562087059,-4.14601135254,-154.553649902,0.000990999978967,1.0,0.0,0.0,0.0,1.0,0.0,0.0,0.0,1.0,0.487804889679,1.8292683363,-0.426829278469,1.0,0.0,0.0,0.0,1.0,0.0,0.0,0.0,1.0,-0.220266552734,-0.790086547852,10.1083194092,1.0,0.0,0.0,0.0,1.0,0.0,0.0,0.0,1.0
1464970731916042512,346,1464970731909242948,,5.45832252502,-4.14337921143,-154.576629639,0.00109799997881,1.0,0.0,0.0,0.0,1.0,0.0,0.0,0.0,1.0,-0.0609756112099,1.2804877758,-0.304878056049,1.0,0.0,0.0,0.0,1.0,0.0,0.0,0.0,1.0,-0.263362164351,-0.737414111328,10.2232410889,1.0,0.0,0.0,0.0,1.0,0.0,0.0,0.0,1.0
1464970731935386362,347,1464970731930585491,,5.44860267639,-4.12756252289,-154.582351685,0.00118899997324,1.0,0.0,0.0,0.0,1.0,0.0,0.0,0.0,1.0,-0.12195122242,1.52439022064,0.548780500889,1.0,0.0,0.0,0.0,1.0,0.0,0.0,0.0,1.0,-0.201112939453,-0.646434448242,10.2567599121,1.0,0.0,0.0,0.0,1.0,0.0,0.0,0.0,1.0
1464970731959398064,348,1464970731952064283,,5.43535375595,-4.09823179245,-154.579055786,0.00120599998627,1.0,0.0,0.0,0.0,1.0,0.0,0.0,0.0,1.0,-0.0609756112099,1.34146344662,0.365853667259,1.0,0.0,0.0,0.0,1.0,0.0,0.0,0.0,1.0,-0.138863696289,-0.574608398438,10.2088758789,1.0,0.0,0.0,0.0,1.0,0.0,0.0,0.0,1.0
1464970731977728167,349,1464970731973175472,,5.42805051804,-4.08921337128,-154.595413208,0.00127500004601,1.0,0.0,0.0,0.0,1.0,0.0,0.0,0.0,1.0,-0.243902444839,0.792682945728,-0.975609779358,1.0,0.0,0.0,0.0,1.0,0.0,0.0,0.0,1.0,-0.316034619141,-0.905008227539,10.1322614258,1.0,0.0,0.0,0.0,1.0,0.0,0.0,0.0,1.0
1464970731996927747,350,1464970731994695722,,5.40867090225,-4.09263801575,-154.615280151,0.00131500000134,1.0,0.0,0.0,0.0,1.0,0.0,0.0,0.0,1.0,0.0,1.46341466904,0.0,1.0,0.0,0.0,0.0,1.0,0.0,0.0,0.0,1.0,-0.162805712891,-0.809240161133,10.2280294922,1.0,0.0,0.0,0.0,1.0,0.0,0.0,0.0,1.0
1464970732021858977,351,1464970732019379141,,5.37711286545,-4.06025362015,-154.599838257,0.0102409999818,1.0,0.0,0.0,0.0,1.0,0.0,0.0,0.0,1.0,0.0,1.52439022064,0.975609779358,1.0,0.0,0.0,0.0,1.0,0.0,0.0,0.0,1.0,0.0957680664062,-0.517147558594,10.1945106689,1.0,0.0,0.0,0.0,1.0,0.0,0.0,0.0,1.0
1464970732042953552,352,1464970732040759548,,5.36096429825,-4.03346157074,-154.607559204,0.00125900004059,1.0,0.0,0.0,0.0,1.0,0.0,0.0,0.0,1.0,-0.12195122242,1.64634156227,-1.03658533096,1.0,0.0,0.0,0.0,1.0,0.0,0.0,0.0,1.0,-0.114921679688,-0.684741674805,10.3716815918,1.0,0.0,0.0,0.0,1.0,0.0,0.0,0.0,1.0
1464970732063846356,353,1464970732061499280,,5.3488574028,-4.02877759933,-154.634628296,0.00117599999066,1.0,0.0,0.0,0.0,1.0,0.0,0.0,0.0,1.0,-0.12195122242,2.01219511032,-0.609756112099,1.0,0.0,0.0,0.0,1.0,0.0,0.0,0.0,1.0,-0.067037651051,-0.737414111328,10.1945106689,1.0,0.0,0.0,0.0,1.0,0.0,0.0,0.0,1.0
1464970732084653327,354,1464970732082332709,,5.3558754921,-4.02320241928,-154.644104004,0.00106999999844,1.0,0.0,0.0,0.0,1.0,0.0,0.0,0.0,1.0,-0.304878056049,2.5,0.609756112099,1.0,0.0,0.0,0.0,1.0,0.0,0.0,0.0,1.0,-0.138863696289,-0.727837304687,10.1274730225,1.0,0.0,0.0,0.0,1.0,0.0,0.0,0.0,1.0
1464970732105084675,355,1464970732102927129,,5.36344146729,-3.99833226204,-154.635009766,0.00103100005072,1.0,0.0,0.0,0.0,1.0,0.0,0.0,0.0,1.0,0.18292683363,3.35365867615,0.609756112099,1.0,0.0,0.0,0.0,1.0,0.0,0.0,0.0,1.0,0.076614453125,-0.584185168546,10.2471831055,1.0,0.0,0.0,0.0,1.0,0.0,0.0,0.0,1.0
1464970732126913986,356,1464970732124561233,,5.38180923462,-3.97815918922,-154.650344849,0.00112200004514,1.0,0.0,0.0,0.0,1.0,0.0,0.0,0.0,1.0,0.18292683363,3.47560977936,-0.975609779358,1.0,0.0,0.0,0.0,1.0,0.0,0.0,0.0,1.0,0.0335188255255,-0.742202514648,10.1897222656,1.0,0.0,0.0,0.0,1.0,0.0,0.0,0.0,1.0
1464970732147513667,357,1464970732145150080,,5.41392183304,-3.96986246109,-154.67906189,0.00101899995934,1.0,0.0,0.0,0.0,1.0,0.0,0.0,0.0,1.0,-0.0609756112099,3.96341490746,-0.548780500889,1.0,0.0,0.0,0.0,1.0,0.0,0.0,0.0,1.0,-0.205901342773,-0.708683691406,10.1466266357,1.0,0.0,0.0,0.0,1.0,0.0,0.0,0.0,1.0
1464970732168624908,358,1464970732166206373,,5.46680307388,-3.96170330048,-154.688262939,0.00102700002026,1.0,0.0,0.0,0.0,1.0,0.0,0.0,0.0,1.0,0.304878056049,4.20731735229,0.487804889679,1.0,0.0,0.0,0.0,1.0,0.0,0.0,0.0,1.0,-0.316034619141,-0.737414111328,10.1562034424,1.0,0.0,0.0,0.0,1.0,0.0,0.0,0.0,1.0
1464970732189661149,359,1464970732187282718,,5.51893997192,-3.9533188343,-154.696334839,0.00101799995173,1.0,0.0,0.0,0.0,1.0,0.0,0.0,0.0,1.0,-0.426829278469,3.04878044128,-0.243902444839,1.0,0.0,0.0,0.0,1.0,0.0,0.0,0.0,1.0,-0.31124621582,-0.775721337891,10.2711251221,1.0,0.0,0.0,0.0,1.0,0.0,0.0,0.0,1.0
1464970732212109938,360,1464970732208160210,,5.55065965652,-3.94956588745,-154.71661377,0.00101699994411,1.0,0.0,0.0,0.0,1.0,0.0,0.0,0.0,1.0,-0.304878056049,2.62195134163,-0.731707334518,1.0,0.0,0.0,0.0,1.0,0.0,0.0,0.0,1.0,-0.320823022461,-0.756567724609,10.1131078125,1.0,0.0,0.0,0.0,1.0,0.0,0.0,0.0,1.0
1464970732231777746,361,1464970732229459263,,5.57035684586,-3.93540072441,-154.719772339,0.00128399999812,1.0,0.0,0.0,0.0,1.0,0.0,0.0,0.0,1.0,-0.243902444839,2.74390244484,0.243902444839,1.0,0.0,0.0,0.0,1.0,0.0,0.0,0.0,1.0,-0.186747729492,-0.61770402832,10.1514150391,1.0,0.0,0.0,0.0,1.0,0.0,0.0,0.0,1.0
1464970732252917321,362,1464970732250742900,,5.58387088776,-3.91763758659,-154.717391968,0.00146499997936,1.0,0.0,0.0,0.0,1.0,0.0,0.0,0.0,1.0,-0.426829278469,2.80487799644,0.548780500889,1.0,0.0,0.0,0.0,1.0,0.0,0.0,0.0,1.0,-0.119710083008,-0.60812722168,10.2136642822,1.0,0.0,0.0,0.0,1.0,0.0,0.0,0.0,1.0
1464970732275810275,363,1464970732271792006,,5.59590148926,-3.91570138931,-154.732833862,0.00125199998729,1.0,0.0,0.0,0.0,1.0,0.0,0.0,0.0,1.0,-0.426829278469,2.07317066193,-0.731707334518,1.0,0.0,0.0,0.0,1.0,0.0,0.0,0.0,1.0,-0.162805712891,-0.732625708008,10.2040874756,1.0,0.0,0.0,0.0,1.0,0.0,0.0,0.0,1.0
1464970732295917874,364,1464970732293109132,,5.60437774658,-3.91280603409,-154.752960205,0.00112599995919,1.0,0.0,0.0,0.0,1.0,0.0,0.0,0.0,1.0,-0.12195122242,2.37804889679,0.0609756112099,1.0,0.0,0.0,0.0,1.0,0.0,0.0,0.0,1.0,-0.191536132812,-0.651222851562,10.1945106689,1.0,0.0,0.0,0.0,1.0,0.0,0.0,0.0,1.0
1464970732317035469,365,1464970732313946728,,5.61570501328,-3.89497756958,-154.751205444,0.00126299995463,1.0,0.0,0.0,0.0,1.0,0.0,0.0,0.0,1.0,-0.0609756112099,1.8902438879,0.0609756112099,1.0,0.0,0.0,0.0,1.0,0.0,0.0,0.0,1.0,-0.239420166016,-0.60812722168,10.0939541992,1.0,0.0,0.0,0.0,1.0,0.0,0.0,0.0,1.0
1464970732342696541,366,1464970732334684324,,5.61960124969,-3.88157248497,-154.764724731,0.00117299996782,1.0,0.0,0.0,0.0,1.0,0.0,0.0,0.0,1.0,-0.304878056049,2.07317066193,-0.487804889679,1.0,0.0,0.0,0.0,1.0,0.0,0.0,0.0,1.0,-0.138863696289,-0.684741674805,10.2950671387,1.0,0.0,0.0,0.0,1.0,0.0,0.0,0.0,1.0
1464970732359378472,367,1464970732355585982,,5.62059879303,-3.87846827507,-154.777801514,0.00128800002858,1.0,0.0,0.0,0.0,1.0,0.0,0.0,0.0,1.0,-0.12195122242,2.07317066193,0.18292683363,1.0,0.0,0.0,0.0,1.0,0.0,0.0,0.0,1.0,-0.124498486328,-0.713472094727,10.1705686523,1.0,0.0,0.0,0.0,1.0,0.0,0.0,0.0,1.0
1464970732381019815,368,1464970732376059673,,5.63100004196,-3.87074232101,-154.783966064,0.00124400004279,1.0,0.0,0.0,0.0,1.0,0.0,0.0,0.0,1.0,-0.243902444839,2.25609779358,0.0609756112099,1.0,0.0,0.0,0.0,1.0,0.0,0.0,0.0,1.0,-0.205901342773,-0.684741674805,10.3429511719,1.0,0.0,0.0,0.0,1.0,0.0,0.0,0.0,1.0
1464970732399203982,369,1464970732397062425,,5.63386678696,-3.86382031441,-154.793411255,0.00132899999153,1.0,0.0,0.0,0.0,1.0,0.0,0.0,0.0,1.0,-0.304878056049,2.5,-0.243902444839,1.0,0.0,0.0,0.0,1.0,0.0,0.0,0.0,1.0,-0.15322890625,-0.756567724609,10.2376062988,1.0,0.0,0.0,0.0,1.0,0.0,0.0,0.0,1.0
1464970732421132929,370,1464970732418643457,,5.64241838455,-3.86016273499,-154.808197021,0.00125400000252,1.0,0.0,0.0,0.0,1.0,0.0,0.0,0.0,1.0,-0.12195122242,2.13414645195,-0.609756112099,1.0,0.0,0.0,0.0,1.0,0.0,0.0,0.0,1.0,-0.129286889648,-0.804451757813,10.0939541992,1.0,0.0,0.0,0.0,1.0,0.0,0.0,0.0,1.0
1464970732443109011,371,1464970732439416782,,5.64947795868,-3.85528326035,-154.822967529,0.00133500003722,1.0,0.0,0.0,0.0,1.0,0.0,0.0,0.0,1.0,-0.548780500889,2.80487799644,0.12195122242,1.0,0.0,0.0,0.0,1.0,0.0,0.0,0.0,1.0,-0.196324536133,-0.641646044922,10.1131078125,1.0,0.0,0.0,0.0,1.0,0.0,0.0,0.0,1.0
1464970732462623330,372,1464970732459956358,,5.66064739227,-3.84472084045,-154.824020386,0.00131099997088,1.0,0.0,0.0,0.0,1.0,0.0,0.0,0.0,1.0,-0.487804889679,2.80487799644,-0.304878056049,1.0,0.0,0.0,0.0,1.0,0.0,0.0,0.0,1.0,-0.167594116211,-0.593762048251,10.1274730225,1.0,0.0,0.0,0.0,1.0,0.0,0.0,0.0,1.0
1464970732483335509,373,1464970732480560570,,5.67103099823,-3.84064006805,-154.844406128,0.00133200001437,1.0,0.0,0.0,0.0,1.0,0.0,0.0,0.0,1.0,-0.243902444839,2.01219511032,-0.792682945728,1.0,0.0,0.0,0.0,1.0,0.0,0.0,0.0,1.0,-0.215478149414,-0.703895288086,10.2902787354,1.0,0.0,0.0,0.0,1.0,0.0,0.0,0.0,1.0
1464970732503716440,374,1464970732501150666,,5.67751550674,-3.83961629868,-154.857192993,0.00110100000165,1.0,0.0,0.0,0.0,1.0,0.0,0.0,0.0,1.0,0.0609756112099,2.25609779358,0.304878056049,1.0,0.0,0.0,0.0,1.0,0.0,0.0,0.0,1.0,-0.172382519531,-0.699106884766,10.1705686523,1.0,0.0,0.0,0.0,1.0,0.0,0.0,0.0,1.0
1464970732524186069,375,1464970732521738576,,5.68960857391,-3.82809090614,-154.857223511,0.00108800001908,1.0,0.0,0.0,0.0,1.0,0.0,0.0,0.0,1.0,-0.0609756112099,2.13414645195,0.243902444839,1.0,0.0,0.0,0.0,1.0,0.0,0.0,0.0,1.0,-0.205901342773,-0.718260498047,10.2471831055,1.0,0.0,0.0,0.0,1.0,0.0,0.0,0.0,1.0
1464970732544523718,376,1464970732542532995,,5.68853330612,-3.83127498627,-154.868621826,0.00103499996476,1.0,0.0,0.0,0.0,1.0,0.0,0.0,0.0,1.0,-0.487804889679,2.56097555161,-0.18292683363,1.0,0.0,0.0,0.0,1.0,0.0,0.0,0.0,1.0,-0.076614453125,-0.828393774414,10.1466266357,1.0,0.0,0.0,0.0,1.0,0.0,0.0,0.0,1.0
1464970732565900219,377,1464970732563352362,,5.69533395767,-3.83983206749,-154.886276245,0.00105900003109,1.0,0.0,0.0,0.0,1.0,0.0,0.0,0.0,1.0,-0.426829278469,2.25609779358,-0.548780500889,1.0,0.0,0.0,0.0,1.0,0.0,0.0,0.0,1.0,-0.196324536133,-0.727837304687,10.1562034424,1.0,0.0,0.0,0.0,1.0,0.0,0.0,0.0,1.0
1464970732588011301,378,1464970732584571363,,5.70468759537,-3.83565950394,-154.904785156,0.00100899999961,1.0,0.0,0.0,0.0,1.0,0.0,0.0,0.0,1.0,-0.0609756112099,1.95121955872,-0.18292683363,1.0,0.0,0.0,0.0,1.0,0.0,0.0,0.0,1.0,-0.258573779297,-0.603338854892,10.2567599121,1.0,0.0,0.0,0.0,1.0,0.0,0.0,0.0,1.0
1464970732607053798,379,1464970732605167866,,5.70870876312,-3.82261395454,-154.907302856,0.00101400003769,1.0,0.0,0.0,0.0,1.0,0.0,0.0,0.0,1.0,-0.609756112099,1.95121955872,0.304878056049,1.0,0.0,0.0,0.0,1.0,0.0,0.0,0.0,1.0,-0.268150604204,-0.751779321289,10.2423947021,1.0,0.0,0.0,0.0,1.0,0.0,0.0,0.0,1.0
1464970732627393635,380,1464970732625590151,,5.7048535347,-3.82898592949,-154.917098999,0.00101899995934,1.0,0.0,0.0,0.0,1.0,0.0,0.0,0.0,1.0,-0.670731723309,1.2195122242,-0.670731723309,1.0,0.0,0.0,0.0,1.0,0.0,0.0,0.0,1.0,-0.244208569336,-0.742202514648,10.2136642822,1.0,0.0,0.0,0.0,1.0,0.0,0.0,0.0,1.0
1464970732648758469,381,1464970732646473163,,5.69232559204,-3.8338561058,-154.941925049,0.00104000000283,1.0,0.0,0.0,0.0,1.0,0.0,0.0,0.0,1.0,-0.12195122242,0.243902444839,-0.670731723309,1.0,0.0,0.0,0.0,1.0,0.0,0.0,0.0,1.0,-0.349553442383,-0.641646044922,10.0939541992,1.0,0.0,0.0,0.0,1.0,0.0,0.0,0.0,1.0
1464970732669808825,382,1464970732667455394,,5.6700501442,-3.82080340385,-154.947662354,0.0010229999898,1.0,0.0,0.0,0.0,1.0,0.0,0.0,0.0,1.0,-0.243902444839,0.0609756112099,0.243902444839,1.0,0.0,0.0,0.0,1.0,0.0,0.0,0.0,1.0,-0.339976635742,-0.603338854892,10.1753570557,1.0,0.0,0.0,0.0,1.0,0.0,0.0,0.0,1.0
1464970732690220433,383,1464970732688497990,,5.63271856308,-3.80300498009,-154.945709229,0.00102500000503,1.0,0.0,0.0,0.0,1.0,0.0,0.0,0.0,1.0,-0.18292683363,-0.18292683363,0.426829278469,1.0,0.0,0.0,0.0,1.0,0.0,0.0,0.0,1.0,-0.15801730957,-0.665588061523,10.2519715088,1.0,0.0,0.0,0.0,1.0,0.0,0.0,0.0,1.0
1464970732711808548,384,1464970732709704179,,5.57911539078,-3.80083489418,-154.953567505,0.00116200000048,1.0,0.0,0.0,0.0,1.0,0.0,0.0,0.0,1.0,-0.0609756112099,-0.548780500889,-0.18292683363,1.0,0.0,0.0,0.0,1.0,0.0,0.0,0.0,1.0,-0.0909796630859,-0.76135612793,10.1083194092,1.0,0.0,0.0,0.0,1.0,0.0,0.0,0.0,1.0
1464970732735195824,385,1464970732730328911,,5.52800607681,-3.79198694229,-154.968597412,0.00133600004483,1.0,0.0,0.0,0.0,1.0,0.0,0.0,0.0,1.0,0.0609756112099,0.12195122242,-0.426829278469,1.0,0.0,0.0,0.0,1.0,0.0,0.0,0.0,1.0,-0.076614453125,-0.737414111328,10.2711251221,1.0,0.0,0.0,0.0,1.0,0.0,0.0,0.0,1.0
1464970732759743618,386,1464970732751363694,,5.48614263535,-3.77639532089,-154.970169067,0.00106200005393,1.0,0.0,0.0,0.0,1.0,0.0,0.0,0.0,1.0,-0.304878056049,1.8902438879,0.853658556938,1.0,0.0,0.0,0.0,1.0,0.0,0.0,0.0,1.0,0.0383072265625,-0.632069238281,10.3094323486,1.0,0.0,0.0,0.0,1.0,0.0,0.0,0.0,1.0
1464970732777168932,387,1464970732774257742,,5.47163200378,-3.77385473251,-154.970504761,0.00110700004734,1.0,0.0,0.0,0.0,1.0,0.0,0.0,0.0,1.0,-0.304878056049,2.5,-0.304878056049,1.0,0.0,0.0,0.0,1.0,0.0,0.0,0.0,1.0,-0.0287304199219,-0.727837304687,10.2567599121,1.0,0.0,0.0,0.0,1.0,0.0,0.0,0.0,1.0
1464970732797364863,388,1464970732792950397,,5.46474838257,-3.78420162201,-154.997421265,0.00113099999726,1.0,0.0,0.0,0.0,1.0,0.0,0.0,0.0,1.0,-0.365853667259,2.25609779358,-0.975609779358,1.0,0.0,0.0,0.0,1.0,0.0,0.0,0.0,1.0,-0.0526724365234,-0.905008227539,10.1992990723,1.0,0.0,0.0,0.0,1.0,0.0,0.0,0.0,1.0
1464970732815952049,389,1464970732813898201,,5.4719285965,-3.79359912872,-155.01600647,0.0012229999993,1.0,0.0,0.0,0.0,1.0,0.0,0.0,0.0,1.0,-0.18292683363,3.29268312454,-0.365853667259,1.0,0.0,0.0,0.0,1.0,0.0,0.0,0.0,1.0,-0.105344873047,-0.76135612793,10.1514150391,1.0,0.0,0.0,0.0,1.0,0.0,0.0,0.0,1.0
1464970732837896777,390,1464970732834940953,,5.50164699554,-3.79218769073,-155.027877808,0.00112100003753,1.0,0.0,0.0,0.0,1.0,0.0,0.0,0.0,1.0,-0.18292683363,3.53658556938,-0.365853667259,1.0,0.0,0.0,0.0,1.0,0.0,0.0,0.0,1.0,-0.110133276367,-0.665588061523,10.3429511719,1.0,0.0,0.0,0.0,1.0,0.0,0.0,0.0,1.0
1464970732861200408,391,1464970732855973079,,5.53007221222,-3.79302573204,-155.040298462,0.00109799997881,1.0,0.0,0.0,0.0,1.0,0.0,0.0,0.0,1.0,-0.243902444839,3.59756112099,-0.12195122242,1.0,0.0,0.0,0.0,1.0,0.0,0.0,0.0,1.0,-0.205901342773,-0.77093293457,10.1466266357,1.0,0.0,0.0,0.0,1.0,0.0,0.0,0.0,1.0
1464970732879813740,392,1464970732876797030,,5.56146430969,-3.79290676117,-155.056045532,0.00128900003619,1.0,0.0,0.0,0.0,1.0,0.0,0.0,0.0,1.0,-0.18292683363,2.86585378647,-0.304878056049,1.0,0.0,0.0,0.0,1.0,0.0,0.0,0.0,1.0,-0.253785375977,-0.679953271484,10.2184526855,1.0,0.0,0.0,0.0,1.0,0.0,0.0,0.0,1.0
1464970732901859405,393,1464970732897506136,,5.5903878212,-3.7740354538,-155.073791504,0.0011340000201,1.0,0.0,0.0,0.0,1.0,0.0,0.0,0.0,1.0,-0.0609756112099,2.68292689323,-0.18292683363,1.0,0.0,0.0,0.0,1.0,0.0,0.0,0.0,1.0,-0.239420166016,-0.61770402832,10.1705686523,1.0,0.0,0.0,0.0,1.0,0.0,0.0,0.0,1.0
1464970732922462939,394,1464970732918451076,,5.61774873734,-3.7627055645,-155.083007812,0.00121200003196,1.0,0.0,0.0,0.0,1.0,0.0,0.0,0.0,1.0,-0.0609756112099,2.92682933807,0.12195122242,1.0,0.0,0.0,0.0,1.0,0.0,0.0,0.0,1.0,-0.244208569336,-0.76614453125,10.2184526855,1.0,0.0,0.0,0.0,1.0,0.0,0.0,0.0,1.0
1464970732942784079,395,1464970732939649348,,5.63705396652,-3.76610016823,-155.087799072,0.00150200002827,1.0,0.0,0.0,0.0,1.0,0.0,0.0,0.0,1.0,-0.365853667259,1.8902438879,-0.304878056049,1.0,0.0,0.0,0.0,1.0,0.0,0.0,0.0,1.0,-0.368707055664,-0.751779321289,10.2567599121,1.0,0.0,0.0,0.0,1.0,0.0,0.0,0.0,1.0
1464970732965586096,396,1464970732961104755,,5.63414001465,-3.75756835938,-155.10218811,0.00128500000574,1.0,0.0,0.0,0.0,1.0,0.0,0.0,0.0,1.0,0.18292683363,1.46341466904,-0.365853667259,1.0,0.0,0.0,0.0,1.0,0.0,0.0,0.0,1.0,-0.114921679688,-0.660799658203,10.165780249,1.0,0.0,0.0,0.0,1.0,0.0,0.0,0.0,1.0
1464970732984746562,397,1464970732981850737,,5.63031673431,-3.74084424973,-155.10609436,0.00127799995244,1.0,0.0,0.0,0.0,1.0,0.0,0.0,0.0,1.0,0.0609756112099,1.46341466904,0.365853667259,1.0,0.0,0.0,0.0,1.0,0.0,0.0,0.0,1.0,-0.234631762695,-0.660799658203,10.2328178955,1.0,0.0,0.0,0.0,1.0,0.0,0.0,0.0,1.0
1464970733007248059,398,1464970733002434479,,5.62578630447,-3.73096179962,-155.120361328,0.00118899997324,1.0,0.0,0.0,0.0,1.0,0.0,0.0,0.0,1.0,0.12195122242,0.12195122242,-1.2195122242,1.0,0.0,0.0,0.0,1.0,0.0,0.0,0.0,1.0,-0.416591088867,-0.790086547852,10.2088758789,1.0,0.0,0.0,0.0,1.0,0.0,0.0,0.0,1.0
1464970733026007901,399,1464970733023718116,,5.59328508377,-3.73608064651,-155.148834229,0.00113300001249,1.0,0.0,0.0,0.0,1.0,0.0,0.0,0.0,1.0,-0.243902444839,-0.914634168148,-1.03658533096,1.0,0.0,0.0,0.0,1.0,0.0,0.0,0.0,1.0,-0.469263525391,-0.804451757813,10.2040874756,1.0,0.0,0.0,0.0,1.0,0.0,0.0,0.0,1.0
1464970733048949658,400,1464970733044368369,,5.54426193237,-3.74263310432,-155.147399902,0.000967999978457,1.0,0.0,0.0,0.0,1.0,0.0,0.0,0.0,1.0,-0.304878056049,-1.2804877758,0.609756112099,1.0,0.0,0.0,0.0,1.0,0.0,0.0,0.0,1.0,-0.205901342773,-0.775721337891,10.1226846191,1.0,0.0,0.0,0.0,1.0,0.0,0.0,0.0,1.0
1464970733067973040,401,1464970733065522058,,5.47378635406,-3.73891425133,-155.143478394,0.000967999978457,1.0,0.0,0.0,0.0,1.0,0.0,0.0,0.0,1.0,-0.304878056049,-1.46341466904,0.0609756112099,1.0,0.0,0.0,0.0,1.0,0.0,0.0,0.0,1.0,-0.00957680664062,-0.718260498047,10.3046439453,1.0,0.0,0.0,0.0,1.0,0.0,0.0,0.0,1.0
1464970733089096625,402,1464970733086254758,,5.39537143707,-3.74197411537,-155.155044556,0.000973000016529,1.0,0.0,0.0,0.0,1.0,0.0,0.0,0.0,1.0,-0.243902444839,-1.76829278469,-0.975609779358,1.0,0.0,0.0,0.0,1.0,0.0,0.0,0.0,1.0,-0.105344873047,-0.799663354492,10.0891657959,1.0,0.0,0.0,0.0,1.0,0.0,0.0,0.0,1.0
1464970733111585050,403,1464970733106878761,,5.31614971161,-3.74582457542,-155.179672241,0.00120299996343,1.0,0.0,0.0,0.0,1.0,0.0,0.0,0.0,1.0,0.243902444839,-1.58536589146,-0.609756112099,1.0,0.0,0.0,0.0,1.0,0.0,0.0,0.0,1.0,-0.110133276367,-0.737414111328,10.2328178955,1.0,0.0,0.0,0.0,1.0,0.0,0.0,0.0,1.0
1464970733132465927,404,1464970733127852555,,5.24990177155,-3.72606539726,-155.180404663,0.00111499999184,1.0,0.0,0.0,0.0,1.0,0.0,0.0,0.0,1.0,0.0609756112099,-0.670731723309,0.365853667259,1.0,0.0,0.0,0.0,1.0,0.0,0.0,0.0,1.0,-0.0191536132812,-0.61770402832,10.2184526855,1.0,0.0,0.0,0.0,1.0,0.0,0.0,0.0,1.0
1464970733151994204,405,1464970733148430568,,5.19319057465,-3.70713949203,-155.188262939,0.00106599996798,1.0,0.0,0.0,0.0,1.0,0.0,0.0,0.0,1.0,0.0,-0.914634168148,-1.03658533096,1.0,0.0,0.0,0.0,1.0,0.0,0.0,0.0,1.0,-0.196324536133,-0.699106884766,10.285490332,1.0,0.0,0.0,0.0,1.0,0.0,0.0,0.0,1.0
1464970733172929404,406,1464970733169077279,,5.12826347351,-3.71195459366,-155.216140747,0.00107899995055,1.0,0.0,0.0,0.0,1.0,0.0,0.0,0.0,1.0,-0.12195122242,-2.56097555161,-1.15853655338,1.0,0.0,0.0,0.0,1.0,0.0,0.0,0.0,1.0,-0.239420166016,-0.742202514648,10.0891657959,1.0,0.0,0.0,0.0,1.0,0.0,0.0,0.0,1.0
1464970733193410699,407,1464970733189387846,,5.0568728447,-3.71222639084,-155.226303101,0.00104100001045,1.0,0.0,0.0,0.0,1.0,0.0,0.0,0.0,1.0,-0.12195122242,-2.37804889679,0.243902444839,1.0,0.0,0.0,0.0,1.0,0.0,0.0,0.0,1.0,-0.220266552734,-0.584185168546,10.2280294922,1.0,0.0,0.0,0.0,1.0,0.0,0.0,0.0,1.0
1464970733218448283,408,1464970733210475181,,4.96937131882,-3.69026398659,-155.220336914,0.00104700005613,1.0,0.0,0.0,0.0,1.0,0.0,0.0,0.0,1.0,0.12195122242,-2.98780488968,-0.0609756112099,1.0,0.0,0.0,0.0,1.0,0.0,0.0,0.0,1.0,-0.0478840332031,-0.584185168546,10.2136642822,1.0,0.0,0.0,0.0,1.0,0.0,0.0,0.0,1.0
1464970733235227088,409,1464970733231475328,,4.85956001282,-3.67060494423,-155.225326538,0.00104799994733,1.0,0.0,0.0,0.0,1.0,0.0,0.0,0.0,1.0,0.18292683363,-2.80487799644,-0.12195122242,1.0,0.0,0.0,0.0,1.0,0.0,0.0,0.0,1.0,0.0718260498047,-0.646434448242,10.2280294922,1.0,0.0,0.0,0.0,1.0,0.0,0.0,0.0,1.0
1464970733254122190,410,1464970733252298341,,4.75567150116,-3.65798568726,-155.225143433,0.00113700004295,1.0,0.0,0.0,0.0,1.0,0.0,0.0,0.0,1.0,-0.12195122242,-1.46341466904,0.18292683363,1.0,0.0,0.0,0.0,1.0,0.0,0.0,0.0,1.0,0.215478149414,-0.579396801758,10.2471831055,1.0,0.0,0.0,0.0,1.0,0.0,0.0,0.0,1.0
1464970733276102595,411,1464970733273573853,,4.67669057846,-3.63957595825,-155.211517334,0.00108600000385,1.0,0.0,0.0,0.0,1.0,0.0,0.0,0.0,1.0,0.0609756112099,0.548780500889,1.09756100178,1.0,0.0,0.0,0.0,1.0,0.0,0.0,0.0,1.0,0.320823022461,-0.665588061523,10.2280294922,1.0,0.0,0.0,0.0,1.0,0.0,0.0,0.0,1.0
1464970733299322216,412,1464970733294560615,,4.63070249557,-3.63424015045,-155.192306519,0.00123399996664,1.0,0.0,0.0,0.0,1.0,0.0,0.0,0.0,1.0,-0.548780500889,2.37804889679,0.914634168148,1.0,0.0,0.0,0.0,1.0,0.0,0.0,0.0,1.0,0.354341845703,-0.670376464844,10.2280294922,1.0,0.0,0.0,0.0,1.0,0.0,0.0,0.0,1.0
1464970733318263984,413,1464970733315738418,,4.61801147461,-3.64291167259,-155.186737061,0.00118300004397,1.0,0.0,0.0,0.0,1.0,0.0,0.0,0.0,1.0,-0.853658556938,3.96341490746,0.365853667259,1.0,0.0,0.0,0.0,1.0,0.0,0.0,0.0,1.0,0.435744702148,-0.780509741211,10.180145459,1.0,0.0,0.0,0.0,1.0,0.0,0.0,0.0,1.0
1464970733341508032,414,1464970733336329244,,4.63790988922,-3.66042590141,-155.202270508,0.0014969999902,1.0,0.0,0.0,0.0,1.0,0.0,0.0,0.0,1.0,-0.304878056049,5.30487823486,-0.548780500889,1.0,0.0,0.0,0.0,1.0,0.0,0.0,0.0,1.0,0.268150604204,-0.76614453125,10.3573163818,1.0,0.0,0.0,0.0,1.0,0.0,0.0,0.0,1.0
1464970733360937350,415,1464970733357550433,,4.7008728981,-3.68297100067,-155.232009888,0.00312500004657,1.0,0.0,0.0,0.0,1.0,0.0,0.0,0.0,1.0,-0.548780500889,6.46341466904,-0.426829278469,1.0,0.0,0.0,0.0,1.0,0.0,0.0,0.0,1.0,0.0430956298828,-0.852335791016,10.180145459,1.0,0.0,0.0,0.0,1.0,0.0,0.0,0.0,1.0
1464970733385197176,416,1464970733379407922,,4.80675792694,-3.69578790665,-155.253509521,0.00727800000459,1.0,0.0,0.0,0.0,1.0,0.0,0.0,0.0,1.0,-0.487804889679,6.89024400711,-0.243902444839,1.0,0.0,0.0,0.0,1.0,0.0,0.0,0.0,1.0,-0.119710083008,-0.718260498047,10.1322614258,1.0,0.0,0.0,0.0,1.0,0.0,0.0,0.0,1.0
1464970733402604157,417,1464970733400146300,,4.91149377823,-3.6828815937,-155.262634277,0.00104000000283,1.0,0.0,0.0,0.0,1.0,0.0,0.0,0.0,1.0,-0.426829278469,7.56097555161,0.548780500889,1.0,0.0,0.0,0.0,1.0,0.0,0.0,0.0,1.0,0.076614453125,-0.507570751953,10.1945106689,1.0,0.0,0.0,0.0,1.0,0.0,0.0,0.0,1.0
1464970733425754195,418,1464970733421606134,,5.03074550629,-3.67110037804,-155.262786865,0.00113900005817,1.0,0.0,0.0,0.0,1.0,0.0,0.0,0.0,1.0,-0.731707334518,8.10975551605,0.12195122242,1.0,0.0,0.0,0.0,1.0,0.0,0.0,0.0,1.0,0.0,-0.584185168546,10.2232410889,1.0,0.0,0.0,0.0,1.0,0.0,0.0,0.0,1.0
1464970733445307211,419,1464970733442038262,,5.15339517593,-3.68278622627,-155.289459229,0.00102199998219,1.0,0.0,0.0,0.0,1.0,0.0,0.0,0.0,1.0,-0.426829278469,6.15853643417,-1.2804877758,1.0,0.0,0.0,0.0,1.0,0.0,0.0,0.0,1.0,-0.339976635742,-0.780509741211,10.1562034424,1.0,0.0,0.0,0.0,1.0,0.0,0.0,0.0,1.0
1464970733467747407,420,1464970733462896796,,5.24351644516,-3.69048190117,-155.331924438,0.000990999978967,1.0,0.0,0.0,0.0,1.0,0.0,0.0,0.0,1.0,-0.18292683363,4.87804889679,-1.15853655338,1.0,0.0,0.0,0.0,1.0,0.0,0.0,0.0,1.0,-0.31124621582,-0.727837304687,10.1322614258,1.0,0.0,0.0,0.0,1.0,0.0,0.0,0.0,1.0
1464970733490598434,421,1464970733484122828,,5.32086086273,-3.67972278595,-155.352798462,0.00097499997355,1.0,0.0,0.0,0.0,1.0,0.0,0.0,0.0,1.0,0.12195122242,4.57317066193,0.18292683363,1.0,0.0,0.0,0.0,1.0,0.0,0.0,0.0,1.0,-0.292092584273,-0.627280834961,10.2567599121,1.0,0.0,0.0,0.0,1.0,0.0,0.0,0.0,1.0
1464970733506521774,422,1464970733504788810,,5.38945674896,-3.66141295433,-155.357879639,0.000997000024654,1.0,0.0,0.0,0.0,1.0,0.0,0.0,0.0,1.0,0.0,4.2682929039,0.243902444839,1.0,0.0,0.0,0.0,1.0,0.0,0.0,0.0,1.0,-0.258573779297,-0.699106884766,10.2807019287,1.0,0.0,0.0,0.0,1.0,0.0,0.0,0.0,1.0
1464970733533318728,423,1464970733525833437,,5.43101453781,-3.65837717056,-155.36138916,0.000986999948509,1.0,0.0,0.0,0.0,1.0,0.0,0.0,0.0,1.0,-0.243902444839,3.7804877758,0.487804889679,1.0,0.0,0.0,0.0,1.0,0.0,0.0,0.0,1.0,-0.186747729492,-0.622492431641,10.2328178955,1.0,0.0,0.0,0.0,1.0,0.0,0.0,0.0,1.0
1464970733552761276,424,1464970733547172438,,5.45705461502,-3.65731954575,-155.369842529,0.000986999948509,1.0,0.0,0.0,0.0,1.0,0.0,0.0,0.0,1.0,-0.304878056049,3.59756112099,-0.0609756112099,1.0,0.0,0.0,0.0,1.0,0.0,0.0,0.0,1.0,-0.0143652099609,-0.670376464844,10.2519715088,1.0,0.0,0.0,0.0,1.0,0.0,0.0,0.0,1.0
1464970733573729653,425,1464970733567660660,,5.48565149307,-3.65719437599,-155.376327515,0.00097499997355,1.0,0.0,0.0,0.0,1.0,0.0,0.0,0.0,1.0,-0.304878056049,4.75609779358,0.304878056049,1.0,0.0,0.0,0.0,1.0,0.0,0.0,0.0,1.0,-0.0861912597656,-0.703895288086,10.1705686523,1.0,0.0,0.0,0.0,1.0,0.0,0.0,0.0,1.0
1464970733593659283,426,1464970733588510235,,5.53688097,-3.66987514496,-155.390609741,0.000981000019237,1.0,0.0,0.0,0.0,1.0,0.0,0.0,0.0,1.0,-0.426829278469,4.87804889679,-0.548780500889,1.0,0.0,0.0,0.0,1.0,0.0,0.0,0.0,1.0,-0.0957680664062,-0.785298144531,10.2519715088,1.0,0.0,0.0,0.0,1.0,0.0,0.0,0.0,1.0
1464970733616442654,427,1464970733611139076,,5.60721492767,-3.69066643715,-155.428375244,0.00106299994513,1.0,0.0,0.0,0.0,1.0,0.0,0.0,0.0,1.0,-0.12195122242,3.41463422775,-1.40243899822,1.0,0.0,0.0,0.0,1.0,0.0,0.0,0.0,1.0,-0.411802685547,-0.794874951172,10.1418382324,1.0,0.0,0.0,0.0,1.0,0.0,0.0,0.0,1.0
1464970733640199825,428,1464970733637236396,,5.64929533005,-3.68898892403,-155.480041504,0.00695700012147,1.0,0.0,0.0,0.0,1.0,0.0,0.0,0.0,1.0,0.12195122242,2.19512200356,-0.914634168148,1.0,0.0,0.0,0.0,1.0,0.0,0.0,0.0,1.0,-0.316034619141,-0.660799658203,10.2184526855,1.0,0.0,0.0,0.0,1.0,0.0,0.0,0.0,1.0
1464970733661632524,429,1464970733659031802,,5.67120599747,-3.6737446785,-155.489242554,0.00226600002497,1.0,0.0,0.0,0.0,1.0,0.0,0.0,0.0,1.0,-0.12195122242,1.8292683363,0.243902444839,1.0,0.0,0.0,0.0,1.0,0.0,0.0,0.0,1.0,-0.335188232422,-0.584185168546,10.2519715088,1.0,0.0,0.0,0.0,1.0,0.0,0.0,0.0,1.0
1464970733683438607,430,1464970733680436376,,5.6737575531,-3.65797781944,-155.497665405,0.00139800005127,1.0,0.0,0.0,0.0,1.0,0.0,0.0,0.0,1.0,-0.0609756112099,0.548780500889,-0.12195122242,1.0,0.0,0.0,0.0,1.0,0.0,0.0,0.0,1.0,-0.330399829102,-0.622492431641,10.1131078125,1.0,0.0,0.0,0.0,1.0,0.0,0.0,0.0,1.0
1464970733703724798,431,1464970733700826317,,5.64970111847,-3.64814710617,-155.503890991,0.00123299995903,1.0,0.0,0.0,0.0,1.0,0.0,0.0,0.0,1.0,-0.243902444839,0.0609756112099,0.0609756112099,1.0,0.0,0.0,0.0,1.0,0.0,0.0,0.0,1.0,-0.215478149414,-0.675164868164,10.2567599121,1.0,0.0,0.0,0.0,1.0,0.0,0.0,0.0,1.0
1464970733724895727,432,1464970733721347404,,5.61455917358,-3.650359869,-155.508758545,0.00112200004514,1.0,0.0,0.0,0.0,1.0,0.0,0.0,0.0,1.0,0.0,0.12195122242,-0.0609756112099,1.0,0.0,0.0,0.0,1.0,0.0,0.0,0.0,1.0,-0.244208569336,-0.804451757813,10.165780249,1.0,0.0,0.0,0.0,1.0,0.0,0.0,0.0,1.0
1464970733743958745,433,1464970733741866094,,5.57019710541,-3.65055251122,-155.523284912,0.00104899995495,1.0,0.0,0.0,0.0,1.0,0.0,0.0,0.0,1.0,0.0,-0.975609779358,-0.548780500889,1.0,0.0,0.0,0.0,1.0,0.0,0.0,0.0,1.0,-0.148440512063,-0.780509741211,10.2136642822,1.0,0.0,0.0,0.0,1.0,0.0,0.0,0.0,1.0
1464970733765317485,434,1464970733763286970,,5.50664615631,-3.64184641838,-155.530532837,0.00158799998462,1.0,0.0,0.0,0.0,1.0,0.0,0.0,0.0,1.0,0.0609756112099,-0.243902444839,0.243902444839,1.0,0.0,0.0,0.0,1.0,0.0,0.0,0.0,1.0,-0.0335188255255,-0.646434448242,10.2519715088,1.0,0.0,0.0,0.0,1.0,0.0,0.0,0.0,1.0
1464970733786301695,435,1464970733784205868,,5.45545530319,-3.62786626816,-155.525360107,0.00101300003007,1.0,0.0,0.0,0.0,1.0,0.0,0.0,0.0,1.0,0.0609756112099,0.792682945728,0.243902444839,1.0,0.0,0.0,0.0,1.0,0.0,0.0,0.0,1.0,-0.0239420166016,-0.699106884766,10.3908352051,1.0,0.0,0.0,0.0,1.0,0.0,0.0,0.0,1.0
1464970733808743245,436,1464970733805064870,,5.41854429245,-3.62352132797,-155.540527344,0.00113900005817,1.0,0.0,0.0,0.0,1.0,0.0,0.0,0.0,1.0,0.0,0.670731723309,-1.09756100178,1.0,0.0,0.0,0.0,1.0,0.0,0.0,0.0,1.0,-0.076614453125,-0.689530078125,10.2232410889,1.0,0.0,0.0,0.0,1.0,0.0,0.0,0.0,1.0
1464970733835930719,437,1464970733826236892,,5.38399791718,-3.62978219986,-155.561828613,0.00100399996154,1.0,0.0,0.0,0.0,1.0,0.0,0.0,0.0,1.0,-0.548780500889,1.2804877758,-0.304878056049,1.0,0.0,0.0,0.0,1.0,0.0,0.0,0.0,1.0,0.0335188255255,-0.751779321289,10.2902787354,1.0,0.0,0.0,0.0,1.0,0.0,0.0,0.0,1.0
1464970733853809104,438,1464970733847422456,,5.37130689621,-3.63485240936,-155.562164307,0.00100100005511,1.0,0.0,0.0,0.0,1.0,0.0,0.0,0.0,1.0,-0.426829278469,1.40243899822,0.731707334518,1.0,0.0,0.0,0.0,1.0,0.0,0.0,0.0,1.0,-0.0861912597656,-0.708683691406,10.3046439453,1.0,0.0,0.0,0.0,1.0,0.0,0.0,0.0,1.0
1464970733875990134,439,1464970733869289060,,5.35960149765,-3.64592075348,-155.575134277,0.00100499996915,1.0,0.0,0.0,0.0,1.0,0.0,0.0,0.0,1.0,-0.731707334518,0.731707334518,-0.914634168148,1.0,0.0,0.0,0.0,1.0,0.0,0.0,0.0,1.0,-0.076614453125,-0.818816967773,10.1705686523,1.0,0.0,0.0,0.0,1.0,0.0,0.0,0.0,1.0
1464970733900401730,440,1464970733889748219,,5.33689641953,-3.66574382782,-155.607635498,0.00130100001115,1.0,0.0,0.0,0.0,1.0,0.0,0.0,0.0,1.0,-0.487804889679,0.12195122242,-1.15853655338,1.0,0.0,0.0,0.0,1.0,0.0,0.0,0.0,1.0,-0.162805712891,-0.799663354492,10.1418382324,1.0,0.0,0.0,0.0,1.0,0.0,0.0,0.0,1.0
1464970733915404031,441,1464970733912265290,,5.30967378616,-3.66057705879,-155.616378784,0.00209000008181,1.0,0.0,0.0,0.0,1.0,0.0,0.0,0.0,1.0,-0.426829278469,-0.487804889679,0.243902444839,1.0,0.0,0.0,0.0,1.0,0.0,0.0,0.0,1.0,-0.234631762695,-0.646434448242,10.1418382324,1.0,0.0,0.0,0.0,1.0,0.0,0.0,0.0,1.0
1464970733937536675,442,1464970733933316271,,5.25884485245,-3.63309216499,-155.6068573,0.00254700006917,1.0,0.0,0.0,0.0,1.0,0.0,0.0,0.0,1.0,-0.0609756112099,0.243902444839,0.914634168148,1.0,0.0,0.0,0.0,1.0,0.0,0.0,0.0,1.0,0.0430956298828,-0.493205541992,10.1370498291,1.0,0.0,0.0,0.0,1.0,0.0,0.0,0.0,1.0
1464970733960658848,443,1464970733956656412,,5.20403909683,-3.60960483551,-155.598403931,0.00488999998197,1.0,0.0,0.0,0.0,1.0,0.0,0.0,0.0,1.0,0.0609756112099,1.52439022064,0.304878056049,1.0,0.0,0.0,0.0,1.0,0.0,0.0,0.0,1.0,0.181959326172,-0.622492431641,10.180145459,1.0,0.0,0.0,0.0,1.0,0.0,0.0,0.0,1.0
1464970733981037904,444,1464970733977667497,,5.17674875259,-3.60314202309,-155.600509644,0.00608299998567,1.0,0.0,0.0,0.0,1.0,0.0,0.0,0.0,1.0,-0.0609756112099,3.35365867615,0.426829278469,1.0,0.0,0.0,0.0,1.0,0.0,0.0,0.0,1.0,0.239420166016,-0.814028564453,10.2711251221,1.0,0.0,0.0,0.0,1.0,0.0,0.0,0.0,1.0
1464970734001296595,445,1464970733998586499,,5.19234895706,-3.59617471695,-155.596908569,0.00132799998391,1.0,0.0,0.0,0.0,1.0,0.0,0.0,0.0,1.0,0.426829278469,4.93902444839,0.426829278469,1.0,0.0,0.0,0.0,1.0,0.0,0.0,0.0,1.0,0.138863696289,-0.708683691406,10.2376062988,1.0,0.0,0.0,0.0,1.0,0.0,0.0,0.0,1.0
1464970734023486167,446,1464970734021292527,,5.24336004257,-3.595246315,-155.617401123,0.00510999979451,1.0,0.0,0.0,0.0,1.0,0.0,0.0,0.0,1.0,-0.0609756112099,5.79268312454,-0.853658556938,1.0,0.0,0.0,0.0,1.0,0.0,0.0,0.0,1.0,0.0718260498047,-0.77093293457,10.4387192383,1.0,0.0,0.0,0.0,1.0,0.0,0.0,0.0,1.0
1464970734043636317,447,1464970734041444865,,5.33127164841,-3.61439585686,-155.650100708,0.00169699999969,1.0,0.0,0.0,0.0,1.0,0.0,0.0,0.0,1.0,-0.243902444839,6.15853643417,-0.792682945728,1.0,0.0,0.0,0.0,1.0,0.0,0.0,0.0,1.0,-0.205901342773,-0.881066210937,10.2807019287,1.0,0.0,0.0,0.0,1.0,0.0,0.0,0.0,1.0
1464970734063944123,448,1464970734062047409,,5.42314577103,-3.63642120361,-155.681381226,0.00198900001124,1.0,0.0,0.0,0.0,1.0,0.0,0.0,0.0,1.0,-0.18292683363,4.57317066193,-0.975609779358,1.0,0.0,0.0,0.0,1.0,0.0,0.0,0.0,1.0,-0.359130249023,-0.833182177734,10.2136642822,1.0,0.0,0.0,0.0,1.0,0.0,0.0,0.0,1.0
1464970734083827711,449,1464970734082229434,,5.48171043396,-3.63919138908,-155.698242188,0.000966000021435,1.0,0.0,0.0,0.0,1.0,0.0,0.0,0.0,1.0,-0.426829278469,4.45121955872,0.304878056049,1.0,0.0,0.0,0.0,1.0,0.0,0.0,0.0,1.0,-0.119710083008,-0.737414111328,10.0891657959,1.0,0.0,0.0,0.0,1.0,0.0,0.0,0.0,1.0
1464970734105188952,450,1464970734103565623,,5.54808282852,-3.63607048988,-155.694061279,0.000962999998592,1.0,0.0,0.0,0.0,1.0,0.0,0.0,0.0,1.0,-0.670731723309,4.20731735229,0.792682945728,1.0,0.0,0.0,0.0,1.0,0.0,0.0,0.0,1.0,-0.263362164351,-0.651222851562,10.1897222656,1.0,0.0,0.0,0.0,1.0,0.0,0.0,0.0,1.0
1464970734126252068,451,1464970734124657333,,5.59984922409,-3.64641404152,-155.714950562,0.00100699998438,1.0,0.0,0.0,0.0,1.0,0.0,0.0,0.0,1.0,-0.670731723309,2.37804889679,-1.03658533096,1.0,0.0,0.0,0.0,1.0,0.0,0.0,0.0,1.0,-0.445321508789,-0.713472094727,10.1514150391,1.0,0.0,0.0,0.0,1.0,0.0,0.0,0.0,1.0
1464970734148481222,452,1464970734146033417,,5.61257457733,-3.65016460419,-155.739456177,0.00102199998219,1.0,0.0,0.0,0.0,1.0,0.0,0.0,0.0,1.0,-0.18292683363,1.2804877758,-0.18292683363,1.0,0.0,0.0,0.0,1.0,0.0,0.0,0.0,1.0,-0.201112939453,-0.622492431641,10.0029745361,1.0,0.0,0.0,0.0,1.0,0.0,0.0,0.0,1.0
1464970734171536520,453,1464970734166654451,,5.60462427139,-3.63675832748,-155.742675781,0.000973000016529,1.0,0.0,0.0,0.0,1.0,0.0,0.0,0.0,1.0,0.0609756112099,0.731707334518,0.304878056049,1.0,0.0,0.0,0.0,1.0,0.0,0.0,0.0,1.0,-0.205901342773,-0.541089611728,10.1562034424,1.0,0.0,0.0,0.0,1.0,0.0,0.0,0.0,1.0
1464970734190436830,454,1464970734187997358,,5.56738376617,-3.61177897453,-155.748306274,0.0010529999854,1.0,0.0,0.0,0.0,1.0,0.0,0.0,0.0,1.0,0.12195122242,-0.365853667259,-0.426829278469,1.0,0.0,0.0,0.0,1.0,0.0,0.0,0.0,1.0,-0.191536132812,-0.574608398438,10.1514150391,1.0,0.0,0.0,0.0,1.0,0.0,0.0,0.0,1.0
1464970734216939983,455,1464970734209119224,,5.51822900772,-3.60681295395,-155.761962891,0.000973000016529,1.0,0.0,0.0,0.0,1.0,0.0,0.0,0.0,1.0,0.0609756112099,-1.09756100178,0.0609756112099,1.0,0.0,0.0,0.0,1.0,0.0,0.0,0.0,1.0,-0.272938989258,-0.636857641602,10.3333743652,1.0,0.0,0.0,0.0,1.0,0.0,0.0,0.0,1.0
1464970734238848618,456,1464970734230282392,,5.4540309906,-3.60610318184,-155.763381958,0.00164200004656,1.0,0.0,0.0,0.0,1.0,0.0,0.0,0.0,1.0,-0.12195122242,-1.2195122242,0.548780500889,1.0,0.0,0.0,0.0,1.0,0.0,0.0,0.0,1.0,-0.148440512063,-0.713472094727,10.1083194092,1.0,0.0,0.0,0.0,1.0,0.0,0.0,0.0,1.0
1464970734254767999,457,1464970734250798739,,5.38456630707,-3.59616518021,-155.750961304,0.00104799994733,1.0,0.0,0.0,0.0,1.0,0.0,0.0,0.0,1.0,0.0,0.487804889679,1.03658533096,1.0,0.0,0.0,0.0,1.0,0.0,0.0,0.0,1.0,0.234631762695,-0.641646044922,10.2902787354,1.0,0.0,0.0,0.0,1.0,0.0,0.0,0.0,1.0
1464970734278007098,458,1464970734271683106,,5.33388185501,-3.59186220169,-155.738723755,0.00115300004836,1.0,0.0,0.0,0.0,1.0,0.0,0.0,0.0,1.0,0.0609756112099,2.43902444839,0.426829278469,1.0,0.0,0.0,0.0,1.0,0.0,0.0,0.0,1.0,0.225054956055,-0.651222851562,10.419565625,1.0,0.0,0.0,0.0,1.0,0.0,0.0,0.0,1.0
1464970734300571929,459,1464970734295921057,,5.31648635864,-3.60179829597,-155.754440308,0.00150500005111,1.0,0.0,0.0,0.0,1.0,0.0,0.0,0.0,1.0,-0.18292683363,1.95121955872,-1.34146344662,1.0,0.0,0.0,0.0,1.0,0.0,0.0,0.0,1.0,-0.0526724365234,-0.847547387695,10.1418382324,1.0,0.0,0.0,0.0,1.0,0.0,0.0,0.0,1.0
1464970734320743537,460,1464970734316762664,,5.31364679337,-3.61812353134,-155.795562744,0.00277799996547,1.0,0.0,0.0,0.0,1.0,0.0,0.0,0.0,1.0,0.243902444839,2.07317066193,-0.670731723309,1.0,0.0,0.0,0.0,1.0,0.0,0.0,0.0,1.0,-0.0957680664062,-0.790086547852,10.0939541992,1.0,0.0,0.0,0.0,1.0,0.0,0.0,0.0,1.0
1464970734342542850,461,1464970734337120574,,5.32795286179,-3.61940002441,-155.801818848,0.00372999999672,1.0,0.0,0.0,0.0,1.0,0.0,0.0,0.0,1.0,0.487804889679,3.10975623131,0.243902444839,1.0,0.0,0.0,0.0,1.0,0.0,0.0,0.0,1.0,-0.0335188255255,-0.713472094727,10.1705686523,1.0,0.0,0.0,0.0,1.0,0.0,0.0,0.0,1.0
1464970734362769093,462,1464970734358731865,,5.34149122238,-3.61628890038,-155.805969238,0.00162600004114,1.0,0.0,0.0,0.0,1.0,0.0,0.0,0.0,1.0,-0.0609756112099,3.35365867615,0.0,1.0,0.0,0.0,0.0,1.0,0.0,0.0,0.0,1.0,0.0239420166016,-0.785298144531,10.2950671387,1.0,0.0,0.0,0.0,1.0,0.0,0.0,0.0,1.0
1464970734382807994,463,1464970734379855190,,5.36116743088,-3.61607718468,-155.818939209,0.00113700004295,1.0,0.0,0.0,0.0,1.0,0.0,0.0,0.0,1.0,-0.0609756112099,3.23170733452,-0.548780500889,1.0,0.0,0.0,0.0,1.0,0.0,0.0,0.0,1.0,-0.114921679688,-0.723048901367,10.1418382324,1.0,0.0,0.0,0.0,1.0,0.0,0.0,0.0,1.0
1464970734402726895,464,1464970734400046954,,5.39256811142,-3.61896300316,-155.844955444,0.0026769998949,1.0,0.0,0.0,0.0,1.0,0.0,0.0,0.0,1.0,-0.365853667259,3.47560977936,-0.670731723309,1.0,0.0,0.0,0.0,1.0,0.0,0.0,0.0,1.0,-0.138863696289,-0.670376464844,10.2088758789,1.0,0.0,0.0,0.0,1.0,0.0,0.0,0.0,1.0
1464970734424268447,465,1464970734421869079,,5.42889785767,-3.61896800995,-155.849960327,0.00205800007097,1.0,0.0,0.0,0.0,1.0,0.0,0.0,0.0,1.0,-0.426829278469,3.71951246262,0.609756112099,1.0,0.0,0.0,0.0,1.0,0.0,0.0,0.0,1.0,-0.067037651051,-0.708683691406,10.2902787354,1.0,0.0,0.0,0.0,1.0,0.0,0.0,0.0,1.0
1464970734445046512,466,1464970734442429019,,5.46604442596,-3.62215971947,-155.85786438,0.00114499998745,1.0,0.0,0.0,0.0,1.0,0.0,0.0,0.0,1.0,0.0,3.47560977936,-0.243902444839,1.0,0.0,0.0,0.0,1.0,0.0,0.0,0.0,1.0,-0.129286889648,-0.756567724609,10.3046439453,1.0,0.0,0.0,0.0,1.0,0.0,0.0,0.0,1.0
1464970734465963483,467,1464970734463420678,,5.4904127121,-3.62957000732,-155.883056641,0.00105099997018,1.0,0.0,0.0,0.0,1.0,0.0,0.0,0.0,1.0,-0.243902444839,2.86585378647,-0.731707334518,1.0,0.0,0.0,0.0,1.0,0.0,0.0,0.0,1.0,-0.143652099609,-0.737414111328,10.1274730225,1.0,0.0,0.0,0.0,1.0,0.0,0.0,0.0,1.0
1464970734486648996,468,1464970734483883848,,5.51135396957,-3.62473082542,-155.896911621,0.00107799994294,1.0,0.0,0.0,0.0,1.0,0.0,0.0,0.0,1.0,-0.304878056049,2.92682933807,0.12195122242,1.0,0.0,0.0,0.0,1.0,0.0,0.0,0.0,1.0,-0.076614453125,-0.560243188477,10.1945106689,1.0,0.0,0.0,0.0,1.0,0.0,0.0,0.0,1.0
1464970734507415759,469,1464970734504605559,,5.53460550308,-3.61993718147,-155.898834229,0.00103499996476,1.0,0.0,0.0,0.0,1.0,0.0,0.0,0.0,1.0,-0.18292683363,3.23170733452,0.426829278469,1.0,0.0,0.0,0.0,1.0,0.0,0.0,0.0,1.0,-0.105344873047,-0.723048901367,10.2232410889,1.0,0.0,0.0,0.0,1.0,0.0,0.0,0.0,1.0
1464970734531016680,470,1464970734526055445,,5.55453538895,-3.63275289536,-155.908935547,0.00106499996036,1.0,0.0,0.0,0.0,1.0,0.0,0.0,0.0,1.0,-0.548780500889,3.29268312454,-0.304878056049,1.0,0.0,0.0,0.0,1.0,0.0,0.0,0.0,1.0,-0.15322890625,-0.818816967773,10.1609918457,1.0,0.0,0.0,0.0,1.0,0.0,0.0,0.0,1.0
1464970734548860066,471,1464970734546678302,,5.57919359207,-3.63403105736,-155.931472778,0.00105900003109,1.0,0.0,0.0,0.0,1.0,0.0,0.0,0.0,1.0,0.0609756112099,3.04878044128,-0.670731723309,1.0,0.0,0.0,0.0,1.0,0.0,0.0,0.0,1.0,-0.282515795898,-0.651222851562,10.2040874756,1.0,0.0,0.0,0.0,1.0,0.0,0.0,0.0,1.0
1464970734569360059,472,1464970734567050014,,5.60905361176,-3.61969399452,-155.943435669,0.00110100000165,1.0,0.0,0.0,0.0,1.0,0.0,0.0,0.0,1.0,0.0,3.29268312454,0.0,1.0,0.0,0.0,0.0,1.0,0.0,0.0,0.0,1.0,-0.225054956055,-0.574608398438,10.1178962158,1.0,0.0,0.0,0.0,1.0,0.0,0.0,0.0,1.0
1464970734592583378,473,1464970734588446046,,5.64455795288,-3.62919640541,-155.952896118,0.00265799998306,1.0,0.0,0.0,0.0,1.0,0.0,0.0,0.0,1.0,-0.365853667259,2.80487799644,-0.365853667259,1.0,0.0,0.0,0.0,1.0,0.0,0.0,0.0,1.0,-0.330399829102,-0.76135612793,10.1992990723,1.0,0.0,0.0,0.0,1.0,0.0,0.0,0.0,1.0
1464970734613036912,474,1464970734609865151,,5.66031455994,-3.63778614998,-155.97694397,0.00118899997324,1.0,0.0,0.0,0.0,1.0,0.0,0.0,0.0,1.0,-0.304878056049,1.64634156227,-1.15853655338,1.0,0.0,0.0,0.0,1.0,0.0,0.0,0.0,1.0,-0.253785375977,-0.751779321289,10.2519715088,1.0,0.0,0.0,0.0,1.0,0.0,0.0,0.0,1.0
1464970734641465632,475,1464970734631199047,,5.65445184708,-3.63160228729,-155.99230957,0.00101999996696,1.0,0.0,0.0,0.0,1.0,0.0,0.0,0.0,1.0,-0.0609756112099,1.34146344662,-0.18292683363,1.0,0.0,0.0,0.0,1.0,0.0,0.0,0.0,1.0,-0.201112939453,-0.60812722168,10.1945106689,1.0,0.0,0.0,0.0,1.0,0.0,0.0,0.0,1.0
1464970734656506474,476,1464970734652128049,,5.64735555649,-3.61806893349,-155.988418579,0.00214600004256,1.0,0.0,0.0,0.0,1.0,0.0,0.0,0.0,1.0,-0.18292683363,1.8292683363,0.548780500889,1.0,0.0,0.0,0.0,1.0,0.0,0.0,0.0,1.0,-0.119710083008,-0.612915625,10.1466266357,1.0,0.0,0.0,0.0,1.0,0.0,0.0,0.0,1.0
1464970734677628861,477,1464970734673772779,,5.62378501892,-3.61366057396,-155.996063232,0.0012450000504,1.0,0.0,0.0,0.0,1.0,0.0,0.0,0.0,1.0,-0.243902444839,1.58536589146,-0.304878056049,1.0,0.0,0.0,0.0,1.0,0.0,0.0,0.0,1.0,0.0383072265625,-0.814028564453,10.2759135254,1.0,0.0,0.0,0.0,1.0,0.0,0.0,0.0,1.0
1464970734696055318,478,1464970734694251261,,5.6030254364,-3.61276006699,-156.014663696,0.00127799995244,1.0,0.0,0.0,0.0,1.0,0.0,0.0,0.0,1.0,-0.18292683363,2.13414645195,-0.487804889679,1.0,0.0,0.0,0.0,1.0,0.0,0.0,0.0,1.0,0.0430956298828,-0.76614453125,9.99818613281,1.0,0.0,0.0,0.0,1.0,0.0,0.0,0.0,1.0
1464970734717467861,479,1464970734715441356,,5.60495042801,-3.60608649254,-156.021331787,0.00119099998847,1.0,0.0,0.0,0.0,1.0,0.0,0.0,0.0,1.0,-0.243902444839,3.17073178291,-0.0609756112099,1.0,0.0,0.0,0.0,1.0,0.0,0.0,0.0,1.0,-0.100556469727,-0.708683691406,10.2328178955,1.0,0.0,0.0,0.0,1.0,0.0,0.0,0.0,1.0
1464970734739189413,480,1464970734736872336,,5.62883043289,-3.61059546471,-156.038742065,0.00121400004718,1.0,0.0,0.0,0.0,1.0,0.0,0.0,0.0,1.0,-0.365853667259,3.04878044128,-0.548780500889,1.0,0.0,0.0,0.0,1.0,0.0,0.0,0.0,1.0,-0.181959326172,-0.775721337891,10.3237975586,1.0,0.0,0.0,0.0,1.0,0.0,0.0,0.0,1.0
1464970734760941329,481,1464970734758690450,,5.64985466003,-3.62600755692,-156.056228638,0.00125199998729,1.0,0.0,0.0,0.0,1.0,0.0,0.0,0.0,1.0,-0.426829278469,3.71951246262,0.243902444839,1.0,0.0,0.0,0.0,1.0,0.0,0.0,0.0,1.0,-0.129286889648,-0.828393774414,10.1466266357,1.0,0.0,0.0,0.0,1.0,0.0,0.0,0.0,1.0
1464970734781801165,482,1464970734779599713,,5.68162631989,-3.62845420837,-156.064697266,0.00114099995699,1.0,0.0,0.0,0.0,1.0,0.0,0.0,0.0,1.0,-0.18292683363,3.84146332741,-0.0609756112099,1.0,0.0,0.0,0.0,1.0,0.0,0.0,0.0,1.0,-0.100556469727,-0.76614453125,10.165780249,1.0,0.0,0.0,0.0,1.0,0.0,0.0,0.0,1.0
1464970734802660115,483,1464970734800121632,,5.71253204346,-3.62643718719,-156.081283569,0.00149900000542,1.0,0.0,0.0,0.0,1.0,0.0,0.0,0.0,1.0,-0.12195122242,2.62195134163,-0.792682945728,1.0,0.0,0.0,0.0,1.0,0.0,0.0,0.0,1.0,-0.277727392578,-0.732625708008,10.2232410889,1.0,0.0,0.0,0.0,1.0,0.0,0.0,0.0,1.0
1464970734823387659,484,1464970734821020791,,5.73429393768,-3.62665915489,-156.106384277,0.00115200004075,1.0,0.0,0.0,0.0,1.0,0.0,0.0,0.0,1.0,-0.243902444839,1.8292683363,-0.670731723309,1.0,0.0,0.0,0.0,1.0,0.0,0.0,0.0,1.0,-0.253785375977,-0.703895288086,10.2232410889,1.0,0.0,0.0,0.0,1.0,0.0,0.0,0.0,1.0
1464970734844427390,485,1464970734841532659,,5.74243211746,-3.62380409241,-156.11946106,0.00134800001979,1.0,0.0,0.0,0.0,1.0,0.0,0.0,0.0,1.0,-0.243902444839,1.95121955872,0.243902444839,1.0,0.0,0.0,0.0,1.0,0.0,0.0,0.0,1.0,-0.268150604204,-0.670376464844,10.3285859619,1.0,0.0,0.0,0.0,1.0,0.0,0.0,0.0,1.0
1464970734865063372,486,1464970734862614785,,5.74434566498,-3.61392784119,-156.114120483,0.00142800004687,1.0,0.0,0.0,0.0,1.0,0.0,0.0,0.0,1.0,-0.243902444839,1.64634156227,0.304878056049,1.0,0.0,0.0,0.0,1.0,0.0,0.0,0.0,1.0,-0.258573779297,-0.732625708008,10.3237975586,1.0,0.0,0.0,0.0,1.0,0.0,0.0,0.0,1.0
1464970734886970653,487,1464970734884207275,,5.73757982254,-3.62043356895,-156.13168335,0.0011419999646,1.0,0.0,0.0,0.0,1.0,0.0,0.0,0.0,1.0,-0.304878056049,0.12195122242,-1.2804877758,1.0,0.0,0.0,0.0,1.0,0.0,0.0,0.0,1.0,-0.272938989258,-0.785298144531,10.2280294922,1.0,0.0,0.0,0.0,1.0,0.0,0.0,0.0,1.0
1464970734907892415,488,1464970734904819611,,5.70851039886,-3.62926125526,-156.15914917,0.000969999993686,1.0,0.0,0.0,0.0,1.0,0.0,0.0,0.0,1.0,-0.243902444839,0.0,-0.487804889679,1.0,0.0,0.0,0.0,1.0,0.0,0.0,0.0,1.0,-0.330399829102,-0.751779321289,10.0939541992,1.0,0.0,0.0,0.0,1.0,0.0,0.0,0.0,1.0
1464970734928246002,489,1464970734925633874,,5.67854452133,-3.61564040184,-156.155502319,0.00102600001264,1.0,0.0,0.0,0.0,1.0,0.0,0.0,0.0,1.0,-0.0609756112099,-0.243902444839,0.304878056049,1.0,0.0,0.0,0.0,1.0,0.0,0.0,0.0,1.0,-0.220266552734,-0.560243188477,10.1609918457,1.0,0.0,0.0,0.0,1.0,0.0,0.0,0.0,1.0
1464970734949846565,490,1464970734946980740,,5.62517261505,-3.6056997776,-156.158050537,0.00112200004514,1.0,0.0,0.0,0.0,1.0,0.0,0.0,0.0,1.0,0.0,-0.792682945728,-0.426829278469,1.0,0.0,0.0,0.0,1.0,0.0,0.0,0.0,1.0,-0.105344873047,-0.646434448242,10.1178962158,1.0,0.0,0.0,0.0,1.0,0.0,0.0,0.0,1.0
1464970734973912224,491,1464970734967824325,,5.55628156662,-3.60442566872,-156.171722412,0.00227800011635,1.0,0.0,0.0,0.0,1.0,0.0,0.0,0.0,1.0,-0.0609756112099,-1.2804877758,-0.609756112099,1.0,0.0,0.0,0.0,1.0,0.0,0.0,0.0,1.0,-0.124498486328,-0.751779321289,10.3237975586,1.0,0.0,0.0,0.0,1.0,0.0,0.0,0.0,1.0
1464970734994424040,492,1464970734988971296,,5.49107456207,-3.60557436943,-156.184356689,0.00113300001249,1.0,0.0,0.0,0.0,1.0,0.0,0.0,0.0,1.0,-0.12195122242,-0.670731723309,-0.0609756112099,1.0,0.0,0.0,0.0,1.0,0.0,0.0,0.0,1.0,-0.0814028564453,-0.665588061523,10.3094323486,1.0,0.0,0.0,0.0,1.0,0.0,0.0,0.0,1.0
1464970735020240945,493,1464970735010327432,,5.42951440811,-3.60016179085,-156.179443359,0.00132100004703,1.0,0.0,0.0,0.0,1.0,0.0,0.0,0.0,1.0,-0.0609756112099,0.975609779358,0.792682945728,1.0,0.0,0.0,0.0,1.0,0.0,0.0,0.0,1.0,0.15801730957,-0.684741674805,10.2423947021,1.0,0.0,0.0,0.0,1.0,0.0,0.0,0.0,1.0
1464970735042963223,494,1464970735031231121,,5.39621210098,-3.60407519341,-156.182373047,0.00106999999844,1.0,0.0,0.0,0.0,1.0,0.0,0.0,0.0,1.0,-0.18292683363,2.13414645195,-0.548780500889,1.0,0.0,0.0,0.0,1.0,0.0,0.0,0.0,1.0,0.0,-0.732625708008,10.2519715088,1.0,0.0,0.0,0.0,1.0,0.0,0.0,0.0,1.0
1464970735064694827,495,1464970735051989864,,5.38006544113,-3.61683130264,-156.216094971,0.00104899995495,1.0,0.0,0.0,0.0,1.0,0.0,0.0,0.0,1.0,-0.365853667259,2.19512200356,-1.46341466904,1.0,0.0,0.0,0.0,1.0,0.0,0.0,0.0,1.0,-0.0814028564453,-0.742202514648,10.180145459,1.0,0.0,0.0,0.0,1.0,0.0,0.0,0.0,1.0
1464970735076425522,496,1464970735073201990,,5.38949966431,-3.62300038338,-156.235626221,0.00116400001571,1.0,0.0,0.0,0.0,1.0,0.0,0.0,0.0,1.0,-0.243902444839,2.80487799644,0.18292683363,1.0,0.0,0.0,0.0,1.0,0.0,0.0,0.0,1.0,-0.0622492431641,-0.756567724609,10.1992990723,1.0,0.0,0.0,0.0,1.0,0.0,0.0,0.0,1.0
1464970735101973678,497,1464970735093981982,,5.40591669083,-3.61974024773,-156.231307983,0.00123399996664,1.0,0.0,0.0,0.0,1.0,0.0,0.0,0.0,1.0,-0.426829278469,3.59756112099,0.609756112099,1.0,0.0,0.0,0.0,1.0,0.0,0.0,0.0,1.0,0.0143652099609,-0.699106884766,10.2040874756,1.0,0.0,0.0,0.0,1.0,0.0,0.0,0.0,1.0
1464970735118686806,498,1464970735115209421,,5.42402124405,-3.61950469017,-156.236495972,0.0012150000548,1.0,0.0,0.0,0.0,1.0,0.0,0.0,0.0,1.0,-0.12195122242,3.59756112099,-0.426829278469,1.0,0.0,0.0,0.0,1.0,0.0,0.0,0.0,1.0,-0.0526724365234,-0.665588061523,10.1609918457,1.0,0.0,0.0,0.0,1.0,0.0,0.0,0.0,1.0
1464970735138432479,499,1464970735136133944,,5.44629859924,-3.6207575798,-156.268844604,0.00117800000589,1.0,0.0,0.0,0.0,1.0,0.0,0.0,0.0,1.0,-0.12195122242,2.92682933807,-1.46341466904,1.0,0.0,0.0,0.0,1.0,0.0,0.0,0.0,1.0,-0.263362164351,-0.675164868164,10.1131078125,1.0,0.0,0.0,0.0,1.0,0.0,0.0,0.0,1.0
1464970735163859541,500,1464970735156790186,,5.47920227051,-3.60930514336,-156.288208008,0.00109300005715,1.0,0.0,0.0,0.0,1.0,0.0,0.0,0.0,1.0,0.0,3.04878044128,0.0609756112099,1.0,0.0,0.0,0.0,1.0,0.0,0.0,0.0,1.0,-0.15801730957,-0.550666381836,10.3190091553,1.0,0.0,0.0,0.0,1.0,0.0,0.0,0.0,1.0
1464970735184539012,501,1464970735177806792,,5.51779985428,-3.59523200989,-156.283279419,0.00102399999741,1.0,0.0,0.0,0.0,1.0,0.0,0.0,0.0,1.0,0.18292683363,3.04878044128,0.426829278469,1.0,0.0,0.0,0.0,1.0,0.0,0.0,0.0,1.0,-0.253785375977,-0.627280834961,10.1466266357,1.0,0.0,0.0,0.0,1.0,0.0,0.0,0.0,1.0
1464970735205883378,502,1464970735199042876,,5.53843259811,-3.59437799454,-156.297912598,0.00115100003313,1.0,0.0,0.0,0.0,1.0,0.0,0.0,0.0,1.0,-0.18292683363,1.58536589146,-0.731707334518,1.0,0.0,0.0,0.0,1.0,0.0,0.0,0.0,1.0,-0.287304199219,-0.785298144531,10.2759135254,1.0,0.0,0.0,0.0,1.0,0.0,0.0,0.0,1.0
1464970735223481139,503,1464970735219315110,,5.5402135849,-3.59797525406,-156.315887451,0.00120699999388,1.0,0.0,0.0,0.0,1.0,0.0,0.0,0.0,1.0,-0.243902444839,1.76829278469,0.0,1.0,0.0,0.0,0.0,1.0,0.0,0.0,0.0,1.0,-0.239420166016,-0.723048901367,10.1274730225,1.0,0.0,0.0,0.0,1.0,0.0,0.0,0.0,1.0
1464970735244264152,504,1464970735240326976,,5.53745937347,-3.5952706337,-156.317474365,0.00101200002246,1.0,0.0,0.0,0.0,1.0,0.0,0.0,0.0,1.0,0.0609756112099,2.07317066193,0.365853667259,1.0,0.0,0.0,0.0,1.0,0.0,0.0,0.0,1.0,-0.00478840332031,-0.718260498047,10.1609918457,1.0,0.0,0.0,0.0,1.0,0.0,0.0,0.0,1.0
1464970735264512427,505,1464970735261225457,,5.53277254105,-3.59653973579,-156.322891235,0.00114499998745,1.0,0.0,0.0,0.0,1.0,0.0,0.0,0.0,1.0,-0.243902444839,1.95121955872,-0.0609756112099,1.0,0.0,0.0,0.0,1.0,0.0,0.0,0.0,1.0,-0.129286889648,-0.77093293457,10.2807019287,1.0,0.0,0.0,0.0,1.0,0.0,0.0,0.0,1.0
1464970735285411638,506,1464970735282079199,,5.53104972839,-3.61605405807,-156.350326538,0.000976999988779,1.0,0.0,0.0,0.0,1.0,0.0,0.0,0.0,1.0,-0.0609756112099,1.70731711388,-1.40243899822,1.0,0.0,0.0,0.0,1.0,0.0,0.0,0.0,1.0,-0.239420166016,-0.900219824219,10.1562034424,1.0,0.0,0.0,0.0,1.0,0.0,0.0,0.0,1.0
1464970735305607621,507,1464970735302735025,,5.53314781189,-3.62120723724,-156.370315552,0.000973000016529,1.0,0.0,0.0,0.0,1.0,0.0,0.0,0.0,1.0,-0.548780500889,1.46341466904,-0.12195122242,1.0,0.0,0.0,0.0,1.0,0.0,0.0,0.0,1.0,-0.205901342773,-0.651222851562,10.1753570557,1.0,0.0,0.0,0.0,1.0,0.0,0.0,0.0,1.0
1464970735327566255,508,1464970735323928870,,5.52957725525,-3.61308836937,-156.367324829,0.00109499995597,1.0,0.0,0.0,0.0,1.0,0.0,0.0,0.0,1.0,-0.304878056049,1.2804877758,0.365853667259,1.0,0.0,0.0,0.0,1.0,0.0,0.0,0.0,1.0,-0.196324536133,-0.694318481445,10.1370498291,1.0,0.0,0.0,0.0,1.0,0.0,0.0,0.0,1.0
1464970735348673642,509,1464970735345141257,,5.50998783112,-3.60418915749,-156.374710083,0.000988999963738,1.0,0.0,0.0,0.0,1.0,0.0,0.0,0.0,1.0,-0.12195122242,0.487804889679,-0.670731723309,1.0,0.0,0.0,0.0,1.0,0.0,0.0,0.0,1.0,-0.215478149414,-0.622492431641,10.2471831055,1.0,0.0,0.0,0.0,1.0,0.0,0.0,0.0,1.0
1464970735371784930,510,1464970735366301873,,5.47244405746,-3.59896755219,-156.394989014,0.00100100005511,1.0,0.0,0.0,0.0,1.0,0.0,0.0,0.0,1.0,-0.0609756112099,0.304878056049,-0.304878056049,1.0,0.0,0.0,0.0,1.0,0.0,0.0,0.0,1.0,-0.105344873047,-0.646434448242,10.2280294922,1.0,0.0,0.0,0.0,1.0,0.0,0.0,0.0,1.0
1464970735394179657,511,1464970735387430458,,5.44373846054,-3.59440803528,-156.399368286,0.000973000016529,1.0,0.0,0.0,0.0,1.0,0.0,0.0,0.0,1.0,-0.12195122242,0.731707334518,0.487804889679,1.0,0.0,0.0,0.0,1.0,0.0,0.0,0.0,1.0,-0.0957680664062,-0.694318481445,10.2232410889,1.0,0.0,0.0,0.0,1.0,0.0,0.0,0.0,1.0
1464970735413782465,512,1464970735407959930,,5.4205083847,-3.59854221344,-156.405838013,0.000966000021435,1.0,0.0,0.0,0.0,1.0,0.0,0.0,0.0,1.0,-0.304878056049,0.548780500889,-0.487804889679,1.0,0.0,0.0,0.0,1.0,0.0,0.0,0.0,1.0,-0.258573779297,-0.828393774414,10.1753570557,1.0,0.0,0.0,0.0,1.0,0.0,0.0,0.0,1.0
1464970735435518652,513,1464970735428612214,,5.39413118362,-3.61550664902,-156.433792114,0.000967999978457,1.0,0.0,0.0,0.0,1.0,0.0,0.0,0.0,1.0,-0.12195122242,-0.670731723309,-1.09756100178,1.0,0.0,0.0,0.0,1.0,0.0,0.0,0.0,1.0,-0.325611425781,-0.76135612793,10.2567599121,1.0,0.0,0.0,0.0,1.0,0.0,0.0,0.0,1.0
1464970735453310111,514,1464970735448954447,,5.35723352432,-3.61274981499,-156.449035645,0.000966000021435,1.0,0.0,0.0,0.0,1.0,0.0,0.0,0.0,1.0,-0.304878056049,-1.15853655338,-0.18292683363,1.0,0.0,0.0,0.0,1.0,0.0,0.0,0.0,1.0,-0.248996972656,-0.603338854892,10.1322614258,1.0,0.0,0.0,0.0,1.0,0.0,0.0,0.0,1.0
1464970735472036672,515,1464970735469544752,,5.30562448502,-3.59515213966,-156.444015503,0.00111499999184,1.0,0.0,0.0,0.0,1.0,0.0,0.0,0.0,1.0,0.18292683363,-1.70731711388,0.426829278469,1.0,0.0,0.0,0.0,1.0,0.0,0.0,0.0,1.0,-0.15801730957,-0.651222851562,10.1609918457,1.0,0.0,0.0,0.0,1.0,0.0,0.0,0.0,1.0
1464970735495581031,516,1464970735490988440,,5.22232675552,-3.58499741554,-156.441864014,0.0010300000431,1.0,0.0,0.0,0.0,1.0,0.0,0.0,0.0,1.0,0.0609756112099,-1.34146344662,-0.12195122242,1.0,0.0,0.0,0.0,1.0,0.0,0.0,0.0,1.0,0.210689746094,-0.708683691406,10.1418382324,1.0,0.0,0.0,0.0,1.0,0.0,0.0,0.0,1.0
1464970735519380181,517,1464970735511573328,,5.14237451553,-3.58446979523,-156.449783325,0.00105199997779,1.0,0.0,0.0,0.0,1.0,0.0,0.0,0.0,1.0,0.12195122242,-0.975609779358,-0.18292683363,1.0,0.0,0.0,0.0,1.0,0.0,0.0,0.0,1.0,0.0335188255255,-0.694318481445,10.2567599121,1.0,0.0,0.0,0.0,1.0,0.0,0.0,0.0,1.0
1464970735535244093,518,1464970735532575820,,5.06794834137,-3.57532477379,-156.465057373,0.000999000039883,1.0,0.0,0.0,0.0,1.0,0.0,0.0,0.0,1.0,-0.0609756112099,-0.304878056049,-0.670731723309,1.0,0.0,0.0,0.0,1.0,0.0,0.0,0.0,1.0,0.0814028564453,-0.713472094727,10.2759135254,1.0,0.0,0.0,0.0,1.0,0.0,0.0,0.0,1.0
1464970735557260176,519,1464970735553895289,,5.01099777222,-3.56492400169,-156.473434448,0.00114800001029,1.0,0.0,0.0,0.0,1.0,0.0,0.0,0.0,1.0,0.0609756112099,1.2804877758,0.0,1.0,0.0,0.0,0.0,1.0,0.0,0.0,0.0,1.0,0.196324536133,-0.699106884766,10.3429511719,1.0,0.0,0.0,0.0,1.0,0.0,0.0,0.0,1.0
1464970735578224073,520,1464970735575120176,,4.98294115067,-3.57397818565,-156.485717773,0.00118200003635,1.0,0.0,0.0,0.0,1.0,0.0,0.0,0.0,1.0,-0.426829278469,1.70731711388,-0.487804889679,1.0,0.0,0.0,0.0,1.0,0.0,0.0,0.0,1.0,0.0239420166016,-0.756567724609,10.2950671387,1.0,0.0,0.0,0.0,1.0,0.0,0.0,0.0,1.0
1464970735601161663,521,1464970735595680065,,4.97141981125,-3.58464479446,-156.509689331,0.00115499994718,1.0,0.0,0.0,0.0,1.0,0.0,0.0,0.0,1.0,-0.426829278469,2.19512200356,-0.914634168148,1.0,0.0,0.0,0.0,1.0,0.0,0.0,0.0,1.0,0.0430956298828,-0.790086547852,10.1992990723,1.0,0.0,0.0,0.0,1.0,0.0,0.0,0.0,1.0
1464970735622860142,522,1464970735616417453,,4.98061323166,-3.58580946922,-156.521408081,0.0012300000526,1.0,0.0,0.0,0.0,1.0,0.0,0.0,0.0,1.0,0.18292683363,2.25609779358,0.0,1.0,0.0,0.0,0.0,1.0,0.0,0.0,0.0,1.0,-0.100556469727,-0.703895288086,10.1274730225,1.0,0.0,0.0,0.0,1.0,0.0,0.0,0.0,1.0
1464970735641517016,523,1464970735637566246,,4.98690843582,-3.57894086838,-156.532867432,0.00113300001249,1.0,0.0,0.0,0.0,1.0,0.0,0.0,0.0,1.0,0.12195122242,1.76829278469,-0.18292683363,1.0,0.0,0.0,0.0,1.0,0.0,0.0,0.0,1.0,-0.0861912597656,-0.679953271484,10.2232410889,1.0,0.0,0.0,0.0,1.0,0.0,0.0,0.0,1.0
1464970735662872475,524,1464970735659096756,,4.98199272156,-3.57297039032,-156.541641235,0.00150599994231,1.0,0.0,0.0,0.0,1.0,0.0,0.0,0.0,1.0,0.0,2.01219511032,0.12195122242,1.0,0.0,0.0,0.0,1.0,0.0,0.0,0.0,1.0,0.00957680664062,-0.622492431641,10.180145459,1.0,0.0,0.0,0.0,1.0,0.0,0.0,0.0,1.0
1464970735682360648,525,1464970735679599874,,4.97352266312,-3.55989789963,-156.550949097,0.00128299999051,1.0,0.0,0.0,0.0,1.0,0.0,0.0,0.0,1.0,-0.426829278469,1.76829278469,-0.12195122242,1.0,0.0,0.0,0.0,1.0,0.0,0.0,0.0,1.0,-0.00478840332031,-0.694318481445,10.2567599121,1.0,0.0,0.0,0.0,1.0,0.0,0.0,0.0,1.0
1464970735705956152,526,1464970735702619860,,4.97838354111,-3.56621742249,-156.569488525,0.00274399993941,1.0,0.0,0.0,0.0,1.0,0.0,0.0,0.0,1.0,-0.0609756112099,1.2195122242,-0.426829278469,1.0,0.0,0.0,0.0,1.0,0.0,0.0,0.0,1.0,-0.172382519531,-0.794874951172,10.2519715088,1.0,0.0,0.0,0.0,1.0,0.0,0.0,0.0,1.0
1464970735730539571,527,1464970735723250530,,4.9727640152,-3.57303595543,-156.585144043,0.00683199986815,1.0,0.0,0.0,0.0,1.0,0.0,0.0,0.0,1.0,0.18292683363,0.731707334518,-0.304878056049,1.0,0.0,0.0,0.0,1.0,0.0,0.0,0.0,1.0,-0.205901342773,-0.742202514648,10.2184526855,1.0,0.0,0.0,0.0,1.0,0.0,0.0,0.0,1.0
1464970735749144726,528,1464970735744029376,,4.9416680336,-3.55397558212,-156.576812744,0.00113600003533,1.0,0.0,0.0,0.0,1.0,0.0,0.0,0.0,1.0,0.12195122242,1.03658533096,0.853658556938,1.0,0.0,0.0,0.0,1.0,0.0,0.0,0.0,1.0,0.0909796630859,-0.588973571866,10.1609918457,1.0,0.0,0.0,0.0,1.0,0.0,0.0,0.0,1.0
1464970735770839403,529,1464970735765177908,,4.9072060585,-3.53792834282,-156.571624756,0.00101100001484,1.0,0.0,0.0,0.0,1.0,0.0,0.0,0.0,1.0,-0.18292683363,1.46341466904,0.12195122242,1.0,0.0,0.0,0.0,1.0,0.0,0.0,0.0,1.0,0.205901342773,-0.641646044922,10.1945106689,1.0,0.0,0.0,0.0,1.0,0.0,0.0,0.0,1.0
1464970735790034295,530,1464970735785993317,,4.88772535324,-3.53160762787,-156.585418701,0.00096700002905,1.0,0.0,0.0,0.0,1.0,0.0,0.0,0.0,1.0,0.12195122242,1.76829278469,-0.304878056049,1.0,0.0,0.0,0.0,1.0,0.0,0.0,0.0,1.0,0.067037651051,-0.756567724609,10.1370498291,1.0,0.0,0.0,0.0,1.0,0.0,0.0,0.0,1.0
1464970735810991891,531,1464970735807445599,,4.88748168945,-3.54078149796,-156.605133057,0.00098600005731,1.0,0.0,0.0,0.0,1.0,0.0,0.0,0.0,1.0,-0.18292683363,2.31707310677,-0.365853667259,1.0,0.0,0.0,0.0,1.0,0.0,0.0,0.0,1.0,0.0335188255255,-0.794874951172,10.0795889893,1.0,0.0,0.0,0.0,1.0,0.0,0.0,0.0,1.0
1464970735835647236,532,1464970735828480278,,4.89820575714,-3.54148674011,-156.612670898,0.000964000006206,1.0,0.0,0.0,0.0,1.0,0.0,0.0,0.0,1.0,-0.12195122242,3.04878044128,0.304878056049,1.0,0.0,0.0,0.0,1.0,0.0,0.0,0.0,1.0,-0.0239420166016,-0.742202514648,10.165780249,1.0,0.0,0.0,0.0,1.0,0.0,0.0,0.0,1.0
1464970735856785092,533,1464970735849133447,,4.9119477272,-3.54429078102,-156.614120483,0.00102399999741,1.0,0.0,0.0,0.0,1.0,0.0,0.0,0.0,1.0,-0.426829278469,3.53658556938,-0.12195122242,1.0,0.0,0.0,0.0,1.0,0.0,0.0,0.0,1.0,0.076614453125,-0.708683691406,10.299855542,1.0,0.0,0.0,0.0,1.0,0.0,0.0,0.0,1.0
1464970735879683099,534,1464970735873751137,,4.93834114075,-3.56055927277,-156.642288208,0.00100100005511,1.0,0.0,0.0,0.0,1.0,0.0,0.0,0.0,1.0,-0.426829278469,3.65853667259,-1.15853655338,1.0,0.0,0.0,0.0,1.0,0.0,0.0,0.0,1.0,-0.0335188255255,-0.852335791016,10.1753570557,1.0,0.0,0.0,0.0,1.0,0.0,0.0,0.0,1.0
1464970735899645229,535,1464970735895178783,,4.99223518372,-3.57463860512,-156.666915894,0.00544800003991,1.0,0.0,0.0,0.0,1.0,0.0,0.0,0.0,1.0,-0.304878056049,3.96341490746,0.12195122242,1.0,0.0,0.0,0.0,1.0,0.0,0.0,0.0,1.0,-0.105344873047,-0.713472094727,10.1178962158,1.0,0.0,0.0,0.0,1.0,0.0,0.0,0.0,1.0
1464970735918846371,536,1464970735916076119,,5.03838062286,-3.55983233452,-156.672302246,0.00556300021708,1.0,0.0,0.0,0.0,1.0,0.0,0.0,0.0,1.0,0.0,3.35365867615,-0.304878056049,1.0,0.0,0.0,0.0,1.0,0.0,0.0,0.0,1.0,-0.134075302102,-0.526724328702,10.1705686523,1.0,0.0,0.0,0.0,1.0,0.0,0.0,0.0,1.0
1464970735939899123,537,1464970735936995433,,5.07366514206,-3.55464339256,-156.690429688,0.00136100000236,1.0,0.0,0.0,0.0,1.0,0.0,0.0,0.0,1.0,-0.12195122242,2.19512200356,-0.548780500889,1.0,0.0,0.0,0.0,1.0,0.0,0.0,0.0,1.0,-0.225054956055,-0.603338854892,10.3094323486,1.0,0.0,0.0,0.0,1.0,0.0,0.0,0.0,1.0
1464970735960556615,538,1464970735958031362,,5.08271169662,-3.54731059074,-156.703704834,0.00158799998462,1.0,0.0,0.0,0.0,1.0,0.0,0.0,0.0,1.0,-0.12195122242,1.70731711388,0.18292683363,1.0,0.0,0.0,0.0,1.0,0.0,0.0,0.0,1.0,-0.143652099609,-0.588973571866,10.2902787354,1.0,0.0,0.0,0.0,1.0,0.0,0.0,0.0,1.0
1464970735981822908,539,1464970735979657237,,5.08372402191,-3.5340526104,-156.699569702,0.00205700006336,1.0,0.0,0.0,0.0,1.0,0.0,0.0,0.0,1.0,-0.243902444839,2.25609779358,0.609756112099,1.0,0.0,0.0,0.0,1.0,0.0,0.0,0.0,1.0,0.105344873047,-0.646434448242,10.2423947021,1.0,0.0,0.0,0.0,1.0,0.0,0.0,0.0,1.0
1464970736002473005,540,1464970736000215928,,5.08276462555,-3.52270269394,-156.697128296,0.00218300009146,1.0,0.0,0.0,0.0,1.0,0.0,0.0,0.0,1.0,0.0609756112099,3.65853667259,0.304878056049,1.0,0.0,0.0,0.0,1.0,0.0,0.0,0.0,1.0,0.172382519531,-0.775721337891,10.2950671387,1.0,0.0,0.0,0.0,1.0,0.0,0.0,0.0,1.0
1464970736026454081,541,1464970736023237893,,5.09871292114,-3.53620576859,-156.728225708,0.013585999608,1.0,0.0,0.0,0.0,1.0,0.0,0.0,0.0,1.0,-0.18292683363,3.47560977936,-1.2195122242,1.0,0.0,0.0,0.0,1.0,0.0,0.0,0.0,1.0,0.0814028564453,-0.809240161133,10.3668931885,1.0,0.0,0.0,0.0,1.0,0.0,0.0,0.0,1.0
1464970736045598453,542,1464970736043780333,,5.1379942894,-3.55803370476,-156.752716064,0.0009710000013,1.0,0.0,0.0,0.0,1.0,0.0,0.0,0.0,1.0,-0.243902444839,4.02439022064,0.0609756112099,1.0,0.0,0.0,0.0,1.0,0.0,0.0,0.0,1.0,-0.0287304199219,-0.804451757813,10.2232410889,1.0,0.0,0.0,0.0,1.0,0.0,0.0,0.0,1.0
1464970736066603809,543,1464970736064813502,,5.18367052078,-3.56387734413,-156.752914429,0.00141999998596,1.0,0.0,0.0,0.0,1.0,0.0,0.0,0.0,1.0,-0.18292683363,4.69512224197,0.975609779358,1.0,0.0,0.0,0.0,1.0,0.0,0.0,0.0,1.0,0.0478840332031,-0.670376464844,10.2950671387,1.0,0.0,0.0,0.0,1.0,0.0,0.0,0.0,1.0
1464970736088391559,544,1464970736086000576,,5.23278474808,-3.56184887886,-156.752365112,0.00110100000165,1.0,0.0,0.0,0.0,1.0,0.0,0.0,0.0,1.0,-0.18292683363,5.06097555161,0.243902444839,1.0,0.0,0.0,0.0,1.0,0.0,0.0,0.0,1.0,0.0430956298828,-0.675164868164,10.2807019287,1.0,0.0,0.0,0.0,1.0,0.0,0.0,0.0,1.0
1464970736109465508,545,1464970736106848849,,5.29521179199,-3.56535840034,-156.784622192,0.00115400005598,1.0,0.0,0.0,0.0,1.0,0.0,0.0,0.0,1.0,-0.304878056049,5.0,-1.2804877758,1.0,0.0,0.0,0.0,1.0,0.0,0.0,0.0,1.0,-0.186747729492,-0.703895288086,10.1753570557,1.0,0.0,0.0,0.0,1.0,0.0,0.0,0.0,1.0
1464970736131094248,546,1464970736128276235,,5.36368227005,-3.56789183617,-156.818481445,0.00101600005291,1.0,0.0,0.0,0.0,1.0,0.0,0.0,0.0,1.0,-0.304878056049,3.96341490746,-0.365853667259,1.0,0.0,0.0,0.0,1.0,0.0,0.0,0.0,1.0,-0.335188232422,-0.689530078125,10.2328178955,1.0,0.0,0.0,0.0,1.0,0.0,0.0,0.0,1.0
1464970736156384748,547,1464970736151055336,,5.42256069183,-3.5587284565,-156.821609497,0.00110100000165,1.0,0.0,0.0,0.0,1.0,0.0,0.0,0.0,1.0,-0.18292683363,4.2682929039,0.914634168148,1.0,0.0,0.0,0.0,1.0,0.0,0.0,0.0,1.0,-0.15801730957,-0.675164868164,10.2615483154,1.0,0.0,0.0,0.0,1.0,0.0,0.0,0.0,1.0
1464970736175791879,548,1464970736173310793,,5.46864557266,-3.5659468174,-156.820068359,0.0040549999103,1.0,0.0,0.0,0.0,1.0,0.0,0.0,0.0,1.0,-0.487804889679,3.71951246262,-0.0609756112099,1.0,0.0,0.0,0.0,1.0,0.0,0.0,0.0,1.0,-0.134075302102,-0.852335791016,10.1705686523,1.0,0.0,0.0,0.0,1.0,0.0,0.0,0.0,1.0
1464970736197195567,549,1464970736194314430,,5.4950504303,-3.57348036766,-156.843765259,0.00110700004734,1.0,0.0,0.0,0.0,1.0,0.0,0.0,0.0,1.0,-0.18292683363,2.86585378647,-0.975609779358,1.0,0.0,0.0,0.0,1.0,0.0,0.0,0.0,1.0,-0.215478149414,-0.737414111328,10.2376062988,1.0,0.0,0.0,0.0,1.0,0.0,0.0,0.0,1.0
1464970736217878320,550,1464970736215299213,,5.52378225327,-3.56884527206,-156.865219116,0.00121200003196,1.0,0.0,0.0,0.0,1.0,0.0,0.0,0.0,1.0,-0.12195122242,1.8902438879,-0.548780500889,1.0,0.0,0.0,0.0,1.0,0.0,0.0,0.0,1.0,-0.373495458984,-0.569819995117,10.2040874756,1.0,0.0,0.0,0.0,1.0,0.0,0.0,0.0,1.0
1464970736238945134,551,1464970736236415558,,5.53478908539,-3.56605434418,-156.86907959,0.00127500004601,1.0,0.0,0.0,0.0,1.0,0.0,0.0,0.0,1.0,-0.243902444839,1.09756100178,0.426829278469,1.0,0.0,0.0,0.0,1.0,0.0,0.0,0.0,1.0,-0.387860668945,-0.775721337891,10.1992990723,1.0,0.0,0.0,0.0,1.0,0.0,0.0,0.0,1.0
1464970736262878659,552,1464970736257855444,,5.5080370903,-3.57509875298,-156.873764038,0.00124999997206,1.0,0.0,0.0,0.0,1.0,0.0,0.0,0.0,1.0,-0.548780500889,0.0609756112099,-0.18292683363,1.0,0.0,0.0,0.0,1.0,0.0,0.0,0.0,1.0,-0.196324536133,-0.756567724609,10.1370498291,1.0,0.0,0.0,0.0,1.0,0.0,0.0,0.0,1.0
1464970736286797496,553,1464970736279469965,,5.46235942841,-3.57225108147,-156.882400513,0.00147500005551,1.0,0.0,0.0,0.0,1.0,0.0,0.0,0.0,1.0,-0.365853667259,-0.18292683363,-0.18292683363,1.0,0.0,0.0,0.0,1.0,0.0,0.0,0.0,1.0,-0.0143652099609,-0.531512805087,10.180145459,1.0,0.0,0.0,0.0,1.0,0.0,0.0,0.0,1.0
1464970736302885783,554,1464970736300086572,,5.41777658463,-3.56525182724,-156.883377075,0.00153500004672,1.0,0.0,0.0,0.0,1.0,0.0,0.0,0.0,1.0,-0.243902444839,0.975609779358,0.18292683363,1.0,0.0,0.0,0.0,1.0,0.0,0.0,0.0,1.0,-0.0143652099609,-0.723048901367,10.1897222656,1.0,0.0,0.0,0.0,1.0,0.0,0.0,0.0,1.0
1464970736323997805,555,1464970736321078387,,5.38905334473,-3.57530236244,-156.893875122,0.000987999956124,1.0,0.0,0.0,0.0,1.0,0.0,0.0,0.0,1.0,-0.18292683363,0.670731723309,-0.670731723309,1.0,0.0,0.0,0.0,1.0,0.0,0.0,0.0,1.0,-0.129286889648,-0.837970581055,10.180145459,1.0,0.0,0.0,0.0,1.0,0.0,0.0,0.0,1.0
1464970736345195453,556,1464970736341565255,,5.35960245132,-3.58246803284,-156.911880493,0.000984000042081,1.0,0.0,0.0,0.0,1.0,0.0,0.0,0.0,1.0,-0.243902444839,1.03658533096,-0.304878056049,1.0,0.0,0.0,0.0,1.0,0.0,0.0,0.0,1.0,-0.0957680664062,-0.684741674805,10.3237975586,1.0,0.0,0.0,0.0,1.0,0.0,0.0,0.0,1.0
1464970736366673411,557,1464970736362108529,,5.3421163559,-3.57108664513,-156.915176392,0.00101300003007,1.0,0.0,0.0,0.0,1.0,0.0,0.0,0.0,1.0,-0.12195122242,1.52439022064,0.304878056049,1.0,0.0,0.0,0.0,1.0,0.0,0.0,0.0,1.0,-0.0287304199219,-0.660799658203,10.1992990723,1.0,0.0,0.0,0.0,1.0,0.0,0.0,0.0,1.0
1464970736387331529,558,1464970736383140916,,5.33341169357,-3.56950545311,-156.922851562,0.000980000011623,1.0,0.0,0.0,0.0,1.0,0.0,0.0,0.0,1.0,-0.365853667259,1.76829278469,-0.426829278469,1.0,0.0,0.0,0.0,1.0,0.0,0.0,0.0,1.0,-0.0957680664062,-0.737414111328,10.1753570557,1.0,0.0,0.0,0.0,1.0,0.0,0.0,0.0,1.0
1464970736408828758,559,1464970736404373771,,5.31906747818,-3.58622837067,-156.949584961,0.000983000034466,1.0,0.0,0.0,0.0,1.0,0.0,0.0,0.0,1.0,-0.304878056049,0.975609779358,-0.975609779358,1.0,0.0,0.0,0.0,1.0,0.0,0.0,0.0,1.0,-0.129286889648,-0.718260498047,10.2328178955,1.0,0.0,0.0,0.0,1.0,0.0,0.0,0.0,1.0
1464970736428394327,560,1464970736425052982,,5.31391620636,-3.58567333221,-156.963439941,0.000983000034466,1.0,0.0,0.0,0.0,1.0,0.0,0.0,0.0,1.0,-0.243902444839,1.15853655338,0.243902444839,1.0,0.0,0.0,0.0,1.0,0.0,0.0,0.0,1.0,-0.3064578125,-0.622492431641,10.0556469727,1.0,0.0,0.0,0.0,1.0,0.0,0.0,0.0,1.0
1464970736454322637,561,1464970736446088963,,5.29625082016,-3.56811308861,-156.963546753,0.00100100005511,1.0,0.0,0.0,0.0,1.0,0.0,0.0,0.0,1.0,-0.0609756112099,1.09756100178,0.12195122242,1.0,0.0,0.0,0.0,1.0,0.0,0.0,0.0,1.0,-0.0957680664062,-0.488417138672,10.165780249,1.0,0.0,0.0,0.0,1.0,0.0,0.0,0.0,1.0
1464970736475169869,562,1464970736466902705,,5.274081707,-3.55456781387,-156.968978882,0.00103299994953,1.0,0.0,0.0,0.0,1.0,0.0,0.0,0.0,1.0,0.12195122242,0.487804889679,-0.365853667259,1.0,0.0,0.0,0.0,1.0,0.0,0.0,0.0,1.0,-0.0526724365234,-0.718260498047,10.180145459,1.0,0.0,0.0,0.0,1.0,0.0,0.0,0.0,1.0
1464970736491264197,563,1464970736487946082,,5.24654817581,-3.55681824684,-156.982116699,0.00101000000723,1.0,0.0,0.0,0.0,1.0,0.0,0.0,0.0,1.0,0.0609756112099,1.2195122242,-0.365853667259,1.0,0.0,0.0,0.0,1.0,0.0,0.0,0.0,1.0,-0.0957680664062,-0.775721337891,10.2136642822,1.0,0.0,0.0,0.0,1.0,0.0,0.0,0.0,1.0
1464970736516164386,564,1464970736511046276,,5.22454023361,-3.56052350998,-156.989486694,0.00116500002332,1.0,0.0,0.0,0.0,1.0,0.0,0.0,0.0,1.0,-0.18292683363,1.34146344662,0.0,1.0,0.0,0.0,0.0,1.0,0.0,0.0,0.0,1.0,-0.0430956298828,-0.622492431641,10.2040874756,1.0,0.0,0.0,0.0,1.0,0.0,0.0,0.0,1.0
1464970736540715305,565,1464970736537158075,,5.20613861084,-3.56335330009,-156.998580933,0.00264200009406,1.0,0.0,0.0,0.0,1.0,0.0,0.0,0.0,1.0,-0.304878056049,1.58536589146,-0.365853667259,1.0,0.0,0.0,0.0,1.0,0.0,0.0,0.0,1.0,-0.0430956298828,-0.847547387695,10.2711251221,1.0,0.0,0.0,0.0,1.0,0.0,0.0,0.0,1.0
1464970736562754356,566,1464970736559517177,,5.20127630234,-3.58280563354,-157.016662598,0.00545200007036,1.0,0.0,0.0,0.0,1.0,0.0,0.0,0.0,1.0,-0.304878056049,2.07317066193,-0.365853667259,1.0,0.0,0.0,0.0,1.0,0.0,0.0,0.0,1.0,-0.076614453125,-0.837970581055,10.1992990723,1.0,0.0,0.0,0.0,1.0,0.0,0.0,0.0,1.0
1464970736583488462,567,1464970736580824408,,5.19350624084,-3.59137964249,-157.032180786,0.00312200002372,1.0,0.0,0.0,0.0,1.0,0.0,0.0,0.0,1.0,-0.12195122242,1.64634156227,-0.365853667259,1.0,0.0,0.0,0.0,1.0,0.0,0.0,0.0,1.0,-0.0909796630859,-0.670376464844,10.2567599121,1.0,0.0,0.0,0.0,1.0,0.0,0.0,0.0,1.0
1464970736604521891,568,1464970736602123096,,5.19423675537,-3.57632517815,-157.046417236,0.00141300004907,1.0,0.0,0.0,0.0,1.0,0.0,0.0,0.0,1.0,-0.0609756112099,2.13414645195,0.0,1.0,0.0,0.0,0.0,1.0,0.0,0.0,0.0,1.0,-0.0718260498047,-0.555454785156,10.1322614258,1.0,0.0,0.0,0.0,1.0,0.0,0.0,0.0,1.0
1464970736626460422,569,1464970736622572829,,5.19450759888,-3.56849527359,-157.049514771,0.00161000003573,1.0,0.0,0.0,0.0,1.0,0.0,0.0,0.0,1.0,-0.18292683363,2.68292689323,0.12195122242,1.0,0.0,0.0,0.0,1.0,0.0,0.0,0.0,1.0,-0.0526724365234,-0.756567724609,10.3429511719,1.0,0.0,0.0,0.0,1.0,0.0,0.0,0.0,1.0
1464970736650310822,570,1464970736645202920,,5.19878768921,-3.57969355583,-157.059616089,0.00182200002018,1.0,0.0,0.0,0.0,1.0,0.0,0.0,0.0,1.0,-0.548780500889,2.43902444839,-0.12195122242,1.0,0.0,0.0,0.0,1.0,0.0,0.0,0.0,1.0,-0.0143652099609,-0.780509741211,10.1705686523,1.0,0.0,0.0,0.0,1.0,0.0,0.0,0.0,1.0
1464970736668559571,571,1464970736665510726,,5.201192379,-3.58239126205,-157.069625854,0.00146900000982,1.0,0.0,0.0,0.0,1.0,0.0,0.0,0.0,1.0,-0.304878056049,3.59756112099,0.365853667259,1.0,0.0,0.0,0.0,1.0,0.0,0.0,0.0,1.0,0.162805712891,-0.665588061523,10.1274730225,1.0,0.0,0.0,0.0,1.0,0.0,0.0,0.0,1.0
1464970736690207738,572,1464970736686055666,,5.22345638275,-3.56933665276,-157.06729126,0.00106200005393,1.0,0.0,0.0,0.0,1.0,0.0,0.0,0.0,1.0,-0.243902444839,4.39024400711,0.365853667259,1.0,0.0,0.0,0.0,1.0,0.0,0.0,0.0,1.0,-0.0239420166016,-0.60812722168,10.3046439453,1.0,0.0,0.0,0.0,1.0,0.0,0.0,0.0,1.0
1464970736713049130,573,1464970736707218886,,5.26901960373,-3.56250452995,-157.082778931,0.000966000021435,1.0,0.0,0.0,0.0,1.0,0.0,0.0,0.0,1.0,0.0,3.47560977936,-0.731707334518,1.0,0.0,0.0,0.0,1.0,0.0,0.0,0.0,1.0,-0.201112939453,-0.694318481445,10.1562034424,1.0,0.0,0.0,0.0,1.0,0.0,0.0,0.0,1.0
1464970736732157564,574,1464970736728832209,,5.30522155762,-3.56368207932,-157.110824585,0.0011269999668,1.0,0.0,0.0,0.0,1.0,0.0,0.0,0.0,1.0,0.304878056049,3.10975623131,-0.365853667259,1.0,0.0,0.0,0.0,1.0,0.0,0.0,0.0,1.0,-0.253785375977,-0.794874951172,10.1178962158,1.0,0.0,0.0,0.0,1.0,0.0,0.0,0.0,1.0
1464970736755743069,575,1464970736750936104,,5.34270143509,-3.55352807045,-157.112991333,0.00170300004538,1.0,0.0,0.0,0.0,1.0,0.0,0.0,0.0,1.0,0.0,3.23170733452,0.914634168148,1.0,0.0,0.0,0.0,1.0,0.0,0.0,0.0,1.0,-0.15322890625,-0.641646044922,10.3190091553,1.0,0.0,0.0,0.0,1.0,0.0,0.0,0.0,1.0
1464970736783212625,576,1464970736776137542,,5.36764287949,-3.54194259644,-157.121841431,0.00340700009838,1.0,0.0,0.0,0.0,1.0,0.0,0.0,0.0,1.0,-0.12195122242,2.37804889679,-0.975609779358,1.0,0.0,0.0,0.0,1.0,0.0,0.0,0.0,1.0,-0.272938989258,-0.646434448242,10.3716815918,1.0,0.0,0.0,0.0,1.0,0.0,0.0,0.0,1.0
1464970736800141847,577,1464970736795287590,,5.38388967514,-3.54762911797,-157.159500122,0.00321400002576,1.0,0.0,0.0,0.0,1.0,0.0,0.0,0.0,1.0,-0.426829278469,1.34146344662,-1.2195122242,1.0,0.0,0.0,0.0,1.0,0.0,0.0,0.0,1.0,-0.272938989258,-0.665588061523,10.1514150391,1.0,0.0,0.0,0.0,1.0,0.0,0.0,0.0,1.0
1464970736820597049,578,1464970736817621068,,5.3838186264,-3.55647206306,-157.176574707,0.00383999990299,1.0,0.0,0.0,0.0,1.0,0.0,0.0,0.0,1.0,-0.0609756112099,0.487804889679,0.12195122242,1.0,0.0,0.0,0.0,1.0,0.0,0.0,0.0,1.0,-0.296881024126,-0.775721337891,10.2471831055,1.0,0.0,0.0,0.0,1.0,0.0,0.0,0.0,1.0
1464970736840834959,579,1464970736838538872,,5.36043453217,-3.5490398407,-157.175765991,0.00209200009704,1.0,0.0,0.0,0.0,1.0,0.0,0.0,0.0,1.0,-0.243902444839,-0.975609779358,0.304878056049,1.0,0.0,0.0,0.0,1.0,0.0,0.0,0.0,1.0,-0.186747729492,-0.703895288086,10.0221281494,1.0,0.0,0.0,0.0,1.0,0.0,0.0,0.0,1.0
1464970736863868799,580,1464970736859544644,,5.30218982697,-3.54044771194,-157.17250061,0.00223700003698,1.0,0.0,0.0,0.0,1.0,0.0,0.0,0.0,1.0,-0.0609756112099,-0.792682945728,0.12195122242,1.0,0.0,0.0,0.0,1.0,0.0,0.0,0.0,1.0,-0.0909796630859,-0.675164868164,10.2567599121,1.0,0.0,0.0,0.0,1.0,0.0,0.0,0.0,1.0
1464970736883666502,581,1464970736880766302,,5.2332868576,-3.55678319931,-157.179504395,0.00514800008386,1.0,0.0,0.0,0.0,1.0,0.0,0.0,0.0,1.0,-0.487804889679,-0.670731723309,-0.0609756112099,1.0,0.0,0.0,0.0,1.0,0.0,0.0,0.0,1.0,0.0143652099609,-0.92416184082,10.2471831055,1.0,0.0,0.0,0.0,1.0,0.0,0.0,0.0,1.0
1464970736906175968,582,1464970736903909360,,5.15963840485,-3.56861686707,-157.192611694,0.00262899999507,1.0,0.0,0.0,0.0,1.0,0.0,0.0,0.0,1.0,-0.243902444839,0.243902444839,-0.487804889679,1.0,0.0,0.0,0.0,1.0,0.0,0.0,0.0,1.0,0.134075302102,-0.708683691406,10.1226846191,1.0,0.0,0.0,0.0,1.0,0.0,0.0,0.0,1.0
1464970736926334191,583,1464970736923481543,,5.11084461212,-3.55755567551,-157.204483032,0.000981000019237,1.0,0.0,0.0,0.0,1.0,0.0,0.0,0.0,1.0,0.0609756112099,0.975609779358,-0.18292683363,1.0,0.0,0.0,0.0,1.0,0.0,0.0,0.0,1.0,0.129286889648,-0.555454785156,10.2040874756,1.0,0.0,0.0,0.0,1.0,0.0,0.0,0.0,1.0
1464970736949044646,584,1464970736945011169,,5.08907604218,-3.54716348648,-157.214126587,0.00546400016174,1.0,0.0,0.0,0.0,1.0,0.0,0.0,0.0,1.0,-0.243902444839,2.37804889679,-0.12195122242,1.0,0.0,0.0,0.0,1.0,0.0,0.0,0.0,1.0,0.0191536132812,-0.646434448242,10.2280294922,1.0,0.0,0.0,0.0,1.0,0.0,0.0,0.0,1.0
1464970736970971094,585,1464970736965666005,,5.08781147003,-3.54397082329,-157.230407715,0.000998000032268,1.0,0.0,0.0,0.0,1.0,0.0,0.0,0.0,1.0,0.0609756112099,2.68292689323,-0.731707334518,1.0,0.0,0.0,0.0,1.0,0.0,0.0,0.0,1.0,0.0718260498047,-0.632069238281,10.2567599121,1.0,0.0,0.0,0.0,1.0,0.0,0.0,0.0,1.0
1464970736995200242,586,1464970736986738808,,5.09724187851,-3.54275774956,-157.245727539,0.00112899998203,1.0,0.0,0.0,0.0,1.0,0.0,0.0,0.0,1.0,-0.0609756112099,3.35365867615,0.18292683363,1.0,0.0,0.0,0.0,1.0,0.0,0.0,0.0,1.0,-0.0191536132812,-0.703895288086,10.2232410889,1.0,0.0,0.0,0.0,1.0,0.0,0.0,0.0,1.0
1464970737015521225,587,1464970737007147500,,5.12407875061,-3.53514719009,-157.251022339,0.00112899998203,1.0,0.0,0.0,0.0,1.0,0.0,0.0,0.0,1.0,-0.18292683363,3.84146332741,0.0609756112099,1.0,0.0,0.0,0.0,1.0,0.0,0.0,0.0,1.0,0.0191536132812,-0.651222851562,10.2280294922,1.0,0.0,0.0,0.0,1.0,0.0,0.0,0.0,1.0
1464970737035991948,588,1464970737027803586,,5.15321969986,-3.536277771,-157.272125244,0.00101300003007,1.0,0.0,0.0,0.0,1.0,0.0,0.0,0.0,1.0,-0.243902444839,3.53658556938,-0.670731723309,1.0,0.0,0.0,0.0,1.0,0.0,0.0,0.0,1.0,-0.0622492431641,-0.708683691406,10.2711251221,1.0,0.0,0.0,0.0,1.0,0.0,0.0,0.0,1.0
1464970737056708086,589,1464970737048727015,,5.18867778778,-3.53414487839,-157.290176392,0.000975999981165,1.0,0.0,0.0,0.0,1.0,0.0,0.0,0.0,1.0,-0.243902444839,3.41463422775,0.0,1.0,0.0,0.0,0.0,1.0,0.0,0.0,0.0,1.0,-0.0622492431641,-0.703895288086,10.180145459,1.0,0.0,0.0,0.0,1.0,0.0,0.0,0.0,1.0
1464970737076674643,590,1464970737071679917,,5.22676753998,-3.52681589127,-157.298461914,0.000986999948509,1.0,0.0,0.0,0.0,1.0,0.0,0.0,0.0,1.0,-0.0609756112099,3.41463422775,0.0,1.0,0.0,0.0,0.0,1.0,0.0,0.0,0.0,1.0,-0.220266552734,-0.622492431641,10.2950671387,1.0,0.0,0.0,0.0,1.0,0.0,0.0,0.0,1.0
1464970737097579270,591,1464970737094787455,,5.25338411331,-3.53661942482,-157.305130005,0.00113600003533,1.0,0.0,0.0,0.0,1.0,0.0,0.0,0.0,1.0,-0.792682945728,2.68292689323,-0.548780500889,1.0,0.0,0.0,0.0,1.0,0.0,0.0,0.0,1.0,-0.186747729492,-0.775721337891,10.285490332,1.0,0.0,0.0,0.0,1.0,0.0,0.0,0.0,1.0
