%time,field.header.seq,field.header.stamp,field.header.frame_id,field.orientation.x,field.orientation.y,field.orientation.z,field.orientation.w,field.orientation_covariance0,field.orientation_covariance1,field.orientation_covariance2,field.orientation_covariance3,field.orientation_covariance4,field.orientation_covariance5,field.orientation_covariance6,field.orientation_covariance7,field.orientation_covariance8,field.angular_velocity.x,field.angular_velocity.y,field.angular_velocity.z,field.angular_velocity_covariance0,field.angular_velocity_covariance1,field.angular_velocity_covariance2,field.angular_velocity_covariance3,field.angular_velocity_covariance4,field.angular_velocity_covariance5,field.angular_velocity_covariance6,field.angular_velocity_covariance7,field.angular_velocity_covariance8,field.linear_acceleration.x,field.linear_acceleration.y,field.linear_acceleration.z,field.linear_acceleration_covariance0,field.linear_acceleration_covariance1,field.linear_acceleration_covariance2,field.linear_acceleration_covariance3,field.linear_acceleration_covariance4,field.linear_acceleration_covariance5,field.linear_acceleration_covariance6,field.linear_acceleration_covariance7,field.linear_acceleration_covariance8
1463469812122107471,323,1463469812015202576,,16.7369308472,7.08948850632,-167.910049438,0.0100560002029,1.0,0.0,0.0,0.0,1.0,0.0,0.0,0.0,1.0,-39.9390258789,-16.341463089,21.9512195587,1.0,0.0,0.0,0.0,1.0,0.0,0.0,0.0,1.0,2.20266552734,-2.80121594238,-9.7348239502,1.0,0.0,0.0,0.0,1.0,0.0,0.0,0.0,1.0
1463469812122275856,324,1463469812025749899,,16.390745163,6.84611320496,-167.67086792,0.00995799992234,1.0,0.0,0.0,0.0,1.0,0.0,0.0,0.0,1.0,-37.9878044128,-19.4512195587,18.2926826477,1.0,0.0,0.0,0.0,1.0,0.0,0.0,0.0,1.0,1.87226569824,-3.17949980469,-9.64384487163,1.0,0.0,0.0,0.0,1.0,0.0,0.0,0.0,1.0
1463469812122325961,325,1463469812035024099,,16.0811729431,6.60118865967,-167.476043701,0.00996499974281,1.0,0.0,0.0,0.0,1.0,0.0,0.0,0.0,1.0,-34.2682952881,-19.2682914734,13.4146347046,1.0,0.0,0.0,0.0,1.0,0.0,0.0,0.0,1.0,1.49877023926,-3.23696064453,-9.66778688823,1.0,0.0,0.0,0.0,1.0,0.0,0.0,0.0,1.0
1463469812122360075,326,1463469812045076996,,15.7974567413,6.39145994186,-167.363433838,0.0100050000474,1.0,0.0,0.0,0.0,1.0,0.0,0.0,0.0,1.0,-28.2926845551,-18.9024391174,4.93902444839,1.0,0.0,0.0,0.0,1.0,0.0,0.0,0.0,1.0,1.64721074219,-2.85867678223,-10.046070166,1.0,0.0,0.0,0.0,1.0,0.0,0.0,0.0,1.0
1463469812122401585,327,1463469812055050050,,15.6077280045,6.18895959854,-167.322860718,0.00989199988544,1.0,0.0,0.0,0.0,1.0,0.0,0.0,0.0,1.0,-19.5731716156,-19.0243911743,-2.62195134163,1.0,0.0,0.0,0.0,1.0,0.0,0.0,0.0,1.0,1.29286889648,-2.95923325195,-9.73003554687,1.0,0.0,0.0,0.0,1.0,0.0,0.0,0.0,1.0
1463469812122501898,328,1463469812065116593,,15.4995164871,6.03743314743,-167.330841064,0.0101389996707,1.0,0.0,0.0,0.0,1.0,0.0,0.0,0.0,1.0,-13.2926826477,-18.4146347046,-8.17073154449,1.0,0.0,0.0,0.0,1.0,0.0,0.0,0.0,1.0,1.84832368164,-3.34230551758,-9.39005832661,1.0,0.0,0.0,0.0,1.0,0.0,0.0,0.0,1.0
1463469812122558773,329,1463469812074968865,,15.4499902725,5.87545347214,-167.373443604,0.00997000001371,1.0,0.0,0.0,0.0,1.0,0.0,0.0,0.0,1.0,-10.1219511032,-22.6219520569,-10.9146347046,1.0,0.0,0.0,0.0,1.0,0.0,0.0,0.0,1.0,2.14041643031,-3.73974299316,-9.01177504883,1.0,0.0,0.0,0.0,1.0,0.0,0.0,0.0,1.0
1463469812122610543,330,1463469812085036502,,15.4028453827,5.69569969177,-167.431243896,0.0100389998406,1.0,0.0,0.0,0.0,1.0,0.0,0.0,0.0,1.0,-7.86585378647,-26.5243911743,-11.1585359573,1.0,0.0,0.0,0.0,1.0,0.0,0.0,0.0,1.0,2.3654710941,-3.26090266113,-8.67658681641,1.0,0.0,0.0,0.0,1.0,0.0,0.0,0.0,1.0
1463469812122667418,331,1463469812094926587,,15.4164905548,5.49022197723,-167.491439819,0.00985000003129,1.0,0.0,0.0,0.0,1.0,0.0,0.0,0.0,1.0,-1.2804877758,-26.7682933807,-11.4024391174,1.0,0.0,0.0,0.0,1.0,0.0,0.0,0.0,1.0,2.03507141113,-3.48116921387,-9.57680722515,1.0,0.0,0.0,0.0,1.0,0.0,0.0,0.0,1.0
1463469812122708460,332,1463469812105028807,,15.4191799164,5.27972364426,-167.542663574,0.0100039998069,1.0,0.0,0.0,0.0,1.0,0.0,0.0,0.0,1.0,0.853658556938,-24.0243911743,-10.7926826477,1.0,0.0,0.0,0.0,1.0,0.0,0.0,0.0,1.0,1.63284553223,-3.1364041748,-10.5919481445,1.0,0.0,0.0,0.0,1.0,0.0,0.0,0.0,1.0
1463469812122813772,333,1463469812115018266,,15.4502305984,5.12444829941,-167.562026978,0.0101049998775,1.0,0.0,0.0,0.0,1.0,0.0,0.0,0.0,1.0,3.59756112099,-24.3292694092,-7.37804937363,1.0,0.0,0.0,0.0,1.0,0.0,0.0,0.0,1.0,2.5234885498,-2.60010300293,-8.9112185791,1.0,0.0,0.0,0.0,1.0,0.0,0.0,0.0,1.0
1463469812127354180,334,1463469812125013976,,15.5839481354,4.90631914139,-167.536468506,0.0100279999897,1.0,0.0,0.0,0.0,1.0,0.0,0.0,0.0,1.0,7.43902492523,-25.975610733,-2.86585378647,1.0,0.0,0.0,0.0,1.0,0.0,0.0,0.0,1.0,1.95845695801,-3.74453139648,-9.02135185547,1.0,0.0,0.0,0.0,1.0,0.0,0.0,0.0,1.0
1463469812138408429,335,1463469812135994319,,15.7327308655,4.64283752441,-167.512207031,0.0108549995348,1.0,0.0,0.0,0.0,1.0,0.0,0.0,0.0,1.0,10.548781395,-28.7195110321,-2.07317066193,1.0,0.0,0.0,0.0,1.0,0.0,0.0,0.0,1.0,1.85790048828,-3.10767375488,-8.5999729478,1.0,0.0,0.0,0.0,1.0,0.0,0.0,0.0,1.0
1463469812147468880,336,1463469812145232531,,15.8952121735,4.36870479584,-167.471054077,0.00928200036287,1.0,0.0,0.0,0.0,1.0,0.0,0.0,0.0,1.0,13.4756097794,-30.2439022064,0.670731723309,1.0,0.0,0.0,0.0,1.0,0.0,0.0,0.0,1.0,1.33117612305,-3.29442148437,-8.71489404297,1.0,0.0,0.0,0.0,1.0,0.0,0.0,0.0,1.0
1463469812156848758,337,1463469812154949803,,16.0072669983,4.0583562851,-167.390640259,0.00981699954718,1.0,0.0,0.0,0.0,1.0,0.0,0.0,0.0,1.0,13.048781395,-29.1463413239,4.81707286835,1.0,0.0,0.0,0.0,1.0,0.0,0.0,0.0,1.0,1.01992990723,-2.53785375977,-9.60074924175,1.0,0.0,0.0,0.0,1.0,0.0,0.0,0.0,1.0
1463469812167156342,338,1463469812165097492,,16.0701808929,3.75579619408,-167.227127075,0.00990699976683,1.0,0.0,0.0,0.0,1.0,0.0,0.0,0.0,1.0,8.5365858078,-26.6463432312,12.8048782349,1.0,0.0,0.0,0.0,1.0,0.0,0.0,0.0,1.0,1.12527478027,-2.37504819301,-9.65342167827,1.0,0.0,0.0,0.0,1.0,0.0,0.0,0.0,1.0
1463469812177241999,339,1463469812174977681,,16.0647830963,3.48949694633,-166.98008728,0.0100039998069,1.0,0.0,0.0,0.0,1.0,0.0,0.0,0.0,1.0,3.90243911743,-20.1219520569,19.5731716156,1.0,0.0,0.0,0.0,1.0,0.0,0.0,0.0,1.0,1.10133276367,-2.14041643031,-10.8648871338,1.0,0.0,0.0,0.0,1.0,0.0,0.0,0.0,1.0
1463469812187486979,340,1463469812184970630,,15.9818696976,3.27335953712,-166.685440063,0.009990000166,1.0,0.0,0.0,0.0,1.0,0.0,0.0,0.0,1.0,-1.70731711388,-13.9634151459,22.8658542633,1.0,0.0,0.0,0.0,1.0,0.0,0.0,0.0,1.0,1.07739082014,-1.74776721191,-11.3485158691,1.0,0.0,0.0,0.0,1.0,0.0,0.0,0.0,1.0
1463469812197089148,341,1463469812194945507,,15.8774337769,3.12288045883,-166.37171936,0.0100079998374,1.0,0.0,0.0,0.0,1.0,0.0,0.0,0.0,1.0,-6.28048801422,-7.37804937363,22.682926178,1.0,0.0,0.0,0.0,1.0,0.0,0.0,0.0,1.0,1.07260241682,-2.22181914063,-11.2671130127,1.0,0.0,0.0,0.0,1.0,0.0,0.0,0.0,1.0
1463469812209421364,342,1463469812204910748,,15.7751741409,2.98934316635,-166.096466064,0.010006999597,1.0,0.0,0.0,0.0,1.0,0.0,0.0,0.0,1.0,-10.548781395,-5.48780488968,17.8658542633,1.0,0.0,0.0,0.0,1.0,0.0,0.0,0.0,1.0,0.718260498047,-3.05978972168,-10.7403886475,1.0,0.0,0.0,0.0,1.0,0.0,0.0,0.0,1.0
1463469812217121974,343,1463469812214885884,,15.6238117218,2.91407752037,-165.870834351,0.00998399965465,1.0,0.0,0.0,0.0,1.0,0.0,0.0,0.0,1.0,-16.4634151459,-3.23170733452,12.0731716156,1.0,0.0,0.0,0.0,1.0,0.0,0.0,0.0,1.0,1.06302561017,-3.20344182129,-10.419565625,1.0,0.0,0.0,0.0,1.0,0.0,0.0,0.0,1.0
1463469812227096225,344,1463469812224937531,,15.4443187714,2.87274742126,-165.696136475,0.00999999977648,1.0,0.0,0.0,0.0,1.0,0.0,0.0,0.0,1.0,-21.4634151459,-0.243902444839,5.79268312454,1.0,0.0,0.0,0.0,1.0,0.0,0.0,0.0,1.0,0.828393774414,-3.71101257324,-10.5009684814,1.0,0.0,0.0,0.0,1.0,0.0,0.0,0.0,1.0
1463469812236919539,345,1463469812234974751,,15.2127122879,2.90550994873,-165.585144043,0.0100010000169,1.0,0.0,0.0,0.0,1.0,0.0,0.0,0.0,1.0,-28.1097564697,2.13414645195,-1.52439022064,1.0,0.0,0.0,0.0,1.0,0.0,0.0,0.0,1.0,1.35511813965,-3.77805021973,-9.79228479004,1.0,0.0,0.0,0.0,1.0,0.0,0.0,0.0,1.0
1463469812250505607,346,1463469812248772433,,14.8823852539,2.98291921616,-165.536865234,0.0101640000939,1.0,0.0,0.0,0.0,1.0,0.0,0.0,0.0,1.0,-35.2439041138,5.18292713165,-8.78048801422,1.0,0.0,0.0,0.0,1.0,0.0,0.0,0.0,1.0,1.24498486328,-3.36145913086,-9.80665,1.0,0.0,0.0,0.0,1.0,0.0,0.0,0.0,1.0
1463469812264389850,347,1463469812257987884,,14.4867219925,3.0556602478,-165.50402832,0.00994999986142,1.0,0.0,0.0,0.0,1.0,0.0,0.0,0.0,1.0,-38.6585388184,5.24390268326,-10.0609760284,1.0,0.0,0.0,0.0,1.0,0.0,0.0,0.0,1.0,1.14442839355,-2.67671745605,-10.180145459,1.0,0.0,0.0,0.0,1.0,0.0,0.0,0.0,1.0
1463469812270239422,348,1463469812266034587,,14.0776395798,3.17013931274,-165.493286133,0.0099010001868,1.0,0.0,0.0,0.0,1.0,0.0,0.0,0.0,1.0,-38.1097564697,7.43902492523,-12.7439022064,1.0,0.0,0.0,0.0,1.0,0.0,0.0,0.0,1.0,1.38863696289,-2.17872351074,-9.98860932617,1.0,0.0,0.0,0.0,1.0,0.0,0.0,0.0,1.0
1463469812278414615,349,1463469812275459777,,13.6691026688,3.28541302681,-165.477203369,0.009990000166,1.0,0.0,0.0,0.0,1.0,0.0,0.0,0.0,1.0,-36.8902435303,7.56097555161,-12.1341466904,1.0,0.0,0.0,0.0,1.0,0.0,0.0,0.0,1.0,1.39821376953,-1.94409174805,-9.95987890625,1.0,0.0,0.0,0.0,1.0,0.0,0.0,0.0,1.0
1463469812287176421,350,1463469812285096685,,13.2727479935,3.42529249191,-165.407180786,0.0102490000427,1.0,0.0,0.0,0.0,1.0,0.0,0.0,0.0,1.0,-32.5,10.7926826477,-7.37804937363,1.0,0.0,0.0,0.0,1.0,0.0,0.0,0.0,1.0,1.51313544922,-1.51313544922,-10.6350437744,1.0,0.0,0.0,0.0,1.0,0.0,0.0,0.0,1.0
1463469812296768069,351,1463469812294886041,,12.9695911407,3.60907435417,-165.313156128,0.00975000020117,1.0,0.0,0.0,0.0,1.0,0.0,0.0,0.0,1.0,-31.4024391174,12.0731716156,-5.12195110321,1.0,0.0,0.0,0.0,1.0,0.0,0.0,0.0,1.0,2.26970317383,-2.46602770996,-9.7827079834,1.0,0.0,0.0,0.0,1.0,0.0,0.0,0.0,1.0
1463469812306825705,352,1463469812304938469,,12.6895580292,3.72387552261,-165.223983765,0.00999400019646,1.0,0.0,0.0,0.0,1.0,0.0,0.0,0.0,1.0,-29.2682933807,6.89024400711,-4.69512224197,1.0,0.0,0.0,0.0,1.0,0.0,0.0,0.0,1.0,1.88184250488,-2.58573779297,-9.76834277344,1.0,0.0,0.0,0.0,1.0,0.0,0.0,0.0,1.0
1463469812318292610,353,1463469812314891471,,12.4361133575,3.81888985634,-165.107284546,0.00999699998647,1.0,0.0,0.0,0.0,1.0,0.0,0.0,0.0,1.0,-24.9390239716,6.64634132385,-1.70731711388,1.0,0.0,0.0,0.0,1.0,0.0,0.0,0.0,1.0,1.69509477539,-2.21224233398,-9.86889924316,1.0,0.0,0.0,0.0,1.0,0.0,0.0,0.0,1.0
1463469812328512590,354,1463469812324969993,,12.2285089493,3.89640164375,-164.968902588,0.0100149996579,1.0,0.0,0.0,0.0,1.0,0.0,0.0,0.0,1.0,-19.9390239716,8.41463470459,0.12195122242,1.0,0.0,0.0,0.0,1.0,0.0,0.0,0.0,1.0,1.21146604004,-2.20745393066,-10.5344873047,1.0,0.0,0.0,0.0,1.0,0.0,0.0,0.0,1.0
1463469812338274394,355,1463469812334967890,,12.0349082947,3.98462224007,-164.810058594,0.00999199971557,1.0,0.0,0.0,0.0,1.0,0.0,0.0,0.0,1.0,-14.9390249252,8.23170757294,2.56097555161,1.0,0.0,0.0,0.0,1.0,0.0,0.0,0.0,1.0,1.52750065918,-1.41736738281,-10.4482960449,1.0,0.0,0.0,0.0,1.0,0.0,0.0,0.0,1.0
1463469812348690572,356,1463469812344910475,,12.1595668793,4.04884576797,-164.844894409,0.0100060002878,1.0,0.0,0.0,0.0,1.0,0.0,0.0,0.0,1.0,7.68292665482,19.9390239716,-20.3658542633,1.0,0.0,0.0,0.0,1.0,0.0,0.0,0.0,1.0,-1.28329208984,-2.14041643031,-6.4356140625,1.0,0.0,0.0,0.0,1.0,0.0,0.0,0.0,1.0
1463469812358634615,357,1463469812354878997,,12.1161317825,4.28292894363,-164.576858521,0.0100020002574,1.0,0.0,0.0,0.0,1.0,0.0,0.0,0.0,1.0,-7.43902492523,11.2195119858,12.5,1.0,0.0,0.0,0.0,1.0,0.0,0.0,0.0,1.0,4.22337143625,-2.56658417969,-9.80665,1.0,0.0,0.0,0.0,1.0,0.0,0.0,0.0,1.0
1463469812368387044,358,1463469812365024186,,12.0355291367,4.2840089798,-164.27911377,0.00999800022691,1.0,0.0,0.0,0.0,1.0,0.0,0.0,0.0,1.0,-5.48780488968,7.43902492523,16.7682933807,1.0,0.0,0.0,0.0,1.0,0.0,0.0,0.0,1.0,0.665588061523,-1.54665427246,-10.4722380615,1.0,0.0,0.0,0.0,1.0,0.0,0.0,0.0,1.0
1463469812378349472,359,1463469812374974687,,11.8003406525,4.27822494507,-163.941574097,0.0100060002878,1.0,0.0,0.0,0.0,1.0,0.0,0.0,0.0,1.0,-6.34146356583,-2.62195134163,24.0853652954,1.0,0.0,0.0,0.0,1.0,0.0,0.0,0.0,1.0,2.23618435059,1.19710090314,-8.82023891602,1.0,0.0,0.0,0.0,1.0,0.0,0.0,0.0,1.0
1463469812388091328,360,1463469812385035813,,11.8445453644,4.47844028473,-163.463195801,0.00999800022691,1.0,0.0,0.0,0.0,1.0,0.0,0.0,0.0,1.0,2.43902444839,38.2317085266,28.3536586761,1.0,0.0,0.0,0.0,1.0,0.0,0.0,0.0,1.0,-0.952892260742,-2.37983659633,-11.9422778809,1.0,0.0,0.0,0.0,1.0,0.0,0.0,0.0,1.0
1463469812397749070,361,1463469812394913554,,11.8725070953,4.53090763092,-162.99697876,0.00999800022691,1.0,0.0,0.0,0.0,1.0,0.0,0.0,0.0,1.0,5.73170757294,4.39024400711,34.634147644,1.0,0.0,0.0,0.0,1.0,0.0,0.0,0.0,1.0,2.96881005859,-1.12527478027,-10.5296989014,1.0,0.0,0.0,0.0,1.0,0.0,0.0,0.0,1.0
1463469812407108739,362,1463469812404914733,,12.2008962631,4.84076499939,-162.544433594,0.00999299995601,1.0,0.0,0.0,0.0,1.0,0.0,0.0,0.0,1.0,20.5487823486,32.6219520569,25.975610733,1.0,0.0,0.0,0.0,1.0,0.0,0.0,0.0,1.0,1.97282216797,-3.45722719727,-8.528146898,1.0,0.0,0.0,0.0,1.0,0.0,0.0,0.0,1.0
1463469812416552783,363,1463469812414883307,,12.3103494644,4.97970819473,-162.081604004,0.00999199971557,1.0,0.0,0.0,0.0,1.0,0.0,0.0,0.0,1.0,16.2195110321,14.2682924271,32.4390220642,1.0,0.0,0.0,0.0,1.0,0.0,0.0,0.0,1.0,2.5234885498,-0.612915625,-9.50019277202,1.0,0.0,0.0,0.0,1.0,0.0,0.0,0.0,1.0
1463469812428453385,364,1463469812424887454,,12.5163354874,5.10225343704,-161.610626221,0.0100029995665,1.0,0.0,0.0,0.0,1.0,0.0,0.0,0.0,1.0,19.5121955872,19.9390239716,31.4024391174,1.0,0.0,0.0,0.0,1.0,0.0,0.0,0.0,1.0,1.28808049316,-1.73340200195,-9.47146118306,1.0,0.0,0.0,0.0,1.0,0.0,0.0,0.0,1.0
1463469812438734198,365,1463469812434870612,,12.7232732773,5.00200462341,-161.213928223,0.0100020002574,1.0,0.0,0.0,0.0,1.0,0.0,0.0,0.0,1.0,10.7926826477,12.6219520569,24.6341457367,1.0,0.0,0.0,0.0,1.0,0.0,0.0,0.0,1.0,-1.52750065918,-3.31357509766,-8.94952580566,1.0,0.0,0.0,0.0,1.0,0.0,0.0,0.0,1.0
1463469812447404286,366,1463469812444879707,,12.7796993256,5.0048584938,-160.768615723,0.0099950004369,1.0,0.0,0.0,0.0,1.0,0.0,0.0,0.0,1.0,17.4390239716,11.8292684555,31.7682914734,1.0,0.0,0.0,0.0,1.0,0.0,0.0,0.0,1.0,0.804451757813,0.478840332031,-12.3492921631,1.0,0.0,0.0,0.0,1.0,0.0,0.0,0.0,1.0
1463469812457113329,367,1463469812454964740,,12.9891033173,5.00531291962,-160.453964233,0.0100100003183,1.0,0.0,0.0,0.0,1.0,0.0,0.0,0.0,1.0,19.0853652954,3.41463422775,19.0243911743,1.0,0.0,0.0,0.0,1.0,0.0,0.0,0.0,1.0,1.5322890625,-2.14041643031,-9.2416184082,1.0,0.0,0.0,0.0,1.0,0.0,0.0,0.0,1.0
1463469812468092943,368,1463469812465123730,,13.395280838,4.95787668228,-160.1690979,0.00999299995601,1.0,0.0,0.0,0.0,1.0,0.0,0.0,0.0,1.0,24.4512195587,2.62195134163,14.9390249252,1.0,0.0,0.0,0.0,1.0,0.0,0.0,0.0,1.0,0.775721337891,-5.06134230957,-9.39963513325,1.0,0.0,0.0,0.0,1.0,0.0,0.0,0.0,1.0
1463469812480383805,369,1463469812474893503,,13.5330600739,4.91220283508,-159.955413818,0.0100029995665,1.0,0.0,0.0,0.0,1.0,0.0,0.0,0.0,1.0,16.4024391174,-3.47560977936,10.7926826477,1.0,0.0,0.0,0.0,1.0,0.0,0.0,0.0,1.0,1.81001645508,-1.85790048828,-10.5440641113,1.0,0.0,0.0,0.0,1.0,0.0,0.0,0.0,1.0
1463469812487129416,370,1463469812484874056,,13.6566419601,4.88158655167,-159.837524414,0.0101079996675,1.0,0.0,0.0,0.0,1.0,0.0,0.0,0.0,1.0,11.4634151459,-5.73170757294,1.09756100178,1.0,0.0,0.0,0.0,1.0,0.0,0.0,0.0,1.0,1.84832368164,-2.36068269078,-9.13627353516,1.0,0.0,0.0,0.0,1.0,0.0,0.0,0.0,1.0
1463469812496784085,371,1463469812494834401,,13.7369375229,4.82601118088,-159.759033203,0.00989300012589,1.0,0.0,0.0,0.0,1.0,0.0,0.0,0.0,1.0,8.35365867615,-8.23170757294,-2.01219511032,1.0,0.0,0.0,0.0,1.0,0.0,0.0,0.0,1.0,1.85790048828,-2.49475812988,-10.0748005859,1.0,0.0,0.0,0.0,1.0,0.0,0.0,0.0,1.0
1463469812507333752,372,1463469812504848601,,13.7745790482,4.76764297485,-159.723480225,0.00999800022691,1.0,0.0,0.0,0.0,1.0,0.0,0.0,0.0,1.0,3.84146332741,-7.92682981491,-6.58536624908,1.0,0.0,0.0,0.0,1.0,0.0,0.0,0.0,1.0,1.43652099609,-2.41814367676,-9.32780908345,1.0,0.0,0.0,0.0,1.0,0.0,0.0,0.0,1.0
1463469812520454195,373,1463469812514820873,,13.7462806702,4.7225394249,-159.72479248,0.00999400019646,1.0,0.0,0.0,0.0,1.0,0.0,0.0,0.0,1.0,-1.2195122242,-4.93902444839,-10.9756097794,1.0,0.0,0.0,0.0,1.0,0.0,0.0,0.0,1.0,0.991199487305,-2.26012636719,-9.55286520855,1.0,0.0,0.0,0.0,1.0,0.0,0.0,0.0,1.0
1463469812531670788,374,1463469812524897364,,13.6638050079,4.71947956085,-159.736984253,0.0100100003183,1.0,0.0,0.0,0.0,1.0,0.0,0.0,0.0,1.0,-5.42682933807,-3.59756112099,-12.3170728683,1.0,0.0,0.0,0.0,1.0,0.0,0.0,0.0,1.0,1.42215578613,-2.03985981445,-9.48582756206,1.0,0.0,0.0,0.0,1.0,0.0,0.0,0.0,1.0
1463469812536876872,375,1463469812534856667,,13.5203475952,4.72782468796,-159.765090942,0.0100010000169,1.0,0.0,0.0,0.0,1.0,0.0,0.0,0.0,1.0,-9.69512176514,-2.68292689323,-14.0243902206,1.0,0.0,0.0,0.0,1.0,0.0,0.0,0.0,1.0,1.39342536621,-1.73340200195,-9.53849999858,1.0,0.0,0.0,0.0,1.0,0.0,0.0,0.0,1.0
1463469812548002683,376,1463469812544854460,,13.3507442474,4.72815608978,-159.795043945,0.0100039998069,1.0,0.0,0.0,0.0,1.0,0.0,0.0,0.0,1.0,-12.1341466904,-4.93902444839,-13.658536911,1.0,0.0,0.0,0.0,1.0,0.0,0.0,0.0,1.0,1.62326872559,-1.64721074219,-9.36132790669,1.0,0.0,0.0,0.0,1.0,0.0,0.0,0.0,1.0
1463469812557528550,377,1463469812554852462,,13.1505088806,4.71728992462,-159.817153931,0.00999999977648,1.0,0.0,0.0,0.0,1.0,0.0,0.0,0.0,1.0,-14.1463422775,-6.89024400711,-12.3170728683,1.0,0.0,0.0,0.0,1.0,0.0,0.0,0.0,1.0,1.84353527832,-1.45088620605,-9.55765361187,1.0,0.0,0.0,0.0,1.0,0.0,0.0,0.0,1.0
1463469812569099569,378,1463469812564859005,,12.9627552032,4.64741134644,-159.840835571,0.00999299995601,1.0,0.0,0.0,0.0,1.0,0.0,0.0,0.0,1.0,-14.3292694092,-9.81707286835,-11.9512195587,1.0,0.0,0.0,0.0,1.0,0.0,0.0,0.0,1.0,1.17794714373,-1.48919343262,-8.49462807476,1.0,0.0,0.0,0.0,1.0,0.0,0.0,0.0,1.0
1463469812577460595,379,1463469812574885027,,12.8271188736,4.57225084305,-159.876068115,0.0100010000169,1.0,0.0,0.0,0.0,1.0,0.0,0.0,0.0,1.0,-12.7439022064,-12.4390249252,-12.8658542633,1.0,0.0,0.0,0.0,1.0,0.0,0.0,0.0,1.0,1.66157595215,-2.31279880371,-9.57680722515,1.0,0.0,0.0,0.0,1.0,0.0,0.0,0.0,1.0
1463469812587678283,380,1463469812584995684,,12.6399316788,4.45183944702,-159.826950073,0.00999400019646,1.0,0.0,0.0,0.0,1.0,0.0,0.0,0.0,1.0,-17.3780498505,-17.0731716156,-3.17073178291,1.0,0.0,0.0,0.0,1.0,0.0,0.0,0.0,1.0,1.92014973145,-1.96324536133,-9.08360109863,1.0,0.0,0.0,0.0,1.0,0.0,0.0,0.0,1.0
1463469812600495237,381,1463469812595009154,,12.5095100403,4.34071063995,-159.902191162,0.0100020002574,1.0,0.0,0.0,0.0,1.0,0.0,0.0,0.0,1.0,-11.4024391174,-12.5,-16.9512195587,1.0,0.0,0.0,0.0,1.0,0.0,0.0,0.0,1.0,0.881066210937,-2.25533796387,-9.99818613281,1.0,0.0,0.0,0.0,1.0,0.0,0.0,0.0,1.0
1463469812608969127,382,1463469812604941739,,12.3945436478,4.28511619568,-159.953643799,0.0099950004369,1.0,0.0,0.0,0.0,1.0,0.0,0.0,0.0,1.0,-9.63414573669,-12.0121955872,-14.6341466904,1.0,0.0,0.0,0.0,1.0,0.0,0.0,0.0,1.0,1.7908628418,-2.03985981445,-9.47624958638,1.0,0.0,0.0,0.0,1.0,0.0,0.0,0.0,1.0
1463469812618991607,383,1463469812614963386,,12.2602338791,4.20403003693,-159.989486694,0.0100060002878,1.0,0.0,0.0,0.0,1.0,0.0,0.0,0.0,1.0,-9.14634132385,-12.6219520569,-12.7439022064,1.0,0.0,0.0,0.0,1.0,0.0,0.0,0.0,1.0,1.59453830566,-1.68072956543,-10.1083194092,1.0,0.0,0.0,0.0,1.0,0.0,0.0,0.0,1.0
1463469812627540862,384,1463469812624996804,,12.1504468918,4.10595321655,-159.991958618,0.0100039998069,1.0,0.0,0.0,0.0,1.0,0.0,0.0,0.0,1.0,-6.82926845551,-16.2195110321,-8.59756088257,1.0,0.0,0.0,0.0,1.0,0.0,0.0,0.0,1.0,2.04464821777,-1.59932670898,-9.91678327637,1.0,0.0,0.0,0.0,1.0,0.0,0.0,0.0,1.0
1463469812638352872,385,1463469812635216211,,12.0909757614,3.85941910744,-159.881362915,0.00999400019646,1.0,0.0,0.0,0.0,1.0,0.0,0.0,0.0,1.0,-14.3902444839,-24.6341457367,3.7804877758,1.0,0.0,0.0,0.0,1.0,0.0,0.0,0.0,1.0,1.49877023926,-4.24731403738,-10.9606552002,1.0,0.0,0.0,0.0,1.0,0.0,0.0,0.0,1.0
1463469812647941811,386,1463469812644959578,,12.082868576,3.68413424492,-159.816207886,0.00999800022691,1.0,0.0,0.0,0.0,1.0,0.0,0.0,0.0,1.0,-2.74390244484,-18.475610733,-1.70731711388,1.0,0.0,0.0,0.0,1.0,0.0,0.0,0.0,1.0,1.21146604004,-2.50912333984,-9.50498117534,1.0,0.0,0.0,0.0,1.0,0.0,0.0,0.0,1.0
1463469812658295125,387,1463469812654842319,,12.017449379,3.45582294464,-159.71472168,0.00999800022691,1.0,0.0,0.0,0.0,1.0,0.0,0.0,0.0,1.0,-4.20731735229,-22.3780498505,3.10975623131,1.0,0.0,0.0,0.0,1.0,0.0,0.0,0.0,1.0,1.22104284668,-1.94409174805,-10.7882726807,1.0,0.0,0.0,0.0,1.0,0.0,0.0,0.0,1.0
1463469812670624632,388,1463469812664941257,,11.9660692215,3.25697731972,-159.577972412,0.0100010000169,1.0,0.0,0.0,0.0,1.0,0.0,0.0,0.0,1.0,-2.92682933807,-21.4634151459,6.46341466904,1.0,0.0,0.0,0.0,1.0,0.0,0.0,0.0,1.0,1.61848032227,-1.81001645508,-10.165780249,1.0,0.0,0.0,0.0,1.0,0.0,0.0,0.0,1.0
1463469812680081020,389,1463469812674820353,,11.9106798172,3.02474737167,-159.42288208,0.0100010000169,1.0,0.0,0.0,0.0,1.0,0.0,0.0,0.0,1.0,-1.03658533096,-22.2560977936,8.59756088257,1.0,0.0,0.0,0.0,1.0,0.0,0.0,0.0,1.0,1.25456166992,-1.4604630127,-10.8457335205,1.0,0.0,0.0,0.0,1.0,0.0,0.0,0.0,1.0
1463469812687408349,390,1463469812684865229,,11.8970956802,2.77568769455,-159.250839233,0.0100020002574,1.0,0.0,0.0,0.0,1.0,0.0,0.0,0.0,1.0,2.25609779358,-23.7195129395,10.548781395,1.0,0.0,0.0,0.0,1.0,0.0,0.0,0.0,1.0,1.20188930646,-1.57059628906,-10.5057568848,1.0,0.0,0.0,0.0,1.0,0.0,0.0,0.0,1.0
1463469812700168272,391,1463469812694903699,,11.9289121628,2.53455424309,-159.062896729,0.00999699998647,1.0,0.0,0.0,0.0,1.0,0.0,0.0,0.0,1.0,5.60975599289,-21.2804889679,11.5853662491,1.0,0.0,0.0,0.0,1.0,0.0,0.0,0.0,1.0,0.866701000977,-1.73819040527,-10.1609918457,1.0,0.0,0.0,0.0,1.0,0.0,0.0,0.0,1.0
1463469812711201063,392,1463469812705021075,,11.9986371994,2.28763723373,-158.867416382,0.00999899953604,1.0,0.0,0.0,0.0,1.0,0.0,0.0,0.0,1.0,8.96341514587,-20.3048782349,12.1341466904,1.0,0.0,0.0,0.0,1.0,0.0,0.0,0.0,1.0,0.569819995117,-1.838746875,-10.180145459,1.0,0.0,0.0,0.0,1.0,0.0,0.0,0.0,1.0
1463469812720985992,393,1463469812715117722,,12.0880384445,2.06643438339,-158.684020996,0.0100060002878,1.0,0.0,0.0,0.0,1.0,0.0,0.0,0.0,1.0,10.8536586761,-17.4390239716,10.3048782349,1.0,0.0,0.0,0.0,1.0,0.0,0.0,0.0,1.0,0.435744702148,-1.95366855469,-10.5296989014,1.0,0.0,0.0,0.0,1.0,0.0,0.0,0.0,1.0
1463469812730998941,394,1463469812724939161,,12.1904153824,1.90439736843,-158.499557495,0.00999800022691,1.0,0.0,0.0,0.0,1.0,0.0,0.0,0.0,1.0,11.9512195587,-13.658536911,9.63414573669,1.0,0.0,0.0,0.0,1.0,0.0,0.0,0.0,1.0,0.790086547852,-2.01591779785,-10.5009684814,1.0,0.0,0.0,0.0,1.0,0.0,0.0,0.0,1.0
1463469812740720902,395,1463469812734948152,,12.2830467224,1.76882743835,-158.329498291,0.00999800022691,1.0,0.0,0.0,0.0,1.0,0.0,0.0,0.0,1.0,12.0121955872,-10.8536586761,7.62195110321,1.0,0.0,0.0,0.0,1.0,0.0,0.0,0.0,1.0,0.679953271484,-1.89620771484,-10.7356002441,1.0,0.0,0.0,0.0,1.0,0.0,0.0,0.0,1.0
1463469812750590414,396,1463469812745018706,,12.3773517609,1.68048393726,-158.171524048,0.0100010000169,1.0,0.0,0.0,0.0,1.0,0.0,0.0,0.0,1.0,12.1951217651,-7.50000047684,5.67073154449,1.0,0.0,0.0,0.0,1.0,0.0,0.0,0.0,1.0,0.866701000977,-1.93930334473,-10.8217915039,1.0,0.0,0.0,0.0,1.0,0.0,0.0,0.0,1.0
1463469812760307113,397,1463469812754961186,,12.4653072357,1.62462174892,-158.01184082,0.010006999597,1.0,0.0,0.0,0.0,1.0,0.0,0.0,0.0,1.0,11.4634151459,-3.65853667259,5.0,1.0,0.0,0.0,0.0,1.0,0.0,0.0,0.0,1.0,0.746990917969,-2.02549460449,-11.0755768799,1.0,0.0,0.0,0.0,1.0,0.0,0.0,0.0,1.0
1463469812769864543,398,1463469812765205750,,12.5493612289,1.61587643623,-157.850357056,0.010006999597,1.0,0.0,0.0,0.0,1.0,0.0,0.0,0.0,1.0,11.2804880142,0.243902444839,4.32926845551,1.0,0.0,0.0,0.0,1.0,0.0,0.0,0.0,1.0,0.876277807617,-1.96803376465,-10.8888291504,1.0,0.0,0.0,0.0,1.0,0.0,0.0,0.0,1.0
1463469812782863163,399,1463469812774995522,,12.6307563782,1.65034747124,-157.669296265,0.0101479999721,1.0,0.0,0.0,0.0,1.0,0.0,0.0,0.0,1.0,9.93902492523,4.08536577225,5.18292713165,1.0,0.0,0.0,0.0,1.0,0.0,0.0,0.0,1.0,1.01514150391,-2.14999323695,-10.8074262939,1.0,0.0,0.0,0.0,1.0,0.0,0.0,0.0,1.0
1463469812789729816,400,1463469812785068263,,12.6893024445,1.69951426983,-157.470046997,0.00985599961132,1.0,0.0,0.0,0.0,1.0,0.0,0.0,0.0,1.0,8.96341514587,7.13414621353,6.95121955872,1.0,0.0,0.0,0.0,1.0,0.0,0.0,0.0,1.0,0.809240161133,-1.8866309082,-10.5584293213,1.0,0.0,0.0,0.0,1.0,0.0,0.0,0.0,1.0
1463469812796779230,401,1463469812794988712,,12.737411499,1.80143344402,-157.230682373,0.00998799968511,1.0,0.0,0.0,0.0,1.0,0.0,0.0,0.0,1.0,7.13414621353,10.7317075729,9.93902492523,1.0,0.0,0.0,0.0,1.0,0.0,0.0,0.0,1.0,1.28808049316,-2.02070620117,-10.6398321777,1.0,0.0,0.0,0.0,1.0,0.0,0.0,0.0,1.0
1463469812807096710,402,1463469812804950464,,12.7919950485,1.91816079617,-156.963027954,0.00999100040644,1.0,0.0,0.0,0.0,1.0,0.0,0.0,0.0,1.0,6.40243911743,12.7439022064,12.3170728683,1.0,0.0,0.0,0.0,1.0,0.0,0.0,0.0,1.0,1.32159931641,-2.26491477051,-10.5967365479,1.0,0.0,0.0,0.0,1.0,0.0,0.0,0.0,1.0
1463469812817108826,403,1463469812815072423,,12.7944898605,2.03391456604,-156.661468506,0.0100119998679,1.0,0.0,0.0,0.0,1.0,0.0,0.0,0.0,1.0,4.57317066193,13.7195129395,15.6097564697,1.0,0.0,0.0,0.0,1.0,0.0,0.0,0.0,1.0,1.25456166992,-1.57059628906,-10.5105452881,1.0,0.0,0.0,0.0,1.0,0.0,0.0,0.0,1.0
1463469812826586307,404,1463469812824912769,,12.8152122498,2.15131926537,-156.345794678,0.00998899992555,1.0,0.0,0.0,0.0,1.0,0.0,0.0,0.0,1.0,4.81707286835,14.5121955872,16.8902435303,1.0,0.0,0.0,0.0,1.0,0.0,0.0,0.0,1.0,1.20188930646,-1.8148048584,-10.2950671387,1.0,0.0,0.0,0.0,1.0,0.0,0.0,0.0,1.0
1463469812837014568,405,1463469812834919260,,12.8492994308,2.263276577,-156.019638062,0.0100100003183,1.0,0.0,0.0,0.0,1.0,0.0,0.0,0.0,1.0,4.51219558716,15.4268302917,17.6219520569,1.0,0.0,0.0,0.0,1.0,0.0,0.0,0.0,1.0,0.981622680664,-2.09253210485,-10.2088758789,1.0,0.0,0.0,0.0,1.0,0.0,0.0,0.0,1.0
1463469812846713039,406,1463469812844895646,,12.8886833191,2.367415905,-155.694168091,0.00999800022691,1.0,0.0,0.0,0.0,1.0,0.0,0.0,0.0,1.0,4.39024400711,15.4268302917,17.5609760284,1.0,0.0,0.0,0.0,1.0,0.0,0.0,0.0,1.0,0.852335791016,-2.18351191406,-10.0795889893,1.0,0.0,0.0,0.0,1.0,0.0,0.0,0.0,1.0
1463469812857274164,407,1463469812854941304,,12.922246933,2.49159908295,-155.381774902,0.00999999977648,1.0,0.0,0.0,0.0,1.0,0.0,0.0,0.0,1.0,4.32926845551,15.2439022064,16.2804889679,1.0,0.0,0.0,0.0,1.0,0.0,0.0,0.0,1.0,1.23061965332,-2.10689731481,-10.1562034424,1.0,0.0,0.0,0.0,1.0,0.0,0.0,0.0,1.0
1463469812867350603,408,1463469812864999514,,12.9611473083,2.61174249649,-155.091430664,0.00999199971557,1.0,0.0,0.0,0.0,1.0,0.0,0.0,0.0,1.0,4.2682929039,14.4512205124,14.2073173523,1.0,0.0,0.0,0.0,1.0,0.0,0.0,0.0,1.0,1.23061965332,-2.20745393066,-10.046070166,1.0,0.0,0.0,0.0,1.0,0.0,0.0,0.0,1.0
1463469812876673605,409,1463469812874891578,,13.0054664612,2.72570514679,-154.821594238,0.0100020002574,1.0,0.0,0.0,0.0,1.0,0.0,0.0,0.0,1.0,3.84146332741,13.4756097794,12.2560977936,1.0,0.0,0.0,0.0,1.0,0.0,0.0,0.0,1.0,1.24498486328,-2.41335541957,-10.0891657959,1.0,0.0,0.0,0.0,1.0,0.0,0.0,0.0,1.0
1463469812887336137,410,1463469812884912756,,13.0550088882,2.83197522163,-154.570449829,0.0100050000474,1.0,0.0,0.0,0.0,1.0,0.0,0.0,0.0,1.0,2.62195134163,12.4390249252,10.4878053665,1.0,0.0,0.0,0.0,1.0,0.0,0.0,0.0,1.0,1.21146604004,-2.67671745605,-9.77791958008,1.0,0.0,0.0,0.0,1.0,0.0,0.0,0.0,1.0
1463469812896714504,411,1463469812895036278,,13.0853452682,2.93099451065,-154.34324646,0.0100039998069,1.0,0.0,0.0,0.0,1.0,0.0,0.0,0.0,1.0,-0.426829278469,11.0975618362,8.29268264771,1.0,0.0,0.0,0.0,1.0,0.0,0.0,0.0,1.0,1.2497732666,-2.89698400879,-9.72524714355,1.0,0.0,0.0,0.0,1.0,0.0,0.0,0.0,1.0
1463469812907198702,412,1463469812904893811,,13.0729541779,3.01824951172,-154.138626099,0.00998799968511,1.0,0.0,0.0,0.0,1.0,0.0,0.0,0.0,1.0,-2.80487799644,9.32926845551,6.52439069748,1.0,0.0,0.0,0.0,1.0,0.0,0.0,0.0,1.0,1.2976572998,-2.58573779297,-9.81143840332,1.0,0.0,0.0,0.0,1.0,0.0,0.0,0.0,1.0
1463469812921293102,413,1463469812914943375,,13.0532236099,3.10477113724,-153.94972229,0.0100130001083,1.0,0.0,0.0,0.0,1.0,0.0,0.0,0.0,1.0,-4.2682929039,7.80487823486,5.18292713165,1.0,0.0,0.0,0.0,1.0,0.0,0.0,0.0,1.0,1.49877023926,-2.70065947266,-9.69651672363,1.0,0.0,0.0,0.0,1.0,0.0,0.0,0.0,1.0
1463469812927325486,414,1463469812924951688,,13.0178699493,3.1819524765,-153.763961792,0.00998799968511,1.0,0.0,0.0,0.0,1.0,0.0,0.0,0.0,1.0,-6.7682929039,6.40243911743,5.18292713165,1.0,0.0,0.0,0.0,1.0,0.0,0.0,0.0,1.0,1.5562310791,-2.78685073242,-9.41400034321,1.0,0.0,0.0,0.0,1.0,0.0,0.0,0.0,1.0
1463469812936764217,415,1463469812934935679,,12.9504871368,3.23784375191,-153.569351196,0.0100140003487,1.0,0.0,0.0,0.0,1.0,0.0,0.0,0.0,1.0,-9.51219558716,5.18292713165,6.34146356583,1.0,0.0,0.0,0.0,1.0,0.0,0.0,0.0,1.0,1.43173259277,-2.67192905273,-9.36611631001,1.0,0.0,0.0,0.0,1.0,0.0,0.0,0.0,1.0
1463469812947494613,416,1463469812944879097,,12.8532152176,3.28853368759,-153.361679077,0.00998700037599,1.0,0.0,0.0,0.0,1.0,0.0,0.0,0.0,1.0,-11.8292684555,5.30487823486,7.74390268326,1.0,0.0,0.0,0.0,1.0,0.0,0.0,0.0,1.0,1.36948334961,-2.50433493652,-9.31823227681,1.0,0.0,0.0,0.0,1.0,0.0,0.0,0.0,1.0
1463469812957027407,417,1463469812954894078,,12.7401456833,3.33886837959,-153.142028809,0.010006999597,1.0,0.0,0.0,0.0,1.0,0.0,0.0,0.0,1.0,-13.2926826477,5.42682933807,8.90243911743,1.0,0.0,0.0,0.0,1.0,0.0,0.0,0.0,1.0,1.40300217285,-2.48518132324,-9.43315395649,1.0,0.0,0.0,0.0,1.0,0.0,0.0,0.0,1.0
1463469812966821346,418,1463469812964879996,,12.6013050079,3.40168523788,-152.909484863,0.00999400019646,1.0,0.0,0.0,0.0,1.0,0.0,0.0,0.0,1.0,-14.3292694092,5.60975599289,10.3048782349,1.0,0.0,0.0,0.0,1.0,0.0,0.0,0.0,1.0,1.64721074219,-2.18351191406,-9.4954043687,1.0,0.0,0.0,0.0,1.0,0.0,0.0,0.0,1.0
1463469812976823983,419,1463469812974838310,,12.4686546326,3.44894385338,-152.670227051,0.00999899953604,1.0,0.0,0.0,0.0,1.0,0.0,0.0,0.0,1.0,-14.5731706619,5.36585378647,10.9756097794,1.0,0.0,0.0,0.0,1.0,0.0,0.0,0.0,1.0,1.45567460937,-2.32237546422,-9.57201882183,1.0,0.0,0.0,0.0,1.0,0.0,0.0,0.0,1.0
1463469812987248859,420,1463469812984878551,,12.3401184082,3.47805762291,-152.431945801,0.00999599974602,1.0,0.0,0.0,0.0,1.0,0.0,0.0,0.0,1.0,-14.8780498505,6.09756088257,10.6707315445,1.0,0.0,0.0,0.0,1.0,0.0,0.0,0.0,1.0,0.981622680664,-2.38462499965,-9.41400034321,1.0,0.0,0.0,0.0,1.0,0.0,0.0,0.0,1.0
1463469812997447328,421,1463469812994861813,,12.1612529755,3.53570485115,-152.180130005,0.010006999597,1.0,0.0,0.0,0.0,1.0,0.0,0.0,0.0,1.0,-15.3048791885,7.50000047684,12.0121955872,1.0,0.0,0.0,0.0,1.0,0.0,0.0,0.0,1.0,1.32159931641,-1.61848032227,-9.88326445312,1.0,0.0,0.0,0.0,1.0,0.0,0.0,0.0,1.0
1463469813011128343,422,1463469813004874293,,12.0768461227,3.53818631172,-151.966003418,0.00999400019646,1.0,0.0,0.0,0.0,1.0,0.0,0.0,0.0,1.0,-11.341463089,2.92682933807,8.84146404266,1.0,0.0,0.0,0.0,1.0,0.0,0.0,0.0,1.0,0.991199487305,-2.51870014648,-9.45230756977,1.0,0.0,0.0,0.0,1.0,0.0,0.0,0.0,1.0
1463469813017243227,423,1463469813015033700,,11.9630489349,3.6034154892,-151.755096436,0.010006999597,1.0,0.0,0.0,0.0,1.0,0.0,0.0,0.0,1.0,-10.9146347046,6.82926845551,7.86585378647,1.0,0.0,0.0,0.0,1.0,0.0,0.0,0.0,1.0,1.37906015625,-1.93451494141,-9.57201882183,1.0,0.0,0.0,0.0,1.0,0.0,0.0,0.0,1.0
1463469813027144093,424,1463469813024949827,,11.8342514038,3.61078453064,-151.56829834,0.0100109996274,1.0,0.0,0.0,0.0,1.0,0.0,0.0,0.0,1.0,-8.90243911743,2.62195134163,6.52439069748,1.0,0.0,0.0,0.0,1.0,0.0,0.0,0.0,1.0,1.06302561017,-1.36948334961,-9.89284125977,1.0,0.0,0.0,0.0,1.0,0.0,0.0,0.0,1.0
1463469813037322199,425,1463469813034850641,,11.8061885834,3.67460227013,-151.384735107,0.00998899992555,1.0,0.0,0.0,0.0,1.0,0.0,0.0,0.0,1.0,-6.15853643417,3.04878044128,5.67073154449,1.0,0.0,0.0,0.0,1.0,0.0,0.0,0.0,1.0,1.89141931152,-2.51391174316,-9.21288798828,1.0,0.0,0.0,0.0,1.0,0.0,0.0,0.0,1.0
1463469813046544629,426,1463469813044851819,,11.7667312622,3.6738960743,-151.206314087,0.00999800022691,1.0,0.0,0.0,0.0,1.0,0.0,0.0,0.0,1.0,-4.87804889679,0.914634168148,5.73170757294,1.0,0.0,0.0,0.0,1.0,0.0,0.0,0.0,1.0,1.1875240965,-2.18830031738,-9.67257470703,1.0,0.0,0.0,0.0,1.0,0.0,0.0,0.0,1.0
1463469813057617836,427,1463469813054815029,,11.705414772,3.67856693268,-151.020797729,0.00999800022691,1.0,0.0,0.0,0.0,1.0,0.0,0.0,0.0,1.0,-4.93902444839,-2.25609779358,7.25609779358,1.0,0.0,0.0,0.0,1.0,0.0,0.0,0.0,1.0,1.85311208496,-1.76213242187,-9.52892319194,1.0,0.0,0.0,0.0,1.0,0.0,0.0,0.0,1.0
1463469813067650890,428,1463469813065003238,,11.6835718155,3.6523566246,-150.832351685,0.0100029995665,1.0,0.0,0.0,0.0,1.0,0.0,0.0,0.0,1.0,-4.87804889679,-2.43902444839,7.31707334518,1.0,0.0,0.0,0.0,1.0,0.0,0.0,0.0,1.0,1.37906015625,-2.48039291992,-9.66778688823,1.0,0.0,0.0,0.0,1.0,0.0,0.0,0.0,1.0
1463469813077439464,429,1463469813074854261,,11.6339817047,3.60577225685,-150.639358521,0.00999299995601,1.0,0.0,0.0,0.0,1.0,0.0,0.0,0.0,1.0,-6.0365858078,-5.48780488968,8.5365858078,1.0,0.0,0.0,0.0,1.0,0.0,0.0,0.0,1.0,1.54665427246,-2.13562802699,-9.48103915874,1.0,0.0,0.0,0.0,1.0,0.0,0.0,0.0,1.0
1463469813087388455,430,1463469813084907366,,11.5818977356,3.55067443848,-150.442947388,0.0100199999288,1.0,0.0,0.0,0.0,1.0,0.0,0.0,0.0,1.0,-6.70731735229,-5.42682933807,8.78048801422,1.0,0.0,0.0,0.0,1.0,0.0,0.0,0.0,1.0,1.36948334961,-2.17393510742,-9.35175110005,1.0,0.0,0.0,0.0,1.0,0.0,0.0,0.0,1.0
1463469813097162030,431,1463469813094861670,,11.5068855286,3.47709059715,-150.258102417,0.00998600013554,1.0,0.0,0.0,0.0,1.0,0.0,0.0,0.0,1.0,-8.23170757294,-6.7682929039,7.98780536652,1.0,0.0,0.0,0.0,1.0,0.0,0.0,0.0,1.0,1.25935007324,-2.09253210485,-9.58638403179,1.0,0.0,0.0,0.0,1.0,0.0,0.0,0.0,1.0
1463469813107216594,432,1463469813104936702,,11.4075670242,3.42617917061,-150.068206787,0.0101429997012,1.0,0.0,0.0,0.0,1.0,0.0,0.0,0.0,1.0,-9.75609779358,-5.85365867615,8.04878044128,1.0,0.0,0.0,0.0,1.0,0.0,0.0,0.0,1.0,1.47003981934,-1.9105729248,-9.41400034321,1.0,0.0,0.0,0.0,1.0,0.0,0.0,0.0,1.0
1463469813117277720,433,1463469813114975016,,11.2915334702,3.37001442909,-149.878448486,0.00985900033265,1.0,0.0,0.0,0.0,1.0,0.0,0.0,0.0,1.0,-10.7926826477,-6.34146356583,8.71951198578,1.0,0.0,0.0,0.0,1.0,0.0,0.0,0.0,1.0,1.45567460937,-1.74776721191,-9.52892319194,1.0,0.0,0.0,0.0,1.0,0.0,0.0,0.0,1.0
1463469813128481396,434,1463469813125675829,,11.162065506,3.29601740837,-149.698348999,0.0100090000778,1.0,0.0,0.0,0.0,1.0,0.0,0.0,0.0,1.0,-11.8292684555,-6.40243911743,7.43902492523,1.0,0.0,0.0,0.0,1.0,0.0,0.0,0.0,1.0,1.08217922346,-1.68072956543,-9.29907866352,1.0,0.0,0.0,0.0,1.0,0.0,0.0,0.0,1.0
1463469813139129865,435,1463469813136241433,,11.0393152237,3.22925496101,-149.530273438,0.0100010000169,1.0,0.0,0.0,0.0,1.0,0.0,0.0,0.0,1.0,-10.6097564697,-5.67073154449,6.09756088257,1.0,0.0,0.0,0.0,1.0,0.0,0.0,0.0,1.0,1.04866025408,-1.62805712891,-9.58638403179,1.0,0.0,0.0,0.0,1.0,0.0,0.0,0.0,1.0
1463469813147551255,436,1463469813144976833,,10.9592142105,3.15762996674,-149.389907837,0.0101450001821,1.0,0.0,0.0,0.0,1.0,0.0,0.0,0.0,1.0,-8.29268264771,-6.52439069748,3.10975623131,1.0,0.0,0.0,0.0,1.0,0.0,0.0,0.0,1.0,1.01514150391,-1.99676418457,-9.55286520855,1.0,0.0,0.0,0.0,1.0,0.0,0.0,0.0,1.0
1463469813157745454,437,1463469813154867438,,10.8803195953,3.10269665718,-149.268295288,0.0098479995504,1.0,0.0,0.0,0.0,1.0,0.0,0.0,0.0,1.0,-7.37804937363,-7.13414621353,1.76829278469,1.0,0.0,0.0,0.0,1.0,0.0,0.0,0.0,1.0,1.28808049316,-1.78128603516,-9.36132790669,1.0,0.0,0.0,0.0,1.0,0.0,0.0,0.0,1.0
1463469813167186060,438,1463469813164999762,,10.8007946014,3.03715753555,-149.146240234,0.00999899953604,1.0,0.0,0.0,0.0,1.0,0.0,0.0,0.0,1.0,-6.28048801422,-7.98780536652,1.8292683363,1.0,0.0,0.0,0.0,1.0,0.0,0.0,0.0,1.0,1.2737152832,-1.62326872559,-9.5432884019,1.0,0.0,0.0,0.0,1.0,0.0,0.0,0.0,1.0
1463469813177099270,439,1463469813174979378,,10.6948356628,2.95120334625,-149.011383057,0.0101190004498,1.0,0.0,0.0,0.0,1.0,0.0,0.0,0.0,1.0,-6.82926845551,-9.87804889679,3.41463422775,1.0,0.0,0.0,0.0,1.0,0.0,0.0,0.0,1.0,1.2737152832,-1.24498486328,-9.43794235981,1.0,0.0,0.0,0.0,1.0,0.0,0.0,0.0,1.0
1463469813187100448,440,1463469813184980348,,10.5853567123,2.85616922379,-148.854476929,0.00987899955362,1.0,0.0,0.0,0.0,1.0,0.0,0.0,0.0,1.0,-7.25609779358,-10.7926826477,6.15853643417,1.0,0.0,0.0,0.0,1.0,0.0,0.0,0.0,1.0,1.2976572998,-1.17315874041,-9.40921193989,1.0,0.0,0.0,0.0,1.0,0.0,0.0,0.0,1.0
1463469813198133812,441,1463469813194924287,,10.4813518524,2.73039460182,-148.661727905,0.00999999977648,1.0,0.0,0.0,0.0,1.0,0.0,0.0,0.0,1.0,-7.62195110321,-12.1341466904,9.75609779358,1.0,0.0,0.0,0.0,1.0,0.0,0.0,0.0,1.0,1.11569797363,-1.31681091309,-9.44273076313,1.0,0.0,0.0,0.0,1.0,0.0,0.0,0.0,1.0
1463469813208951187,442,1463469813205059320,,10.38418293,2.59077477455,-148.459381104,0.00999999977648,1.0,0.0,0.0,0.0,1.0,0.0,0.0,0.0,1.0,-6.70731735229,-12.6219520569,10.7926826477,1.0,0.0,0.0,0.0,1.0,0.0,0.0,0.0,1.0,0.986411083984,-1.28808049316,-9.64863327495,1.0,0.0,0.0,0.0,1.0,0.0,0.0,0.0,1.0
1463469813217449452,443,1463469813214966384,,10.3353710175,2.43536710739,-148.264633179,0.00999899953604,1.0,0.0,0.0,0.0,1.0,0.0,0.0,0.0,1.0,-5.06097555161,-14.4512205124,10.1829271317,1.0,0.0,0.0,0.0,1.0,0.0,0.0,0.0,1.0,0.991199487305,-1.85790048828,-9.70130512695,1.0,0.0,0.0,0.0,1.0,0.0,0.0,0.0,1.0
1463469813227100787,444,1463469813224912094,,10.2763528824,2.27096319199,-148.081329346,0.0100100003183,1.0,0.0,0.0,0.0,1.0,0.0,0.0,0.0,1.0,-4.81707286835,-14.6951217651,9.08536529541,1.0,0.0,0.0,0.0,1.0,0.0,0.0,0.0,1.0,0.814028564453,-1.65199914551,-9.74918916016,1.0,0.0,0.0,0.0,1.0,0.0,0.0,0.0,1.0
1463469813238352172,445,1463469813234909522,,10.2226848602,2.1005012989,-147.90725708,0.00999199971557,1.0,0.0,0.0,0.0,1.0,0.0,0.0,0.0,1.0,-4.51219558716,-15.1219511032,8.23170757294,1.0,0.0,0.0,0.0,1.0,0.0,0.0,0.0,1.0,0.713472094727,-1.68551796875,-9.68693991699,1.0,0.0,0.0,0.0,1.0,0.0,0.0,0.0,1.0
1463469813247943559,446,1463469813244999502,,10.1334838867,1.94552159309,-147.725601196,0.00999699998647,1.0,0.0,0.0,0.0,1.0,0.0,0.0,0.0,1.0,-5.97560977936,-14.3292694092,8.90243911743,1.0,0.0,0.0,0.0,1.0,0.0,0.0,0.0,1.0,0.828393774414,-1.30723410645,-9.64863327495,1.0,0.0,0.0,0.0,1.0,0.0,0.0,0.0,1.0
1463469813256868750,447,1463469813254941254,,10.0197124481,1.79778194427,-147.525466919,0.0100020002574,1.0,0.0,0.0,0.0,1.0,0.0,0.0,0.0,1.0,-6.89024400711,-14.0853662491,10.7317075729,1.0,0.0,0.0,0.0,1.0,0.0,0.0,0.0,1.0,0.952892260742,-1.04387185076,-9.8545340332,1.0,0.0,0.0,0.0,1.0,0.0,0.0,0.0,1.0
1463469813267307011,448,1463469813264899776,,9.92918777466,1.6497386694,-147.314697266,0.00999800022691,1.0,0.0,0.0,0.0,1.0,0.0,0.0,0.0,1.0,-7.50000047684,-13.2317075729,11.5243911743,1.0,0.0,0.0,0.0,1.0,0.0,0.0,0.0,1.0,0.799663354492,-1.5562310791,-9.89762966309,1.0,0.0,0.0,0.0,1.0,0.0,0.0,0.0,1.0
1463469813277370950,449,1463469813274921163,,9.8215341568,1.51337707043,-147.094619751,0.0100010000169,1.0,0.0,0.0,0.0,1.0,0.0,0.0,0.0,1.0,-8.65853691101,-12.8658542633,12.3780488968,1.0,0.0,0.0,0.0,1.0,0.0,0.0,0.0,1.0,0.933738647461,-1.44130939941,-9.86889924316,1.0,0.0,0.0,0.0,1.0,0.0,0.0,0.0,1.0
1463469813286896452,450,1463469813284940831,,9.72776794434,1.37964439392,-146.885253906,0.00999999977648,1.0,0.0,0.0,0.0,1.0,0.0,0.0,0.0,1.0,-8.10975551605,-12.7439022064,11.2195119858,1.0,0.0,0.0,0.0,1.0,0.0,0.0,0.0,1.0,0.909796630859,-1.61369191895,-10.0364933594,1.0,0.0,0.0,0.0,1.0,0.0,0.0,0.0,1.0
1463469813298141534,451,1463469813294882843,,9.6660528183,1.23758089542,-146.711868286,0.00999899953604,1.0,0.0,0.0,0.0,1.0,0.0,0.0,0.0,1.0,-5.54878091812,-13.1707324982,7.62195110321,1.0,0.0,0.0,0.0,1.0,0.0,0.0,0.0,1.0,0.708683691406,-1.7669208252,-10.1992990723,1.0,0.0,0.0,0.0,1.0,0.0,0.0,0.0,1.0
1463469813307291725,452,1463469813305001781,,9.63282871246,1.11133265495,-146.569824219,0.00999599974602,1.0,0.0,0.0,0.0,1.0,0.0,0.0,0.0,1.0,-2.19512200356,-13.841463089,4.57317066193,1.0,0.0,0.0,0.0,1.0,0.0,0.0,0.0,1.0,0.995987890625,-1.68072956543,-10.1945106689,1.0,0.0,0.0,0.0,1.0,0.0,0.0,0.0,1.0
1463469813320192220,453,1463469813314951137,,9.62664794922,0.997898161411,-146.441589355,0.0100039998069,1.0,0.0,0.0,0.0,1.0,0.0,0.0,0.0,1.0,1.03658533096,-13.4756097794,3.10975623131,1.0,0.0,0.0,0.0,1.0,0.0,0.0,0.0,1.0,1.09175595703,-1.5801730957,-10.1466266357,1.0,0.0,0.0,0.0,1.0,0.0,0.0,0.0,1.0
1463469813326673718,454,1463469813324912107,,9.62367725372,0.856061398983,-146.286346436,0.0100159998983,1.0,0.0,0.0,0.0,1.0,0.0,0.0,0.0,1.0,2.37804889679,-14.6951217651,6.0365858078,1.0,0.0,0.0,0.0,1.0,0.0,0.0,0.0,1.0,0.866701000977,-1.39821376953,-10.2088758789,1.0,0.0,0.0,0.0,1.0,0.0,0.0,0.0,1.0
1463469813336633699,455,1463469813334922244,,9.65137481689,0.726165890694,-146.108474731,0.00999899953604,1.0,0.0,0.0,0.0,1.0,0.0,0.0,0.0,1.0,4.45121955872,-15.1829271317,8.41463470459,1.0,0.0,0.0,0.0,1.0,0.0,0.0,0.0,1.0,1.22104284668,-1.5801730957,-10.1992990723,1.0,0.0,0.0,0.0,1.0,0.0,0.0,0.0,1.0
1463469813346919095,456,1463469813344881964,,9.70855140686,0.570931732655,-145.909301758,0.00998799968511,1.0,0.0,0.0,0.0,1.0,0.0,0.0,0.0,1.0,5.18292713165,-15.4268302917,10.6097564697,1.0,0.0,0.0,0.0,1.0,0.0,0.0,0.0,1.0,0.842758984375,-1.99197578125,-10.1418382324,1.0,0.0,0.0,0.0,1.0,0.0,0.0,0.0,1.0
1463469813356581629,457,1463469813354899549,,9.74477291107,0.409982413054,-145.690765381,0.00999699998647,1.0,0.0,0.0,0.0,1.0,0.0,0.0,0.0,1.0,5.24390268326,-15.975610733,12.6829271317,1.0,0.0,0.0,0.0,1.0,0.0,0.0,0.0,1.0,0.885854614258,-1.63284553223,-10.2902787354,1.0,0.0,0.0,0.0,1.0,0.0,0.0,0.0,1.0
1463469813367336035,458,1463469813364893852,,9.78069591522,0.24222612381,-145.459365845,0.0100020002574,1.0,0.0,0.0,0.0,1.0,0.0,0.0,0.0,1.0,5.30487823486,-16.2195110321,14.0243902206,1.0,0.0,0.0,0.0,1.0,0.0,0.0,0.0,1.0,0.794874951172,-1.5801730957,-9.95987890625,1.0,0.0,0.0,0.0,1.0,0.0,0.0,0.0,1.0
1463469813376492736,459,1463469813374905291,,9.79218196869,0.0712032467127,-145.212478638,0.0100020002574,1.0,0.0,0.0,0.0,1.0,0.0,0.0,0.0,1.0,4.63414621353,-15.9146347046,15.548781395,1.0,0.0,0.0,0.0,1.0,0.0,0.0,0.0,1.0,0.723048901367,-1.32638771973,-10.3237975586,1.0,0.0,0.0,0.0,1.0,0.0,0.0,0.0,1.0
1463469813386822038,460,1463469813384905948,,9.8193693161,-0.101486846805,-144.96232605,0.0100039998069,1.0,0.0,0.0,0.0,1.0,0.0,0.0,0.0,1.0,3.96341490746,-15.1219511032,15.7317075729,1.0,0.0,0.0,0.0,1.0,0.0,0.0,0.0,1.0,0.531512805087,-1.77170922852,-10.3908352051,1.0,0.0,0.0,0.0,1.0,0.0,0.0,0.0,1.0
1463469813398713057,461,1463469813394884731,,9.80788803101,-0.262565553188,-144.721160889,0.00999299995601,1.0,0.0,0.0,0.0,1.0,0.0,0.0,0.0,1.0,1.09756100178,-14.2073173523,14.6951217651,1.0,0.0,0.0,0.0,1.0,0.0,0.0,0.0,1.0,0.502782348633,-1.57538469238,-10.2232410889,1.0,0.0,0.0,0.0,1.0,0.0,0.0,0.0,1.0
1463469813407576061,462,1463469813405089451,,9.79786300659,-0.407117486,-144.500091553,0.0100050000474,1.0,0.0,0.0,0.0,1.0,0.0,0.0,0.0,1.0,-1.09756100178,-12.6829271317,12.3780488968,1.0,0.0,0.0,0.0,1.0,0.0,0.0,0.0,1.0,0.445321508789,-2.06859023437,-10.4770264648,1.0,0.0,0.0,0.0,1.0,0.0,0.0,0.0,1.0
1463469813417288698,463,1463469813414959484,,9.77720928192,-0.534352660179,-144.315673828,0.00999400019646,1.0,0.0,0.0,0.0,1.0,0.0,0.0,0.0,1.0,-2.86585378647,-11.7073173523,8.5365858078,1.0,0.0,0.0,0.0,1.0,0.0,0.0,0.0,1.0,0.430956298828,-2.17393510742,-10.3237975586,1.0,0.0,0.0,0.0,1.0,0.0,0.0,0.0,1.0
1463469813426702638,464,1463469813424889985,,9.7095117569,-0.643038451672,-144.159072876,0.0100039998069,1.0,0.0,0.0,0.0,1.0,0.0,0.0,0.0,1.0,-5.12195110321,-9.87804889679,5.36585378647,1.0,0.0,0.0,0.0,1.0,0.0,0.0,0.0,1.0,0.320823022461,-1.74776721191,-10.5488525146,1.0,0.0,0.0,0.0,1.0,0.0,0.0,0.0,1.0
1463469813436760327,465,1463469813434919341,,9.61293792725,-0.737075448036,-144.017929077,0.00999699998647,1.0,0.0,0.0,0.0,1.0,0.0,0.0,0.0,1.0,-6.64634132385,-9.51219558716,3.71951246262,1.0,0.0,0.0,0.0,1.0,0.0,0.0,0.0,1.0,0.440533105469,-1.44609780273,-10.3381627686,1.0,0.0,0.0,0.0,1.0,0.0,0.0,0.0,1.0
1463469813446918640,466,1463469813444856665,,9.49186420441,-0.82421028614,-143.866836548,0.00999800022691,1.0,0.0,0.0,0.0,1.0,0.0,0.0,0.0,1.0,-8.17073154449,-9.20731735229,4.63414621353,1.0,0.0,0.0,0.0,1.0,0.0,0.0,0.0,1.0,0.512359155273,-1.2497732666,-10.2328178955,1.0,0.0,0.0,0.0,1.0,0.0,0.0,0.0,1.0
1463469813456967110,467,1463469813454886698,,9.35468101501,-0.907040715218,-143.700469971,0.010006999597,1.0,0.0,0.0,0.0,1.0,0.0,0.0,0.0,1.0,-9.81707286835,-9.02439117432,6.09756088257,1.0,0.0,0.0,0.0,1.0,0.0,0.0,0.0,1.0,0.579396801758,-1.24019645996,-10.1992990723,1.0,0.0,0.0,0.0,1.0,0.0,0.0,0.0,1.0
1463469813467024070,468,1463469813464938136,,9.2178144455,-1.00013577938,-143.512420654,0.0100050000474,1.0,0.0,0.0,0.0,1.0,0.0,0.0,0.0,1.0,-11.1585359573,-9.51219558716,8.35365867615,1.0,0.0,0.0,0.0,1.0,0.0,0.0,0.0,1.0,0.536301208408,-1.5083470459,-10.4099888184,1.0,0.0,0.0,0.0,1.0,0.0,0.0,0.0,1.0
1463469813476679155,469,1463469813474904888,,9.04555892944,-1.10017359257,-143.295928955,0.00999699998647,1.0,0.0,0.0,0.0,1.0,0.0,0.0,0.0,1.0,-13.7195129395,-10.1219511032,11.2804880142,1.0,0.0,0.0,0.0,1.0,0.0,0.0,0.0,1.0,0.569819995117,-1.2976572998,-10.2902787354,1.0,0.0,0.0,0.0,1.0,0.0,0.0,0.0,1.0
1463469813487146791,470,1463469813484837212,,8.85020828247,-1.23192000389,-143.058242798,0.0099950004369,1.0,0.0,0.0,0.0,1.0,0.0,0.0,0.0,1.0,-15.548781395,-12.3780488968,13.7195129395,1.0,0.0,0.0,0.0,1.0,0.0,0.0,0.0,1.0,0.435744702148,-1.19710090314,-10.3285859619,1.0,0.0,0.0,0.0,1.0,0.0,0.0,0.0,1.0
1463469813496471773,471,1463469813494837766,,8.62919616699,-1.37108182907,-142.796524048,0.00999999977648,1.0,0.0,0.0,0.0,1.0,0.0,0.0,0.0,1.0,-16.158536911,-13.2926826477,16.158536911,1.0,0.0,0.0,0.0,1.0,0.0,0.0,0.0,1.0,0.483628735352,-0.804451757813,-10.1083194092,1.0,0.0,0.0,0.0,1.0,0.0,0.0,0.0,1.0
1463469813508793155,472,1463469813504929048,,8.40529727936,-1.5328284502,-142.508255005,0.00999400019646,1.0,0.0,0.0,0.0,1.0,0.0,0.0,0.0,1.0,-16.158536911,-14.2682924271,18.9024391174,1.0,0.0,0.0,0.0,1.0,0.0,0.0,0.0,1.0,0.287304199219,-0.756567724609,-10.3908352051,1.0,0.0,0.0,0.0,1.0,0.0,0.0,0.0,1.0
1463469813521513339,473,1463469813515008143,,8.18385219574,-1.70567274094,-142.197052002,0.0100010000169,1.0,0.0,0.0,0.0,1.0,0.0,0.0,0.0,1.0,-16.0975608826,-14.6341466904,21.158536911,1.0,0.0,0.0,0.0,1.0,0.0,0.0,0.0,1.0,0.15801730957,-0.76135612793,-10.1466266357,1.0,0.0,0.0,0.0,1.0,0.0,0.0,0.0,1.0
1463469813527613379,474,1463469813525157238,,7.96107673645,-1.88006603718,-141.865036011,0.0101309996098,1.0,0.0,0.0,0.0,1.0,0.0,0.0,0.0,1.0,-14.8780498505,-14.5121955872,22.682926178,1.0,0.0,0.0,0.0,1.0,0.0,0.0,0.0,1.0,0.134075302102,-0.550666381836,-10.060435376,1.0,0.0,0.0,0.0,1.0,0.0,0.0,0.0,1.0
1463469813537327735,475,1463469813534847948,,7.74789905548,-2.05915665627,-141.528060913,0.00987700000405,1.0,0.0,0.0,0.0,1.0,0.0,0.0,0.0,1.0,-14.3902444839,-15.1219511032,24.0243911743,1.0,0.0,0.0,0.0,1.0,0.0,0.0,0.0,1.0,0.0574608398438,-0.517147558594,-9.95509050293,1.0,0.0,0.0,0.0,1.0,0.0,0.0,0.0,1.0
1463469813547507663,476,1463469813544891731,,7.54333972931,-2.23547792435,-141.166107178,0.0100010000169,1.0,0.0,0.0,0.0,1.0,0.0,0.0,0.0,1.0,-13.1707324982,-14.3902444839,25.9146347046,1.0,0.0,0.0,0.0,1.0,0.0,0.0,0.0,1.0,0.00957680664062,-0.493205541992,-9.89762966309,1.0,0.0,0.0,0.0,1.0,0.0,0.0,0.0,1.0
1463469813557343581,477,1463469813554828899,,7.34626483917,-2.409740448,-140.791427612,0.00999699998647,1.0,0.0,0.0,0.0,1.0,0.0,0.0,0.0,1.0,-12.6829271317,-14.3902444839,27.1341457367,1.0,0.0,0.0,0.0,1.0,0.0,0.0,0.0,1.0,0.0191536132812,-0.521935925381,-9.74440075684,1.0,0.0,0.0,0.0,1.0,0.0,0.0,0.0,1.0
1463469813567428822,478,1463469813564848567,,7.15928125381,-2.5756919384,-140.399597168,0.00999899953604,1.0,0.0,0.0,0.0,1.0,0.0,0.0,0.0,1.0,-12.0121955872,-13.9024391174,28.7195110321,1.0,0.0,0.0,0.0,1.0,0.0,0.0,0.0,1.0,0.0622492431641,-0.574608398438,-9.66299848491,1.0,0.0,0.0,0.0,1.0,0.0,0.0,0.0,1.0
1463469813577150938,479,1463469813574835735,,6.96886348724,-2.74185347557,-139.997894287,0.0100039998069,1.0,0.0,0.0,0.0,1.0,0.0,0.0,0.0,1.0,-12.0731716156,-14.1463422775,29.6341457367,1.0,0.0,0.0,0.0,1.0,0.0,0.0,0.0,1.0,0.0718260498047,-0.531512805087,-9.82101520996,1.0,0.0,0.0,0.0,1.0,0.0,0.0,0.0,1.0
1463469813587476283,480,1463469813584872382,,6.77879524231,-2.90714716911,-139.573944092,0.0100039998069,1.0,0.0,0.0,0.0,1.0,0.0,0.0,0.0,1.0,-11.7682924271,-14.0853662491,31.7682914734,1.0,0.0,0.0,0.0,1.0,0.0,0.0,0.0,1.0,0.067037651051,-0.474051928711,-9.49061596538,1.0,0.0,0.0,0.0,1.0,0.0,0.0,0.0,1.0
1463469813597473607,481,1463469813594869966,,6.58869504929,-3.06865668297,-139.12461853,0.0100039998069,1.0,0.0,0.0,0.0,1.0,0.0,0.0,0.0,1.0,-11.6463422775,-13.9024391174,34.2073173523,1.0,0.0,0.0,0.0,1.0,0.0,0.0,0.0,1.0,0.0957680664062,-0.45968671875,-9.40442353657,1.0,0.0,0.0,0.0,1.0,0.0,0.0,0.0,1.0
1463469813607363536,482,1463469813604980572,,6.39732599258,-3.2475771904,-138.655563354,0.00999100040644,1.0,0.0,0.0,0.0,1.0,0.0,0.0,0.0,1.0,-12.3170728683,-14.6341466904,36.2804908752,1.0,0.0,0.0,0.0,1.0,0.0,0.0,0.0,1.0,-0.0909796630859,-0.565031591797,-9.56723041851,1.0,0.0,0.0,0.0,1.0,0.0,0.0,0.0,1.0
1463469813617690443,483,1463469813615507530,,6.17885351181,-3.43044090271,-138.139297485,0.0103580001742,1.0,0.0,0.0,0.0,1.0,0.0,0.0,0.0,1.0,-12.7439022064,-14.7560987473,39.0243911743,1.0,0.0,0.0,0.0,1.0,0.0,0.0,0.0,1.0,-0.0335188255255,-0.320823022461,-9.2942902602,1.0,0.0,0.0,0.0,1.0,0.0,0.0,0.0,1.0
1463469813626992977,484,1463469813625126262,,5.96552085876,-3.61023187637,-137.647735596,0.00963800027966,1.0,0.0,0.0,0.0,1.0,0.0,0.0,0.0,1.0,-13.2317075729,-15.3048791885,40.1219520569,1.0,0.0,0.0,0.0,1.0,0.0,0.0,0.0,1.0,-0.148440512063,-0.229843359375,-9.2416184082,1.0,0.0,0.0,0.0,1.0,0.0,0.0,0.0,1.0
1463469813637490665,485,1463469813635601241,,5.74567222595,-3.79938817024,-137.113967896,0.0100119998679,1.0,0.0,0.0,0.0,1.0,0.0,0.0,0.0,1.0,-13.658536911,-15.3048791885,42.3780517578,1.0,0.0,0.0,0.0,1.0,0.0,0.0,0.0,1.0,-0.210689746094,-0.344765039063,-9.23683000488,1.0,0.0,0.0,0.0,1.0,0.0,0.0,0.0,1.0
1463469813647248302,486,1463469813644923984,,5.5024600029,-3.98995089531,-136.565979004,0.0099849998951,1.0,0.0,0.0,0.0,1.0,0.0,0.0,0.0,1.0,-15.4268302917,-15.0000009537,43.7804870605,1.0,0.0,0.0,0.0,1.0,0.0,0.0,0.0,1.0,-0.344765039063,-0.258573779297,-9.53849999858,1.0,0.0,0.0,0.0,1.0,0.0,0.0,0.0,1.0
1463469813657257918,487,1463469813655049693,,5.26681566238,-4.17881774902,-136.004638672,0.0101640000939,1.0,0.0,0.0,0.0,1.0,0.0,0.0,0.0,1.0,-16.2804889679,-15.3658533096,44.2073173523,1.0,0.0,0.0,0.0,1.0,0.0,0.0,0.0,1.0,-0.258573779297,-0.584185168546,-9.34217429341,1.0,0.0,0.0,0.0,1.0,0.0,0.0,0.0,1.0
1463469813668023366,488,1463469813665474412,,5.03052520752,-4.38076066971,-135.468933105,0.00984099972993,1.0,0.0,0.0,0.0,1.0,0.0,0.0,0.0,1.0,-17.6829280853,-15.975610733,43.4146347046,1.0,0.0,0.0,0.0,1.0,0.0,0.0,0.0,1.0,-0.579396801758,-0.684741674805,-9.66778688823,1.0,0.0,0.0,0.0,1.0,0.0,0.0,0.0,1.0
1463469813679471885,489,1463469813674922467,,4.7922501564,-4.58035612106,-134.926040649,0.00999699998647,1.0,0.0,0.0,0.0,1.0,0.0,0.0,0.0,1.0,-18.7195110321,-17.4390239716,43.4146347046,1.0,0.0,0.0,0.0,1.0,0.0,0.0,0.0,1.0,-0.3064578125,-0.881066210937,-9.62947966167,1.0,0.0,0.0,0.0,1.0,0.0,0.0,0.0,1.0
1463469813687223589,490,1463469813684883749,,4.53311777115,-4.78047227859,-134.399139404,0.010006999597,1.0,0.0,0.0,0.0,1.0,0.0,0.0,0.0,1.0,-18.7195110321,-17.7439022064,41.5243911743,1.0,0.0,0.0,0.0,1.0,0.0,0.0,0.0,1.0,-0.363918652344,-0.502782348633,-9.7587659668,1.0,0.0,0.0,0.0,1.0,0.0,0.0,0.0,1.0
1463469813697351277,491,1463469813694861595,,4.32797193527,-5.00044822693,-133.902664185,0.0099950004369,1.0,0.0,0.0,0.0,1.0,0.0,0.0,0.0,1.0,-17.0121955872,-18.9634151459,38.8414649963,1.0,0.0,0.0,0.0,1.0,0.0,0.0,0.0,1.0,-0.636857641602,-1.13006318359,-10.1562034424,1.0,0.0,0.0,0.0,1.0,0.0,0.0,0.0,1.0
1463469813709879117,492,1463469813705109543,,4.09796142578,-5.20943832397,-133.430709839,0.0100079998374,1.0,0.0,0.0,0.0,1.0,0.0,0.0,0.0,1.0,-17.9268302917,-19.6341457367,36.1585350037,1.0,0.0,0.0,0.0,1.0,0.0,0.0,0.0,1.0,-0.402225878906,-0.77093293457,-9.72045874023,1.0,0.0,0.0,0.0,1.0,0.0,0.0,0.0,1.0
1463469813717680040,493,1463469813715518846,,3.86520791054,-5.42621946335,-132.975997925,0.0099950004369,1.0,0.0,0.0,0.0,1.0,0.0,0.0,0.0,1.0,-18.7804889679,-20.5487823486,34.5121955872,1.0,0.0,0.0,0.0,1.0,0.0,0.0,0.0,1.0,-0.488417138672,-0.857124194336,-10.0364933594,1.0,0.0,0.0,0.0,1.0,0.0,0.0,0.0,1.0
1463469813727318302,494,1463469813725037473,,3.61011624336,-5.64981937408,-132.521575928,0.0099950004369,1.0,0.0,0.0,0.0,1.0,0.0,0.0,0.0,1.0,-20.3048782349,-22.5609760284,34.4512214661,1.0,0.0,0.0,0.0,1.0,0.0,0.0,0.0,1.0,-0.316034619141,-0.699106884766,-9.7587659668,1.0,0.0,0.0,0.0,1.0,0.0,0.0,0.0,1.0
1463469813737018179,495,1463469813735082506,,3.28615403175,-5.86356258392,-132.047668457,0.00999699998647,1.0,0.0,0.0,0.0,1.0,0.0,0.0,0.0,1.0,-22.1951236725,-22.9268302917,35.7926826477,1.0,0.0,0.0,0.0,1.0,0.0,0.0,0.0,1.0,-0.148440512063,0.15322890625,-10.1322614258,1.0,0.0,0.0,0.0,1.0,0.0,0.0,0.0,1.0
1463469813749622061,496,1463469813745071080,,2.98658394814,-6.11310720444,-131.586883545,0.0100140003487,1.0,0.0,0.0,0.0,1.0,0.0,0.0,0.0,1.0,-21.4634151459,-25.7317085266,34.5731735229,1.0,0.0,0.0,0.0,1.0,0.0,0.0,0.0,1.0,-0.383072265625,-0.114921679688,-10.2423947021,1.0,0.0,0.0,0.0,1.0,0.0,0.0,0.0,1.0
1463469813757342983,497,1463469813755464914,,2.70515799522,-6.36705207825,-131.141983032,0.009990000166,1.0,0.0,0.0,0.0,1.0,0.0,0.0,0.0,1.0,-19.7560977936,-26.7073173523,32.9878044128,1.0,0.0,0.0,0.0,1.0,0.0,0.0,0.0,1.0,-0.383072265625,-0.0718260498047,-9.86889924316,1.0,0.0,0.0,0.0,1.0,0.0,0.0,0.0,1.0
1463469813767713276,498,1463469813765913435,,2.45288467407,-6.62818050385,-130.721817017,0.0100109996274,1.0,0.0,0.0,0.0,1.0,0.0,0.0,0.0,1.0,-16.7682933807,-27.6219520569,30.3048782349,1.0,0.0,0.0,0.0,1.0,0.0,0.0,0.0,1.0,-0.45968671875,-0.00478840332031,-10.2807019287,1.0,0.0,0.0,0.0,1.0,0.0,0.0,0.0,1.0
1463469813778019141,499,1463469813775819249,,2.26072454453,-6.91398954391,-130.33883667,0.0102089997381,1.0,0.0,0.0,0.0,1.0,0.0,0.0,0.0,1.0,-12.0731716156,-29.3292694092,25.975610733,1.0,0.0,0.0,0.0,1.0,0.0,0.0,0.0,1.0,-0.588973571866,-0.201112939453,-9.97424411621,1.0,0.0,0.0,0.0,1.0,0.0,0.0,0.0,1.0
1463469813788624485,500,1463469813786073344,,2.09864139557,-7.1860909462,-129.98487854,0.00997400004417,1.0,0.0,0.0,0.0,1.0,0.0,0.0,0.0,1.0,-8.35365867615,-29.8780498505,23.7195129395,1.0,0.0,0.0,0.0,1.0,0.0,0.0,0.0,1.0,-0.450109912109,0.0478840332031,-9.96945571289,1.0,0.0,0.0,0.0,1.0,0.0,0.0,0.0,1.0
1463469813798074466,501,1463469813796091710,,1.95446372032,-7.46632432938,-129.625595093,0.0101749999449,1.0,0.0,0.0,0.0,1.0,0.0,0.0,0.0,1.0,-6.34146356583,-30.4878044128,23.475610733,1.0,0.0,0.0,0.0,1.0,0.0,0.0,0.0,1.0,-0.45968671875,0.0383072265625,-10.0795889893,1.0,0.0,0.0,0.0,1.0,0.0,0.0,0.0,1.0
1463469813807503615,502,1463469813805123046,,1.82947468758,-7.73414373398,-129.260467529,0.00986700039357,1.0,0.0,0.0,0.0,1.0,0.0,0.0,0.0,1.0,-4.69512224197,-32.0121955872,25.1219520569,1.0,0.0,0.0,0.0,1.0,0.0,0.0,0.0,1.0,-0.167594116211,0.0191536132812,-9.92636008301,1.0,0.0,0.0,0.0,1.0,0.0,0.0,0.0,1.0
1463469813819473071,503,1463469813815067715,,1.72366476059,-8.01235866547,-128.890304565,0.009766000323,1.0,0.0,0.0,0.0,1.0,0.0,0.0,0.0,1.0,-4.81707286835,-32.1951217651,26.2195129395,1.0,0.0,0.0,0.0,1.0,0.0,0.0,0.0,1.0,-0.435744702148,-0.363918652344,-10.1083194092,1.0,0.0,0.0,0.0,1.0,0.0,0.0,0.0,1.0
1463469813827182118,504,1463469813824933893,,1.62088274956,-8.31900310516,-128.491577148,0.00999899953604,1.0,0.0,0.0,0.0,1.0,0.0,0.0,0.0,1.0,-5.0,-33.7195129395,28.2926845551,1.0,0.0,0.0,0.0,1.0,0.0,0.0,0.0,1.0,-0.627280834961,-0.584185168546,-10.4770264648,1.0,0.0,0.0,0.0,1.0,0.0,0.0,0.0,1.0
1463469813838259024,505,1463469813835269186,,1.50212156773,-8.62045669556,-128.076187134,0.00999999977648,1.0,0.0,0.0,0.0,1.0,0.0,0.0,0.0,1.0,-6.70731735229,-34.3292694092,29.9390258789,1.0,0.0,0.0,0.0,1.0,0.0,0.0,0.0,1.0,-0.46447512207,-0.651222851562,-10.1705686523,1.0,0.0,0.0,0.0,1.0,0.0,0.0,0.0,1.0
1463469813848042598,506,1463469813846177862,,1.3488048315,-8.93171215057,-127.62802887,0.010208000429,1.0,0.0,0.0,0.0,1.0,0.0,0.0,0.0,1.0,-8.41463470459,-33.8414649963,32.0121955872,1.0,0.0,0.0,0.0,1.0,0.0,0.0,0.0,1.0,-0.699106884766,-0.488417138672,-10.4818148682,1.0,0.0,0.0,0.0,1.0,0.0,0.0,0.0,1.0
1463469813856792477,507,1463469813854998262,,1.19458794594,-9.23387145996,-127.194145203,0.0098019996658,1.0,0.0,0.0,0.0,1.0,0.0,0.0,0.0,1.0,-9.5731716156,-34.634147644,32.3780517578,1.0,0.0,0.0,0.0,1.0,0.0,0.0,0.0,1.0,-0.675164868164,-0.584185168546,-10.2376062988,1.0,0.0,0.0,0.0,1.0,0.0,0.0,0.0,1.0
1463469813867316571,508,1463469813865104440,,1.03193330765,-9.53600978851,-126.744049072,0.00999299995601,1.0,0.0,0.0,0.0,1.0,0.0,0.0,0.0,1.0,-10.4268293381,-33.9634132385,33.1097564697,1.0,0.0,0.0,0.0,1.0,0.0,0.0,0.0,1.0,-0.780509741211,-0.694318481445,-10.4626612549,1.0,0.0,0.0,0.0,1.0,0.0,0.0,0.0,1.0
1463469813877330822,509,1463469813874890879,,0.85652256012,-9.83360481262,-126.297683716,0.00999199971557,1.0,0.0,0.0,0.0,1.0,0.0,0.0,0.0,1.0,-11.5853662491,-33.5975608826,32.6219520569,1.0,0.0,0.0,0.0,1.0,0.0,0.0,0.0,1.0,-0.847547387695,-0.675164868164,-10.4770264648,1.0,0.0,0.0,0.0,1.0,0.0,0.0,0.0,1.0
1463469813887421376,510,1463469813884949453,,0.662360548973,-10.1213493347,-125.849212646,0.0100010000169,1.0,0.0,0.0,0.0,1.0,0.0,0.0,0.0,1.0,-12.3170728683,-33.4756126404,32.5,1.0,0.0,0.0,0.0,1.0,0.0,0.0,0.0,1.0,-0.780509741211,-0.488417138672,-10.7068698242,1.0,0.0,0.0,0.0,1.0,0.0,0.0,0.0,1.0
1463469813896952815,511,1463469813894893861,,0.395020753145,-10.4489774704,-125.382225037,0.00999999977648,1.0,0.0,0.0,0.0,1.0,0.0,0.0,0.0,1.0,-12.3780488968,-32.9878044128,32.9268302917,1.0,0.0,0.0,0.0,1.0,0.0,0.0,0.0,1.0,-1.53707746582,0.756567724609,-9.53371159526,1.0,0.0,0.0,0.0,1.0,0.0,0.0,0.0,1.0
1463469813909249198,512,1463469813905166654,,0.181687071919,-10.7072973251,-124.937812805,0.0100050000474,1.0,0.0,0.0,0.0,1.0,0.0,0.0,0.0,1.0,-9.45121955872,-30.975610733,30.9146327972,1.0,0.0,0.0,0.0,1.0,0.0,0.0,0.0,1.0,-0.794874951172,0.402225878906,-9.68693991699,1.0,0.0,0.0,0.0,1.0,0.0,0.0,0.0,1.0
1463469813917365536,513,1463469813915225019,,0.0392568297684,-10.9489078522,-124.519882202,0.00999800022691,1.0,0.0,0.0,0.0,1.0,0.0,0.0,0.0,1.0,-10.1219511032,-33.2317085266,29.6341457367,1.0,0.0,0.0,0.0,1.0,0.0,0.0,0.0,1.0,-0.263362164351,-1.24019645996,-13.9342536621,1.0,0.0,0.0,0.0,1.0,0.0,0.0,0.0,1.0
1463469813927437652,514,1463469813924982448,,-0.124423436821,-11.2429924011,-124.13117981,0.0100039998069,1.0,0.0,0.0,0.0,1.0,0.0,0.0,0.0,1.0,-8.59756088257,-30.0000019073,25.8536586761,1.0,0.0,0.0,0.0,1.0,0.0,0.0,0.0,1.0,-1.96324536133,-0.15801730957,-11.0564232666,1.0,0.0,0.0,0.0,1.0,0.0,0.0,0.0,1.0
1463469813937417841,515,1463469813934942689,,-0.277584910393,-11.4242219925,-123.747589111,0.00999699998647,1.0,0.0,0.0,0.0,1.0,0.0,0.0,0.0,1.0,-6.58536624908,-25.3658542633,25.1219520569,1.0,0.0,0.0,0.0,1.0,0.0,0.0,0.0,1.0,-0.92416184082,0.0718260498047,-14.1497318115,1.0,0.0,0.0,0.0,1.0,0.0,0.0,0.0,1.0
1463469813946122772,516,1463469813944877410,,-0.343634992838,-11.6973457336,-123.413070679,0.0100050000474,1.0,0.0,0.0,0.0,1.0,0.0,0.0,0.0,1.0,-2.80487799644,-27.8048782349,21.0365848541,1.0,0.0,0.0,0.0,1.0,0.0,0.0,0.0,1.0,-2.25533796387,-0.799663354492,-11.8321446045,1.0,0.0,0.0,0.0,1.0,0.0,0.0,0.0,1.0
1463469813957605666,517,1463469813955166087,,-0.367074251175,-11.9237928391,-123.094917297,0.0099950004369,1.0,0.0,0.0,0.0,1.0,0.0,0.0,0.0,1.0,-0.731707334518,-25.182926178,19.8780498505,1.0,0.0,0.0,0.0,1.0,0.0,0.0,0.0,1.0,-2.04464821777,-1.32638771973,-12.8760165283,1.0,0.0,0.0,0.0,1.0,0.0,0.0,0.0,1.0
1463469813967236220,518,1463469813965029141,,-0.401330113411,-12.0720796585,-122.779800415,0.00999999977648,1.0,0.0,0.0,0.0,1.0,0.0,0.0,0.0,1.0,0.426829278469,-17.5000019073,19.1463432312,1.0,0.0,0.0,0.0,1.0,0.0,0.0,0.0,1.0,-2.14520483363,-0.828393774414,-13.3596452637,1.0,0.0,0.0,0.0,1.0,0.0,0.0,0.0,1.0
1463469813977279273,519,1463469813974869539,,-0.415933102369,-12.2172327042,-122.475967407,0.0100010000169,1.0,0.0,0.0,0.0,1.0,0.0,0.0,0.0,1.0,2.37804889679,-19.2682914734,17.9878044128,1.0,0.0,0.0,0.0,1.0,0.0,0.0,0.0,1.0,-1.66636435547,-0.775721337891,-13.2590887939,1.0,0.0,0.0,0.0,1.0,0.0,0.0,0.0,1.0
1463469813988525554,520,1463469813985317018,,-0.313774317503,-12.30950737,-122.193267822,0.00999999977648,1.0,0.0,0.0,0.0,1.0,0.0,0.0,0.0,1.0,3.04878044128,-14.2682924271,18.2926826477,1.0,0.0,0.0,0.0,1.0,0.0,0.0,0.0,1.0,-1.5322890625,-3.33272871094,-12.8281324951,1.0,0.0,0.0,0.0,1.0,0.0,0.0,0.0,1.0
1463469813999886209,521,1463469813995273301,,-0.377771139145,-12.3780059814,-121.863517761,0.0100100003183,1.0,0.0,0.0,0.0,1.0,0.0,0.0,0.0,1.0,3.90243911743,-12.1341466904,19.2682914734,1.0,0.0,0.0,0.0,1.0,0.0,0.0,0.0,1.0,-1.19231249982,0.45489831543,-9.94551369629,1.0,0.0,0.0,0.0,1.0,0.0,0.0,0.0,1.0
1463469814007407236,522,1463469814004967032,,-0.513469517231,-12.4375705719,-121.51008606,0.00999100040644,1.0,0.0,0.0,0.0,1.0,0.0,0.0,0.0,1.0,4.02439022064,-10.6097564697,20.1219520569,1.0,0.0,0.0,0.0,1.0,0.0,0.0,0.0,1.0,-0.905008227539,1.17315874041,-6.80910952148,1.0,0.0,0.0,0.0,1.0,0.0,0.0,0.0,1.0
1463469814016366333,523,1463469814015071231,,-0.435823023319,-12.5079069138,-121.208946228,0.00999699998647,1.0,0.0,0.0,0.0,1.0,0.0,0.0,0.0,1.0,5.97560977936,-7.31707334518,19.0853652954,1.0,0.0,0.0,0.0,1.0,0.0,0.0,0.0,1.0,-2.54264216309,-1.97282216797,-11.8752402344,1.0,0.0,0.0,0.0,1.0,0.0,0.0,0.0,1.0
1463469814027577717,524,1463469814024965847,,-0.487089037895,-12.507853508,-120.87928772,0.0100060002878,1.0,0.0,0.0,0.0,1.0,0.0,0.0,0.0,1.0,5.24390268326,-7.43902492523,19.2682914734,1.0,0.0,0.0,0.0,1.0,0.0,0.0,0.0,1.0,-0.675164868164,0.373495458984,-7.88171186523,1.0,0.0,0.0,0.0,1.0,0.0,0.0,0.0,1.0
1463469814037684208,525,1463469814035024265,,-0.456470191479,-12.5454483032,-120.563491821,0.00999599974602,1.0,0.0,0.0,0.0,1.0,0.0,0.0,0.0,1.0,5.06097555161,-6.58536624908,19.7560977936,1.0,0.0,0.0,0.0,1.0,0.0,0.0,0.0,1.0,-1.99197578125,-1.18273554705,-11.7986257812,1.0,0.0,0.0,0.0,1.0,0.0,0.0,0.0,1.0
1463469814046439712,526,1463469814045161225,,-0.570163428783,-12.5165843964,-120.193000793,0.00999199971557,1.0,0.0,0.0,0.0,1.0,0.0,0.0,0.0,1.0,5.30487823486,-7.01219511032,22.0731716156,1.0,0.0,0.0,0.0,1.0,0.0,0.0,0.0,1.0,-0.296881024126,1.04387185076,-7.10599052734,1.0,0.0,0.0,0.0,1.0,0.0,0.0,0.0,1.0
1463469814059463436,527,1463469814055020893,,-0.727732658386,-12.5250787735,-119.811271667,0.0100039998069,1.0,0.0,0.0,0.0,1.0,0.0,0.0,0.0,1.0,5.24390268326,-6.82926845551,22.1951236725,1.0,0.0,0.0,0.0,1.0,0.0,0.0,0.0,1.0,-0.521935925381,1.05823706072,-4.63996281738,1.0,0.0,0.0,0.0,1.0,0.0,0.0,0.0,1.0
1463469814067244515,528,1463469814064977384,,-0.834134578705,-12.5473613739,-119.432312012,0.0100039998069,1.0,0.0,0.0,0.0,1.0,0.0,0.0,0.0,1.0,6.7682929039,-7.74390268326,22.682926178,1.0,0.0,0.0,0.0,1.0,0.0,0.0,0.0,1.0,-0.790086547852,1.03908344744,-6.37336481934,1.0,0.0,0.0,0.0,1.0,0.0,0.0,0.0,1.0
1463469814079492824,529,1463469814075305176,,-0.81082701683,-12.5541791916,-119.079956055,0.0100020002574,1.0,0.0,0.0,0.0,1.0,0.0,0.0,0.0,1.0,7.62195110321,-7.62195110321,22.682926178,1.0,0.0,0.0,0.0,1.0,0.0,0.0,0.0,1.0,-1.2976572998,-0.61770402832,-13.0148802246,1.0,0.0,0.0,0.0,1.0,0.0,0.0,0.0,1.0
1463469814087361767,530,1463469814084845470,,-0.788047671318,-12.5033721924,-118.730056763,0.00999999977648,1.0,0.0,0.0,0.0,1.0,0.0,0.0,0.0,1.0,8.65853691101,-7.92682981491,22.1951236725,1.0,0.0,0.0,0.0,1.0,0.0,0.0,0.0,1.0,0.076614453125,-0.210689746094,-7.8960770752,1.0,0.0,0.0,0.0,1.0,0.0,0.0,0.0,1.0
1463469814096339927,531,1463469814094861805,,-0.958676278591,-12.4870662689,-118.32169342,0.00999299995601,1.0,0.0,0.0,0.0,1.0,0.0,0.0,0.0,1.0,6.58536624908,-8.04878044128,24.3292694092,1.0,0.0,0.0,0.0,1.0,0.0,0.0,0.0,1.0,-0.258573779297,1.53707746582,-5.64552751465,1.0,0.0,0.0,0.0,1.0,0.0,0.0,0.0,1.0
1463469814107316208,532,1463469814104848869,,-1.09700787067,-12.5349473953,-117.914207458,0.0100039998069,1.0,0.0,0.0,0.0,1.0,0.0,0.0,0.0,1.0,6.70731735229,-7.01219511032,24.8780498505,1.0,0.0,0.0,0.0,1.0,0.0,0.0,0.0,1.0,-1.14921679688,1.33596452637,-6.13873305664,1.0,0.0,0.0,0.0,1.0,0.0,0.0,0.0,1.0
1463469814116718273,533,1463469814115065515,,-1.08337247372,-12.5647821426,-117.555053711,0.00999899953604,1.0,0.0,0.0,0.0,1.0,0.0,0.0,0.0,1.0,7.68292665482,-8.29268264771,23.1097564697,1.0,0.0,0.0,0.0,1.0,0.0,0.0,0.0,1.0,-1.28808049316,-0.263362164351,-9.75397756348,1.0,0.0,0.0,0.0,1.0,0.0,0.0,0.0,1.0
1463469814130439548,534,1463469814126761899,,-1.05593049526,-12.603266716,-117.233436584,0.0101199997589,1.0,0.0,0.0,0.0,1.0,0.0,0.0,0.0,1.0,8.47560977936,-7.80487823486,19.0243911743,1.0,0.0,0.0,0.0,1.0,0.0,0.0,0.0,1.0,-1.69509477539,-0.234631762695,-10.9558667969,1.0,0.0,0.0,0.0,1.0,0.0,0.0,0.0,1.0
1463469814137700471,535,1463469814135111518,,-0.976384520531,-12.6477556229,-116.962646484,0.0101129999384,1.0,0.0,0.0,0.0,1.0,0.0,0.0,0.0,1.0,10.0609760284,-9.5731716156,14.6951217651,1.0,0.0,0.0,0.0,1.0,0.0,0.0,0.0,1.0,-1.43173259277,-0.732625708008,-10.8457335205,1.0,0.0,0.0,0.0,1.0,0.0,0.0,0.0,1.0
1463469814146703006,536,1463469814145027592,,-0.885423183441,-12.6947584152,-116.743240356,0.00987199973315,1.0,0.0,0.0,0.0,1.0,0.0,0.0,0.0,1.0,10.548781395,-10.548781395,10.2439022064,1.0,0.0,0.0,0.0,1.0,0.0,0.0,0.0,1.0,-1.2976572998,-0.723048901367,-10.8361567139,1.0,0.0,0.0,0.0,1.0,0.0,0.0,0.0,1.0
1463469814156716059,537,1463469814154887417,,-0.789626121521,-12.7467451096,-116.548553467,0.00989000033587,1.0,0.0,0.0,0.0,1.0,0.0,0.0,0.0,1.0,9.63414573669,-10.4878053665,7.98780536652,1.0,0.0,0.0,0.0,1.0,0.0,0.0,0.0,1.0,-1.35511813965,-0.881066210937,-10.4866032715,1.0,0.0,0.0,0.0,1.0,0.0,0.0,0.0,1.0
1463469814169391816,538,1463469814165351876,,-0.717155098915,-12.8217639923,-116.354797363,0.00999800022691,1.0,0.0,0.0,0.0,1.0,0.0,0.0,0.0,1.0,6.64634132385,-11.6463422775,7.80487823486,1.0,0.0,0.0,0.0,1.0,0.0,0.0,0.0,1.0,-1.49877023926,-0.957680664062,-10.046070166,1.0,0.0,0.0,0.0,1.0,0.0,0.0,0.0,1.0
1463469814177697529,539,1463469814175079513,,-0.708347737789,-12.8855333328,-116.146614075,0.0100090000778,1.0,0.0,0.0,0.0,1.0,0.0,0.0,0.0,1.0,1.8902438879,-11.9512195587,8.90243911743,1.0,0.0,0.0,0.0,1.0,0.0,0.0,0.0,1.0,-1.2737152832,-0.742202514648,-10.2088758789,1.0,0.0,0.0,0.0,1.0,0.0,0.0,0.0,1.0
1463469814187247250,540,1463469814185169806,,-0.707286536694,-12.9653530121,-115.943733215,0.0100020002574,1.0,0.0,0.0,0.0,1.0,0.0,0.0,0.0,1.0,-0.12195122242,-12.6219520569,8.65853691101,1.0,0.0,0.0,0.0,1.0,0.0,0.0,0.0,1.0,-1.45567460937,-0.962469067383,-10.2088758789,1.0,0.0,0.0,0.0,1.0,0.0,0.0,0.0,1.0
1463469814196735825,541,1463469814195050307,,-0.732078552246,-13.054684639,-115.75176239,0.0100039998069,1.0,0.0,0.0,0.0,1.0,0.0,0.0,0.0,1.0,-2.56097555161,-13.4146347046,7.50000047684,1.0,0.0,0.0,0.0,1.0,0.0,0.0,0.0,1.0,-1.47482822266,-0.881066210937,-10.0508585693,1.0,0.0,0.0,0.0,1.0,0.0,0.0,0.0,1.0
1463469814206948618,542,1463469814204943569,,-0.768996119499,-13.1473550797,-115.583488464,0.00998799968511,1.0,0.0,0.0,0.0,1.0,0.0,0.0,0.0,1.0,-4.32926845551,-12.8048782349,5.24390268326,1.0,0.0,0.0,0.0,1.0,0.0,0.0,0.0,1.0,-1.64721074219,-0.881066210937,-9.95987890625,1.0,0.0,0.0,0.0,1.0,0.0,0.0,0.0,1.0
1463469814217122244,543,1463469814215421570,,-0.824476957321,-13.2552280426,-115.432922363,0.0102469995618,1.0,0.0,0.0,0.0,1.0,0.0,0.0,0.0,1.0,-5.60975599289,-13.4756097794,2.92682933807,1.0,0.0,0.0,0.0,1.0,0.0,0.0,0.0,1.0,-1.80043964844,-0.723048901367,-10.1466266357,1.0,0.0,0.0,0.0,1.0,0.0,0.0,0.0,1.0
1463469814226957225,544,1463469814224887801,,-0.872505605221,-13.3500461578,-115.322563171,0.00985699985176,1.0,0.0,0.0,0.0,1.0,0.0,0.0,0.0,1.0,-5.73170757294,-12.6829271317,-0.487804889679,1.0,0.0,0.0,0.0,1.0,0.0,0.0,0.0,1.0,-1.78607443848,-0.689530078125,-10.1131078125,1.0,0.0,0.0,0.0,1.0,0.0,0.0,0.0,1.0
1463469814236934080,545,1463469814234874240,,-0.917210042477,-13.4607410431,-115.237197876,0.00990200042725,1.0,0.0,0.0,0.0,1.0,0.0,0.0,0.0,1.0,-6.21951246262,-12.7439022064,-2.92682933807,1.0,0.0,0.0,0.0,1.0,0.0,0.0,0.0,1.0,-2.09253210485,-0.742202514648,-10.1945106689,1.0,0.0,0.0,0.0,1.0,0.0,0.0,0.0,1.0
1463469814247186404,546,1463469814245095939,,-0.973830997944,-13.552989006,-115.188415527,0.0100029995665,1.0,0.0,0.0,0.0,1.0,0.0,0.0,0.0,1.0,-6.7682929039,-11.6463422775,-6.89024400711,1.0,0.0,0.0,0.0,1.0,0.0,0.0,0.0,1.0,-1.97761057129,-0.46447512207,-10.3764699951,1.0,0.0,0.0,0.0,1.0,0.0,0.0,0.0,1.0
1463469814257436176,547,1463469814255069253,,-0.961956262589,-13.6297607422,-115.213096619,0.0100020002574,1.0,0.0,0.0,0.0,1.0,0.0,0.0,0.0,1.0,-4.69512224197,-10.3658542633,-13.2317075729,1.0,0.0,0.0,0.0,1.0,0.0,0.0,0.0,1.0,-1.93451494141,-1.0534486574,-10.4578728516,1.0,0.0,0.0,0.0,1.0,0.0,0.0,0.0,1.0
1463469814267206729,548,1463469814265503504,,-0.944978833199,-13.7097568512,-115.286392212,0.0101420003921,1.0,0.0,0.0,0.0,1.0,0.0,0.0,0.0,1.0,-5.24390268326,-11.341463089,-17.8658542633,1.0,0.0,0.0,0.0,1.0,0.0,0.0,0.0,1.0,-1.72861359863,-1.00077629395,-10.1083194092,1.0,0.0,0.0,0.0,1.0,0.0,0.0,0.0,1.0
1463469814277057023,549,1463469814275047391,,-0.958199381828,-13.7729492188,-115.379714966,0.00986099988222,1.0,0.0,0.0,0.0,1.0,0.0,0.0,0.0,1.0,-7.98780536652,-9.45121955872,-20.1829280853,1.0,0.0,0.0,0.0,1.0,0.0,0.0,0.0,1.0,-1.83395847168,-0.861912597656,-10.2232410889,1.0,0.0,0.0,0.0,1.0,0.0,0.0,0.0,1.0
1463469814286936118,550,1463469814284919299,,-1.01706290245,-13.8523864746,-115.468673706,0.009990000166,1.0,0.0,0.0,0.0,1.0,0.0,0.0,0.0,1.0,-10.548781395,-10.6707315445,-20.1219520569,1.0,0.0,0.0,0.0,1.0,0.0,0.0,0.0,1.0,-1.8626888916,-0.493205541992,-9.97903251953,1.0,0.0,0.0,0.0,1.0,0.0,0.0,0.0,1.0
1463469814299473802,551,1463469814295066519,,-1.10393881798,-13.9064760208,-115.560668945,0.0102850003168,1.0,0.0,0.0,0.0,1.0,0.0,0.0,0.0,1.0,-15.1219511032,-8.84146404266,-19.6341457367,1.0,0.0,0.0,0.0,1.0,0.0,0.0,0.0,1.0,-1.66636435547,-0.828393774414,-9.69651672363,1.0,0.0,0.0,0.0,1.0,0.0,0.0,0.0,1.0
1463469814307830817,552,1463469814304982177,,-1.23894762993,-13.962635994,-115.634849548,0.00972000043839,1.0,0.0,0.0,0.0,1.0,0.0,0.0,0.0,1.0,-19.0853652954,-8.29268264771,-18.658536911,1.0,0.0,0.0,0.0,1.0,0.0,0.0,0.0,1.0,-1.95845695801,-0.632069238281,-10.1609918457,1.0,0.0,0.0,0.0,1.0,0.0,0.0,0.0,1.0
1463469814319692148,553,1463469814315282104,,-1.39408755302,-14.0263385773,-115.71962738,0.0100020002574,1.0,0.0,0.0,0.0,1.0,0.0,0.0,0.0,1.0,-22.0731716156,-8.59756088257,-19.2073173523,1.0,0.0,0.0,0.0,1.0,0.0,0.0,0.0,1.0,-1.96803376465,-0.809240161133,-9.92636008301,1.0,0.0,0.0,0.0,1.0,0.0,0.0,0.0,1.0
1463469814327765570,554,1463469814325087346,,-1.5608934164,-14.0641889572,-115.820365906,0.009990000166,1.0,0.0,0.0,0.0,1.0,0.0,0.0,0.0,1.0,-24.5731716156,-6.40243911743,-20.4878044128,1.0,0.0,0.0,0.0,1.0,0.0,0.0,0.0,1.0,-1.97761057129,-0.991199487305,-10.3477395752,1.0,0.0,0.0,0.0,1.0,0.0,0.0,0.0,1.0
1463469814337176697,555,1463469814335109983,,-1.76682174206,-14.1173019409,-115.930961609,0.0101300003007,1.0,0.0,0.0,0.0,1.0,0.0,0.0,0.0,1.0,-27.8048782349,-6.21951246262,-21.4634151459,1.0,0.0,0.0,0.0,1.0,0.0,0.0,0.0,1.0,-2.29843359375,-0.852335791016,-10.3956236084,1.0,0.0,0.0,0.0,1.0,0.0,0.0,0.0,1.0
1463469814347049074,556,1463469814344860432,,-1.98859643936,-14.1534814835,-116.053466797,0.00986799970269,1.0,0.0,0.0,0.0,1.0,0.0,0.0,0.0,1.0,-30.3048782349,-4.2682929039,-22.8658542633,1.0,0.0,0.0,0.0,1.0,0.0,0.0,0.0,1.0,-2.32716386754,-0.799663354492,-10.2328178955,1.0,0.0,0.0,0.0,1.0,0.0,0.0,0.0,1.0
1463469814356881398,557,1463469814354871142,,-2.22649264336,-14.1796913147,-116.193222046,0.00999999977648,1.0,0.0,0.0,0.0,1.0,0.0,0.0,0.0,1.0,-30.7926845551,-2.5,-24.6341457367,1.0,0.0,0.0,0.0,1.0,0.0,0.0,0.0,1.0,-2.55700737305,-0.550666381836,-10.6685625977,1.0,0.0,0.0,0.0,1.0,0.0,0.0,0.0,1.0
1463469814366938358,558,1463469814365166382,,-2.46812462807,-14.1968460083,-116.346099854,0.0100010000169,1.0,0.0,0.0,0.0,1.0,0.0,0.0,0.0,1.0,-30.7926845551,-1.2804877758,-26.0365848541,1.0,0.0,0.0,0.0,1.0,0.0,0.0,0.0,1.0,-2.54743056641,-0.359130249023,-10.4387192383,1.0,0.0,0.0,0.0,1.0,0.0,0.0,0.0,1.0
1463469814376947401,559,1463469814374894697,,-2.70388126373,-14.1949090958,-116.517066956,0.0101180002093,1.0,0.0,0.0,0.0,1.0,0.0,0.0,0.0,1.0,-29.5731697083,1.15853655338,-27.682926178,1.0,0.0,0.0,0.0,1.0,0.0,0.0,0.0,1.0,-2.69587106934,-0.172382519531,-10.7020814209,1.0,0.0,0.0,0.0,1.0,0.0,0.0,0.0,1.0
1463469814387157746,560,1463469814385060458,,-2.915320158,-14.1814222336,-116.700614929,0.00987999979407,1.0,0.0,0.0,0.0,1.0,0.0,0.0,0.0,1.0,-27.682926178,2.74390244484,-29.3292694092,1.0,0.0,0.0,0.0,1.0,0.0,0.0,0.0,1.0,-2.70065947266,-0.0478840332031,-10.5105452881,1.0,0.0,0.0,0.0,1.0,0.0,0.0,0.0,1.0
1463469814397181112,561,1463469814395173095,,-3.1015291214,-14.1439266205,-116.892112732,0.0100109996274,1.0,0.0,0.0,0.0,1.0,0.0,0.0,0.0,1.0,-25.4268302917,4.93902444839,-29.6341457367,1.0,0.0,0.0,0.0,1.0,0.0,0.0,0.0,1.0,-2.64319863281,-0.0909796630859,-10.5057568848,1.0,0.0,0.0,0.0,1.0,0.0,0.0,0.0,1.0
1463469814407318175,562,1463469814405245992,,-3.26240873337,-14.0690612793,-117.096611023,0.0100050000474,1.0,0.0,0.0,0.0,1.0,0.0,0.0,0.0,1.0,-22.8658542633,7.19512224197,-30.8536605835,1.0,0.0,0.0,0.0,1.0,0.0,0.0,0.0,1.0,-2.37504819301,0.0143652099609,-10.7451770508,1.0,0.0,0.0,0.0,1.0,0.0,0.0,0.0,1.0
1463469814416967271,563,1463469814415312639,,-3.36482357979,-13.9816865921,-117.325378418,0.00998600013554,1.0,0.0,0.0,0.0,1.0,0.0,0.0,0.0,1.0,-19.1463432312,9.02439117432,-32.7439041138,1.0,0.0,0.0,0.0,1.0,0.0,0.0,0.0,1.0,-2.37983659633,-0.258573779297,-10.4961800781,1.0,0.0,0.0,0.0,1.0,0.0,0.0,0.0,1.0
1463469814426786002,564,1463469814424808818,,-3.45500588417,-13.8868379593,-117.555526733,0.00999800022691,1.0,0.0,0.0,0.0,1.0,0.0,0.0,0.0,1.0,-17.5609760284,10.2439022064,-32.865852356,1.0,0.0,0.0,0.0,1.0,0.0,0.0,0.0,1.0,-2.4277204834,-0.172382519531,-10.405200415,1.0,0.0,0.0,0.0,1.0,0.0,0.0,0.0,1.0
1463469814436834836,565,1463469814434834944,,-3.54775214195,-13.7756471634,-117.784179688,0.0100020002574,1.0,0.0,0.0,0.0,1.0,0.0,0.0,0.0,1.0,-17.1951217651,10.9756097794,-32.8048782349,1.0,0.0,0.0,0.0,1.0,0.0,0.0,0.0,1.0,-2.24097275391,-0.0478840332031,-10.4482960449,1.0,0.0,0.0,0.0,1.0,0.0,0.0,0.0,1.0
1463469814447398774,566,1463469814445181070,,-3.63895535469,-13.6466703415,-118.00617218,0.00999800022691,1.0,0.0,0.0,0.0,1.0,0.0,0.0,0.0,1.0,-15.1829271317,11.2804880142,-32.5609779358,1.0,0.0,0.0,0.0,1.0,0.0,0.0,0.0,1.0,-1.95845695801,0.296881024126,-10.5632177246,1.0,0.0,0.0,0.0,1.0,0.0,0.0,0.0,1.0
1463469814457025526,567,1463469814454968499,,-3.71040797234,-13.5155324936,-118.22706604,0.0100039998069,1.0,0.0,0.0,0.0,1.0,0.0,0.0,0.0,1.0,-11.9512195587,11.0975618362,-32.7439041138,1.0,0.0,0.0,0.0,1.0,0.0,0.0,0.0,1.0,-1.8626888916,0.545877978516,-10.6158901611,1.0,0.0,0.0,0.0,1.0,0.0,0.0,0.0,1.0
1463469814467078215,568,1463469814465321343,,-3.75869417191,-13.3832101822,-118.43560791,0.0101490002126,1.0,0.0,0.0,0.0,1.0,0.0,0.0,0.0,1.0,-9.39024448395,9.93902492523,-31.2804889679,1.0,0.0,0.0,0.0,1.0,0.0,0.0,0.0,1.0,-1.6041151123,0.502782348633,-10.3716815918,1.0,0.0,0.0,0.0,1.0,0.0,0.0,0.0,1.0
1463469814477086737,569,1463469814475040752,,-3.76675415039,-13.2565994263,-118.63193512,0.00985400006175,1.0,0.0,0.0,0.0,1.0,0.0,0.0,0.0,1.0,-6.95121955872,9.51219558716,-30.3048782349,1.0,0.0,0.0,0.0,1.0,0.0,0.0,0.0,1.0,-1.5562310791,0.191536132812,-10.4722380615,1.0,0.0,0.0,0.0,1.0,0.0,0.0,0.0,1.0
1463469814487041353,570,1463469814485033284,,-3.72071933746,-13.1403532028,-118.821899414,0.0100079998374,1.0,0.0,0.0,0.0,1.0,0.0,0.0,0.0,1.0,-4.20731735229,7.62195110321,-28.8414649963,1.0,0.0,0.0,0.0,1.0,0.0,0.0,0.0,1.0,-1.34075292969,-0.349553442383,-9.89762966309,1.0,0.0,0.0,0.0,1.0,0.0,0.0,0.0,1.0
1463469814496931178,571,1463469814495023213,,-3.76182389259,-13.0141487122,-118.953392029,0.0101359998807,1.0,0.0,0.0,0.0,1.0,0.0,0.0,0.0,1.0,-5.60975599289,6.82926845551,-24.4512195587,1.0,0.0,0.0,0.0,1.0,0.0,0.0,0.0,1.0,-1.14442839355,0.737414111328,-10.3333743652,1.0,0.0,0.0,0.0,1.0,0.0,0.0,0.0,1.0
1463469814507223397,572,1463469814504822152,,-3.79825115204,-12.9208135605,-119.04196167,0.00985100027174,1.0,0.0,0.0,0.0,1.0,0.0,0.0,0.0,1.0,-3.29268312454,5.48780488968,-20.9146347046,1.0,0.0,0.0,0.0,1.0,0.0,0.0,0.0,1.0,-1.45567460937,0.933738647461,-10.2280294922,1.0,0.0,0.0,0.0,1.0,0.0,0.0,0.0,1.0
1463469814517255096,573,1463469814515416715,,-3.77088809013,-12.8352375031,-119.11946106,0.0100109996274,1.0,0.0,0.0,0.0,1.0,0.0,0.0,0.0,1.0,1.34146344662,3.84146332741,-19.3292694092,1.0,0.0,0.0,0.0,1.0,0.0,0.0,0.0,1.0,-1.30723410645,0.541089611728,-10.1131078125,1.0,0.0,0.0,0.0,1.0,0.0,0.0,0.0,1.0
1463469814527599243,574,1463469814525044821,,-3.68780446053,-12.7636880875,-119.200775146,0.0100020002574,1.0,0.0,0.0,0.0,1.0,0.0,0.0,0.0,1.0,5.18292713165,2.98780488968,-19.3902435303,1.0,0.0,0.0,0.0,1.0,0.0,0.0,0.0,1.0,-1.36469494629,0.225054956055,-9.94551369629,1.0,0.0,0.0,0.0,1.0,0.0,0.0,0.0,1.0
1463469814537384901,575,1463469814534957249,,-3.57648038864,-12.7166395187,-119.27557373,0.00999100040644,1.0,0.0,0.0,0.0,1.0,0.0,0.0,0.0,1.0,8.29268264771,0.487804889679,-18.9634151459,1.0,0.0,0.0,0.0,1.0,0.0,0.0,0.0,1.0,-1.35990654297,0.234631762695,-10.0125513428,1.0,0.0,0.0,0.0,1.0,0.0,0.0,0.0,1.0
1463469814547233111,576,1463469814544971553,,-3.44608283043,-12.6646232605,-119.342254639,0.00999899953604,1.0,0.0,0.0,0.0,1.0,0.0,0.0,0.0,1.0,11.7682924271,0.670731723309,-18.475610733,1.0,0.0,0.0,0.0,1.0,0.0,0.0,0.0,1.0,-1.27850368652,0.45968671875,-9.80665,1.0,0.0,0.0,0.0,1.0,0.0,0.0,0.0,1.0
1463469814557115487,577,1463469814554994762,,-3.27642083168,-12.6351747513,-119.397994995,0.0101180002093,1.0,0.0,0.0,0.0,1.0,0.0,0.0,0.0,1.0,15.7317075729,-0.914634168148,-17.4390239716,1.0,0.0,0.0,0.0,1.0,0.0,0.0,0.0,1.0,-1.45088620605,0.445321508789,-10.0939541992,1.0,0.0,0.0,0.0,1.0,0.0,0.0,0.0,1.0
1463469814566993124,578,1463469814565284482,,-3.0671210289,-12.6015872955,-119.450767517,0.00987700000405,1.0,0.0,0.0,0.0,1.0,0.0,0.0,0.0,1.0,19.0853652954,-1.76829278469,-17.0731716156,1.0,0.0,0.0,0.0,1.0,0.0,0.0,0.0,1.0,-1.14921679688,0.201112939453,-9.62947966167,1.0,0.0,0.0,0.0,1.0,0.0,0.0,0.0,1.0
1463469814576825709,579,1463469814574828370,,-2.77470636368,-12.5935049057,-119.533790588,0.0100020002574,1.0,0.0,0.0,0.0,1.0,0.0,0.0,0.0,1.0,23.1707324982,-2.07317066193,-19.2073173523,1.0,0.0,0.0,0.0,1.0,0.0,0.0,0.0,1.0,-1.56580788574,-0.435744702148,-9.92157167969,1.0,0.0,0.0,0.0,1.0,0.0,0.0,0.0,1.0
1463469814587013398,580,1463469814584932933,,-2.48057484627,-12.5842895508,-119.610809326,0.00999999977648,1.0,0.0,0.0,0.0,1.0,0.0,0.0,0.0,1.0,23.5365848541,-2.74390244484,-18.658536911,1.0,0.0,0.0,0.0,1.0,0.0,0.0,0.0,1.0,-1.41736738281,-0.469263525391,-9.80186159668,1.0,0.0,0.0,0.0,1.0,0.0,0.0,0.0,1.0
1463469814596956764,581,1463469814594951039,,-2.19839310646,-12.5795621872,-119.676551819,0.00999899953604,1.0,0.0,0.0,0.0,1.0,0.0,0.0,0.0,1.0,23.2926845551,-2.31707310677,-17.6829280853,1.0,0.0,0.0,0.0,1.0,0.0,0.0,0.0,1.0,-1.59453830566,-0.397437475586,-9.8545340332,1.0,0.0,0.0,0.0,1.0,0.0,0.0,0.0,1.0
1463469814607130078,582,1463469814605043727,,-1.93504750729,-12.5808029175,-119.71459198,0.0100130001083,1.0,0.0,0.0,0.0,1.0,0.0,0.0,0.0,1.0,21.9512195587,-3.23170733452,-15.0000009537,1.0,0.0,0.0,0.0,1.0,0.0,0.0,0.0,1.0,-1.59453830566,-0.45968671875,-10.0748005859,1.0,0.0,0.0,0.0,1.0,0.0,0.0,0.0,1.0
1463469814617186412,583,1463469814615334957,,-1.72752988338,-12.5743818283,-119.712654114,0.0100060002878,1.0,0.0,0.0,0.0,1.0,0.0,0.0,0.0,1.0,18.9024391174,-2.98780488968,-11.4634151459,1.0,0.0,0.0,0.0,1.0,0.0,0.0,0.0,1.0,-1.44609780273,-0.191536132812,-9.55765361187,1.0,0.0,0.0,0.0,1.0,0.0,0.0,0.0,1.0
1463469814626899727,584,1463469814624892647,,-1.53500783443,-12.5792989731,-119.684577942,0.00997699983418,1.0,0.0,0.0,0.0,1.0,0.0,0.0,0.0,1.0,18.2926826477,-2.98780488968,-8.96341514587,1.0,0.0,0.0,0.0,1.0,0.0,0.0,0.0,1.0,-1.65678754883,-0.181959326172,-9.57201882183,1.0,0.0,0.0,0.0,1.0,0.0,0.0,0.0,1.0
1463469814637012832,585,1463469814634955648,,-1.33610463142,-12.5882549286,-119.651641846,0.0100010000169,1.0,0.0,0.0,0.0,1.0,0.0,0.0,0.0,1.0,17.5000019073,-3.71951246262,-8.17073154449,1.0,0.0,0.0,0.0,1.0,0.0,0.0,0.0,1.0,-1.60890351563,-0.478840332031,-9.62469125835,1.0,0.0,0.0,0.0,1.0,0.0,0.0,0.0,1.0
1463469814647401822,586,1463469814644909119,,-1.11504387856,-12.5919055939,-119.638435364,0.0100010000169,1.0,0.0,0.0,0.0,1.0,0.0,0.0,0.0,1.0,17.1951217651,-2.43902444839,-9.5731716156,1.0,0.0,0.0,0.0,1.0,0.0,0.0,0.0,1.0,-1.78607443848,-0.91458503418,-9.92636008301,1.0,0.0,0.0,0.0,1.0,0.0,0.0,0.0,1.0
1463469814657202167,587,1463469814655172119,,-0.875279605389,-12.61328125,-119.665863037,0.0100020002574,1.0,0.0,0.0,0.0,1.0,0.0,0.0,0.0,1.0,16.341463089,-3.29268312454,-13.1097564697,1.0,0.0,0.0,0.0,1.0,0.0,0.0,0.0,1.0,-1.94409174805,-1.30244570312,-9.95030209961,1.0,0.0,0.0,0.0,1.0,0.0,0.0,0.0,1.0
1463469814667218867,588,1463469814665431787,,-0.663071095943,-12.6130800247,-119.724586487,0.00999699998647,1.0,0.0,0.0,0.0,1.0,0.0,0.0,0.0,1.0,14.6951217651,-2.37804889679,-16.5243911743,1.0,0.0,0.0,0.0,1.0,0.0,0.0,0.0,1.0,-1.74776721191,-1.02471831055,-10.1322614258,1.0,0.0,0.0,0.0,1.0,0.0,0.0,0.0,1.0
1463469814676941139,589,1463469814674919216,,-0.447610259056,-12.609992981,-119.816696167,0.0100029995665,1.0,0.0,0.0,0.0,1.0,0.0,0.0,0.0,1.0,14.0243902206,-2.37804889679,-19.6951236725,1.0,0.0,0.0,0.0,1.0,0.0,0.0,0.0,1.0,-1.68551796875,-1.10612116699,-10.0939541992,1.0,0.0,0.0,0.0,1.0,0.0,0.0,0.0,1.0
1463469814687105911,590,1463469814685066957,,-0.241070181131,-12.6267757416,-119.934410095,0.00999699998647,1.0,0.0,0.0,0.0,1.0,0.0,0.0,0.0,1.0,12.6829271317,-1.8902438879,-22.1951236725,1.0,0.0,0.0,0.0,1.0,0.0,0.0,0.0,1.0,-2.15478164027,-1.13963999023,-10.1274730225,1.0,0.0,0.0,0.0,1.0,0.0,0.0,0.0,1.0
1463469814697166048,591,1463469814695177250,,-0.0751120075583,-12.6248455048,-120.069221497,0.0100130001083,1.0,0.0,0.0,0.0,1.0,0.0,0.0,0.0,1.0,9.63414573669,-2.31707310677,-24.1463432312,1.0,0.0,0.0,0.0,1.0,0.0,0.0,0.0,1.0,-1.73340200195,-0.900219824219,-10.1083194092,1.0,0.0,0.0,0.0,1.0,0.0,0.0,0.0,1.0
1463469814707122799,592,1463469814705059730,,0.0876527652144,-12.6241760254,-120.222892761,0.0101140001789,1.0,0.0,0.0,0.0,1.0,0.0,0.0,0.0,1.0,8.65853691101,-2.01219511032,-25.7926845551,1.0,0.0,0.0,0.0,1.0,0.0,0.0,0.0,1.0,-1.7908628418,-0.938527050781,-9.95030209961,1.0,0.0,0.0,0.0,1.0,0.0,0.0,0.0,1.0
1463469814717484185,593,1463469814715604554,,0.253997266293,-12.613617897,-120.418533325,0.0100140003487,1.0,0.0,0.0,0.0,1.0,0.0,0.0,0.0,1.0,7.92682981491,-1.15853655338,-29.9390258789,1.0,0.0,0.0,0.0,1.0,0.0,0.0,0.0,1.0,-1.75255561523,-1.01035310059,-9.82101520996,1.0,0.0,0.0,0.0,1.0,0.0,0.0,0.0,1.0
1463469814726762032,594,1463469814724811723,,0.442137598991,-12.608423233,-120.66443634,0.00986099988222,1.0,0.0,0.0,0.0,1.0,0.0,0.0,0.0,1.0,7.07317113876,-1.2804877758,-34.6951217651,1.0,0.0,0.0,0.0,1.0,0.0,0.0,0.0,1.0,-1.90578452148,-1.48919343262,-10.180145459,1.0,0.0,0.0,0.0,1.0,0.0,0.0,0.0,1.0
1463469814737184095,595,1463469814734908995,,0.609040081501,-12.5906896591,-120.94694519,0.00999800022691,1.0,0.0,0.0,0.0,1.0,0.0,0.0,0.0,1.0,5.36585378647,-1.34146344662,-38.2317085266,1.0,0.0,0.0,0.0,1.0,0.0,0.0,0.0,1.0,-1.64721074219,-1.22583125,-9.97424411621,1.0,0.0,0.0,0.0,1.0,0.0,0.0,0.0,1.0
1463469814747129909,596,1463469814745111684,,0.770230650902,-12.5582256317,-121.268936157,0.0100010000169,1.0,0.0,0.0,0.0,1.0,0.0,0.0,0.0,1.0,3.10975623131,0.12195122242,-41.8902435303,1.0,0.0,0.0,0.0,1.0,0.0,0.0,0.0,1.0,-1.70467158203,-1.44609780273,-10.2184526855,1.0,0.0,0.0,0.0,1.0,0.0,0.0,0.0,1.0
1463469814757028327,597,1463469814754934321,,0.927670657635,-12.5353050232,-121.6302948,0.0100149996579,1.0,0.0,0.0,0.0,1.0,0.0,0.0,0.0,1.0,1.40243899822,-0.853658556938,-45.5487823486,1.0,0.0,0.0,0.0,1.0,0.0,0.0,0.0,1.0,-1.72861359863,-1.57538469238,-10.2615483154,1.0,0.0,0.0,0.0,1.0,0.0,0.0,0.0,1.0
1463469814767334245,598,1463469814765600654,,1.05321228504,-12.4949798584,-122.025382996,0.00998399965465,1.0,0.0,0.0,0.0,1.0,0.0,0.0,0.0,1.0,-2.74390244484,0.0609756112099,-48.9024391174,1.0,0.0,0.0,0.0,1.0,0.0,0.0,0.0,1.0,-1.5322890625,-1.58974990234,-9.86889924316,1.0,0.0,0.0,0.0,1.0,0.0,0.0,0.0,1.0
1463469814777001517,599,1463469814774920480,,1.15082967281,-12.4604873657,-122.445007324,0.0100020002574,1.0,0.0,0.0,0.0,1.0,0.0,0.0,0.0,1.0,-5.54878091812,0.18292683363,-51.3414649963,1.0,0.0,0.0,0.0,1.0,0.0,0.0,0.0,1.0,-1.74776721191,-1.58496149902,-10.285490332,1.0,0.0,0.0,0.0,1.0,0.0,0.0,0.0,1.0
1463469814786915561,600,1463469814784903377,,1.21845722198,-12.4160480499,-122.894851685,0.0100010000169,1.0,0.0,0.0,0.0,1.0,0.0,0.0,0.0,1.0,-9.32926845551,0.609756112099,-54.2682914734,1.0,0.0,0.0,0.0,1.0,0.0,0.0,0.0,1.0,-1.61848032227,-1.59453830566,-10.0508585693,1.0,0.0,0.0,0.0,1.0,0.0,0.0,0.0,1.0
1463469814796972051,601,1463469814794903826,,1.24648702145,-12.3659238815,-123.35975647,0.00999599974602,1.0,0.0,0.0,0.0,1.0,0.0,0.0,0.0,1.0,-12.3780488968,0.792682945728,-56.0365867615,1.0,0.0,0.0,0.0,1.0,0.0,0.0,0.0,1.0,-1.6041151123,-1.42215578613,-10.3764699951,1.0,0.0,0.0,0.0,1.0,0.0,0.0,0.0,1.0
1463469814808148175,602,1463469814804915890,,1.25431370735,-12.315662384,-123.855575562,0.0100020002574,1.0,0.0,0.0,0.0,1.0,0.0,0.0,0.0,1.0,-15.3048791885,0.670731723309,-58.9634132385,1.0,0.0,0.0,0.0,1.0,0.0,0.0,0.0,1.0,-1.57538469238,-1.47482822266,-10.3190091553,1.0,0.0,0.0,0.0,1.0,0.0,0.0,0.0,1.0
1463469814819717320,603,1463469814815461859,,1.23548054695,-12.2581272125,-124.376441956,0.0100029995665,1.0,0.0,0.0,0.0,1.0,0.0,0.0,0.0,1.0,-17.3780498505,0.792682945728,-61.6463394165,1.0,0.0,0.0,0.0,1.0,0.0,0.0,0.0,1.0,-1.49398183594,-1.29286889648,-10.5344873047,1.0,0.0,0.0,0.0,1.0,0.0,0.0,0.0,1.0
1463469814828212355,604,1463469814824997309,,1.20671546459,-12.1959953308,-124.928604126,0.0100029995665,1.0,0.0,0.0,0.0,1.0,0.0,0.0,0.0,1.0,-18.7195110321,0.487804889679,-64.7561035156,1.0,0.0,0.0,0.0,1.0,0.0,0.0,0.0,1.0,-1.35032973633,-1.24019645996,-10.5680061279,1.0,0.0,0.0,0.0,1.0,0.0,0.0,0.0,1.0
1463469814838454679,605,1463469814835007915,,1.1681201458,-12.1498327255,-125.506607056,0.0100010000169,1.0,0.0,0.0,0.0,1.0,0.0,0.0,0.0,1.0,-18.9024391174,-0.365853667259,-67.5609741211,1.0,0.0,0.0,0.0,1.0,0.0,0.0,0.0,1.0,-1.54186586914,-1.01992990723,-10.9606552002,1.0,0.0,0.0,0.0,1.0,0.0,0.0,0.0,1.0
1463469814849091117,606,1463469814845105135,,1.15997934341,-12.0650186539,-126.116188049,0.0100140003487,1.0,0.0,0.0,0.0,1.0,0.0,0.0,0.0,1.0,-18.7195110321,-1.03658533096,-70.0609741211,1.0,0.0,0.0,0.0,1.0,0.0,0.0,0.0,1.0,-0.76135612793,-1.75255561523,-13.0914946777,1.0,0.0,0.0,0.0,1.0,0.0,0.0,0.0,1.0
1463469814858715577,607,1463469814855237042,,1.10898160934,-11.973077774,-126.737472534,0.0101169999689,1.0,0.0,0.0,0.0,1.0,0.0,0.0,0.0,1.0,-18.7195110321,-0.975609779358,-71.5243911743,1.0,0.0,0.0,0.0,1.0,0.0,0.0,0.0,1.0,-0.612915625,-0.723048901367,-12.9334773682,1.0,0.0,0.0,0.0,1.0,0.0,0.0,0.0,1.0
1463469814869843264,608,1463469814865944157,,1.13802862167,-11.9153785706,-127.37449646,0.00987100042403,1.0,0.0,0.0,0.0,1.0,0.0,0.0,0.0,1.0,-17.6219520569,-1.52439022064,-73.2317123413,1.0,0.0,0.0,0.0,1.0,0.0,0.0,0.0,1.0,-1.13006318359,-2.07816689489,-12.0907183838,1.0,0.0,0.0,0.0,1.0,0.0,0.0,0.0,1.0
1463469814878954131,609,1463469814875258305,,1.19133496284,-11.8844270706,-128.048171997,0.0103139998391,1.0,0.0,0.0,0.0,1.0,0.0,0.0,0.0,1.0,-16.5853652954,-1.64634156227,-73.7804870605,1.0,0.0,0.0,0.0,1.0,0.0,0.0,0.0,1.0,-1.60890351563,-2.17872351074,-11.2479593994,1.0,0.0,0.0,0.0,1.0,0.0,0.0,0.0,1.0
1463469814888832445,610,1463469814885047505,,1.18167948723,-11.8018808365,-128.674713135,0.00968599971384,1.0,0.0,0.0,0.0,1.0,0.0,0.0,0.0,1.0,-15.1219511032,-1.46341466904,-74.7561035156,1.0,0.0,0.0,0.0,1.0,0.0,0.0,0.0,1.0,-0.641646044922,-0.746990917969,-13.3979524902,1.0,0.0,0.0,0.0,1.0,0.0,0.0,0.0,1.0
1463469814899051384,611,1463469814894947746,,1.17974090576,-11.7185735703,-129.339187622,0.0101159997284,1.0,0.0,0.0,0.0,1.0,0.0,0.0,0.0,1.0,-13.4146347046,-0.975609779358,-75.9756088257,1.0,0.0,0.0,0.0,1.0,0.0,0.0,0.0,1.0,-0.794874951172,-0.488417138672,-13.1058598877,1.0,0.0,0.0,0.0,1.0,0.0,0.0,0.0,1.0
1463469814908921937,612,1463469814905056372,,1.18811607361,-11.6326732635,-130.000930786,0.0100680002943,1.0,0.0,0.0,0.0,1.0,0.0,0.0,0.0,1.0,-11.8292684555,0.18292683363,-76.1585388184,1.0,0.0,0.0,0.0,1.0,0.0,0.0,0.0,1.0,-0.986411083984,-0.378283862305,-13.1968395508,1.0,0.0,0.0,0.0,1.0,0.0,0.0,0.0,1.0
1463469814919923426,613,1463469814915314373,,1.28870463371,-11.57172966,-130.668884277,0.00982599984854,1.0,0.0,0.0,0.0,1.0,0.0,0.0,0.0,1.0,-10.1219511032,1.8902438879,-76.8902435303,1.0,0.0,0.0,0.0,1.0,0.0,0.0,0.0,1.0,-1.69988317871,-1.90099611816,-11.5687824219,1.0,0.0,0.0,0.0,1.0,0.0,0.0,0.0,1.0
1463469814928580910,614,1463469814925535134,,1.34652090073,-11.5250692368,-131.332092285,0.0099950004369,1.0,0.0,0.0,0.0,1.0,0.0,0.0,0.0,1.0,-7.56097555161,2.37804889679,-76.7073135376,1.0,0.0,0.0,0.0,1.0,0.0,0.0,0.0,1.0,-1.96324536133,-0.46447512207,-10.6494089844,1.0,0.0,0.0,0.0,1.0,0.0,0.0,0.0,1.0
1463469814938323338,615,1463469814935599802,,1.44450223446,-11.4542779922,-131.990432739,0.0100020002574,1.0,0.0,0.0,0.0,1.0,0.0,0.0,0.0,1.0,-7.37804937363,4.20731735229,-75.4268341064,1.0,0.0,0.0,0.0,1.0,0.0,0.0,0.0,1.0,-2.15957004359,-1.47003981934,-12.4067530029,1.0,0.0,0.0,0.0,1.0,0.0,0.0,0.0,1.0
1463469814952421384,616,1463469814945488793,,1.51266098022,-11.3383083344,-132.624191284,0.0100050000474,1.0,0.0,0.0,0.0,1.0,0.0,0.0,0.0,1.0,-6.46341466904,4.2682929039,-73.7195129395,1.0,0.0,0.0,0.0,1.0,0.0,0.0,0.0,1.0,-1.06302561017,-0.670376464844,-11.405976709,1.0,0.0,0.0,0.0,1.0,0.0,0.0,0.0,1.0
1463469814958162571,617,1463469814955500493,,1.6247638464,-11.2079229355,-133.247695923,0.00999100040644,1.0,0.0,0.0,0.0,1.0,0.0,0.0,0.0,1.0,-5.85365867615,6.46341466904,-72.0731735229,1.0,0.0,0.0,0.0,1.0,0.0,0.0,0.0,1.0,-1.27850368652,-1.65199914551,-12.1912748535,1.0,0.0,0.0,0.0,1.0,0.0,0.0,0.0,1.0
1463469814969651298,618,1463469814965926045,,1.72140884399,-11.102558136,-133.852050781,0.010006999597,1.0,0.0,0.0,0.0,1.0,0.0,0.0,0.0,1.0,-4.87804889679,8.17073154449,-70.6097564697,1.0,0.0,0.0,0.0,1.0,0.0,0.0,0.0,1.0,-2.24576115723,-1.25456166992,-12.4306950195,1.0,0.0,0.0,0.0,1.0,0.0,0.0,0.0,1.0
1463469814978320240,619,1463469814975823682,,1.83006155491,-10.9518013,-134.486419678,0.010542999953,1.0,0.0,0.0,0.0,1.0,0.0,0.0,0.0,1.0,-4.69512224197,9.81707286835,-70.3658599854,1.0,0.0,0.0,0.0,1.0,0.0,0.0,0.0,1.0,-1.75734401855,-1.41257897949,-12.392387793,1.0,0.0,0.0,0.0,1.0,0.0,0.0,0.0,1.0
1463469814988328554,620,1463469814985348247,,1.85431206226,-10.7829790115,-135.036819458,0.00959100015461,1.0,0.0,0.0,0.0,1.0,0.0,0.0,0.0,1.0,-4.08536577225,11.8902444839,-69.2682952881,1.0,0.0,0.0,0.0,1.0,0.0,0.0,0.0,1.0,-0.986411083984,0.205901342773,-8.42758925923,1.0,0.0,0.0,0.0,1.0,0.0,0.0,0.0,1.0
1463469814998246295,621,1463469814995488488,,1.90637457371,-10.558344841,-135.620330811,0.00986200012267,1.0,0.0,0.0,0.0,1.0,0.0,0.0,0.0,1.0,-4.39024400711,13.9024391174,-70.5487823486,1.0,0.0,0.0,0.0,1.0,0.0,0.0,0.0,1.0,-0.469263525391,-0.229843359375,-7.94874951172,1.0,0.0,0.0,0.0,1.0,0.0,0.0,0.0,1.0
1463469815008662785,622,1463469815005771020,,2.05204629898,-10.3882360458,-136.243255615,0.0101859997958,1.0,0.0,0.0,0.0,1.0,0.0,0.0,0.0,1.0,-3.96341490746,15.7926826477,-71.0365905762,1.0,0.0,0.0,0.0,1.0,0.0,0.0,0.0,1.0,-2.72460148926,-2.51870014648,-13.48414375,1.0,0.0,0.0,0.0,1.0,0.0,0.0,0.0,1.0
1463469815018210891,623,1463469815015811573,,2.02636122704,-10.1708536148,-136.80506897,0.00981699954718,1.0,0.0,0.0,0.0,1.0,0.0,0.0,0.0,1.0,-5.12195110321,18.7804889679,-70.1219482422,1.0,0.0,0.0,0.0,1.0,0.0,0.0,0.0,1.0,-1.66636435547,0.92416184082,-10.9175595703,1.0,0.0,0.0,0.0,1.0,0.0,0.0,0.0,1.0
1463469815028133216,624,1463469815025821085,,2.13774442673,-9.92106342316,-137.417739868,0.0102190002799,1.0,0.0,0.0,0.0,1.0,0.0,0.0,0.0,1.0,-5.0,21.5853652954,-70.5487823486,1.0,0.0,0.0,0.0,1.0,0.0,0.0,0.0,1.0,-1.59932670898,-1.55144267578,-9.97903251953,1.0,0.0,0.0,0.0,1.0,0.0,0.0,0.0,1.0
1463469815038911580,625,1463469815035516639,,2.24095702171,-9.66218852997,-138.026229858,0.00998399965465,1.0,0.0,0.0,0.0,1.0,0.0,0.0,0.0,1.0,-5.42682933807,23.2317085266,-71.707321167,1.0,0.0,0.0,0.0,1.0,0.0,0.0,0.0,1.0,-2.25533796387,-2.18830031738,-13.9677724854,1.0,0.0,0.0,0.0,1.0,0.0,0.0,0.0,1.0
1463469815049348747,626,1463469815045869379,,2.2625143528,-9.37770938873,-138.646499634,0.0101269995794,1.0,0.0,0.0,0.0,1.0,0.0,0.0,0.0,1.0,-6.0365858078,25.7926845551,-73.4756088257,1.0,0.0,0.0,0.0,1.0,0.0,0.0,0.0,1.0,-1.69988317871,-0.239420166016,-10.2615483154,1.0,0.0,0.0,0.0,1.0,0.0,0.0,0.0,1.0
1463469815058788000,627,1463469815055473058,,2.42264056206,-9.14651489258,-139.284606934,0.00965800043195,1.0,0.0,0.0,0.0,1.0,0.0,0.0,0.0,1.0,-5.79268312454,26.4634151459,-76.0365829468,1.0,0.0,0.0,0.0,1.0,0.0,0.0,0.0,1.0,-2.43729729004,-2.69587106934,-9.43794235981,1.0,0.0,0.0,0.0,1.0,0.0,0.0,0.0,1.0
1463469815068442877,628,1463469815065793298,,2.49699449539,-8.85638427734,-139.957305908,0.0100880004466,1.0,0.0,0.0,0.0,1.0,0.0,0.0,0.0,1.0,-7.07317113876,29.0853672028,-78.1707305908,1.0,0.0,0.0,0.0,1.0,0.0,0.0,0.0,1.0,-2.09253210485,-1.34075292969,-9.82101520996,1.0,0.0,0.0,0.0,1.0,0.0,0.0,0.0,1.0
1463469815079276866,629,1463469815075803435,,2.52339839935,-8.54951763153,-140.615249634,0.00992000009865,1.0,0.0,0.0,0.0,1.0,0.0,0.0,0.0,1.0,-10.7317075729,30.9146327972,-78.1097640991,1.0,0.0,0.0,0.0,1.0,0.0,0.0,0.0,1.0,-1.99197578125,-1.23540805664,-9.8545340332,1.0,0.0,0.0,0.0,1.0,0.0,0.0,0.0,1.0
1463469815090262782,630,1463469815085884822,,2.51027941704,-8.23566532135,-141.288482666,0.0102540003136,1.0,0.0,0.0,0.0,1.0,0.0,0.0,0.0,1.0,-14.8170728683,32.2560958862,-77.5,1.0,0.0,0.0,0.0,1.0,0.0,0.0,0.0,1.0,-2.18830031738,-1.32159931641,-9.62469125835,1.0,0.0,0.0,0.0,1.0,0.0,0.0,0.0,1.0
1463469815098925578,631,1463469815095464595,,2.54976296425,-7.91121721268,-141.939468384,0.00974899996072,1.0,0.0,0.0,0.0,1.0,0.0,0.0,0.0,1.0,-17.7439022064,34.634147644,-77.5609741211,1.0,0.0,0.0,0.0,1.0,0.0,0.0,0.0,1.0,-2.09732050817,-2.87304199219,-9.54807680523,1.0,0.0,0.0,0.0,1.0,0.0,0.0,0.0,1.0
1463469815107058062,632,1463469815105049368,,2.45491480827,-7.55145835876,-142.609069824,0.0102300001308,1.0,0.0,0.0,0.0,1.0,0.0,0.0,0.0,1.0,-19.7560977936,34.3292694092,-77.865852356,1.0,0.0,0.0,0.0,1.0,0.0,0.0,0.0,1.0,-1.79565124512,-1.00556469727,-10.6206785645,1.0,0.0,0.0,0.0,1.0,0.0,0.0,0.0,1.0
1463469815116777262,633,1463469815115104400,,2.37661576271,-7.1431517601,-143.257781982,0.00976399984211,1.0,0.0,0.0,0.0,1.0,0.0,0.0,0.0,1.0,-23.1707324982,35.4268302917,-78.2317047119,1.0,0.0,0.0,0.0,1.0,0.0,0.0,0.0,1.0,-0.775721337891,-2.33674067418,-12.7467296387,1.0,0.0,0.0,0.0,1.0,0.0,0.0,0.0,1.0
1463469815127630678,634,1463469815124980475,,2.25199007988,-6.70953655243,-143.925079346,0.0100050000474,1.0,0.0,0.0,0.0,1.0,0.0,0.0,0.0,1.0,-25.3658542633,35.9146347046,-78.7804946899,1.0,0.0,0.0,0.0,1.0,0.0,0.0,0.0,1.0,-0.373495458984,-1.64721074219,-11.0947304932,1.0,0.0,0.0,0.0,1.0,0.0,0.0,0.0,1.0
1463469815136546390,635,1463469815134879935,,2.13402318954,-6.32258462906,-144.605895996,0.00999800022691,1.0,0.0,0.0,0.0,1.0,0.0,0.0,0.0,1.0,-27.9268302917,35.6097564697,-79.7560958862,1.0,0.0,0.0,0.0,1.0,0.0,0.0,0.0,1.0,-1.20188930646,-2.50433493652,-11.7842605713,1.0,0.0,0.0,0.0,1.0,0.0,0.0,0.0,1.0
1463469815147121213,636,1463469815144881165,,1.98259234428,-5.96706533432,-145.291061401,0.00999299995601,1.0,0.0,0.0,0.0,1.0,0.0,0.0,0.0,1.0,-30.4878044128,35.7926826477,-80.3048858643,1.0,0.0,0.0,0.0,1.0,0.0,0.0,0.0,1.0,-1.84353527832,-2.4516625,-12.0428343506,1.0,0.0,0.0,0.0,1.0,0.0,0.0,0.0,1.0
1463469815157048381,637,1463469815154889687,,1.80778229237,-5.6445350647,-145.994094849,0.00999599974602,1.0,0.0,0.0,0.0,1.0,0.0,0.0,0.0,1.0,-31.2195129395,35.7926826477,-82.1951293945,1.0,0.0,0.0,0.0,1.0,0.0,0.0,0.0,1.0,-2.25054956055,-1.92972653809,-10.9702320068,1.0,0.0,0.0,0.0,1.0,0.0,0.0,0.0,1.0
1463469815166809716,638,1463469815165092949,,1.61506068707,-5.2669801712,-146.717727661,0.0100060002878,1.0,0.0,0.0,0.0,1.0,0.0,0.0,0.0,1.0,-31.6463413239,35.1219520569,-84.207321167,1.0,0.0,0.0,0.0,1.0,0.0,0.0,0.0,1.0,-0.995987890625,-1.78128603516,-11.8752402344,1.0,0.0,0.0,0.0,1.0,0.0,0.0,0.0,1.0
1463469815176992873,639,1463469815174874596,,1.33254063129,-4.84977483749,-147.44140625,0.00999899953604,1.0,0.0,0.0,0.0,1.0,0.0,0.0,0.0,1.0,-31.2804889679,34.6951217651,-85.0,1.0,0.0,0.0,0.0,1.0,0.0,0.0,0.0,1.0,0.0526724365234,0.105344873047,-8.45631967915,1.0,0.0,0.0,0.0,1.0,0.0,0.0,0.0,1.0
1463469815186636032,640,1463469815184940827,,1.07163167,-4.4658703804,-148.192459106,0.0100109996274,1.0,0.0,0.0,0.0,1.0,0.0,0.0,0.0,1.0,-29.8170719147,33.8414649963,-87.3780517578,1.0,0.0,0.0,0.0,1.0,0.0,0.0,0.0,1.0,-0.191536132812,-0.00478840332031,-7.36935270996,1.0,0.0,0.0,0.0,1.0,0.0,0.0,0.0,1.0
1463469815196910855,641,1463469815194888307,,0.826925456524,-4.08738470078,-148.966247559,0.00999299995601,1.0,0.0,0.0,0.0,1.0,0.0,0.0,0.0,1.0,-27.0121955872,32.682926178,-89.6951217651,1.0,0.0,0.0,0.0,1.0,0.0,0.0,0.0,1.0,-0.0143652099609,0.148440512063,-7.39808312988,1.0,0.0,0.0,0.0,1.0,0.0,0.0,0.0,1.0
1463469815206642972,642,1463469815204988340,,0.592707335949,-3.73412632942,-149.767349243,0.00999699998647,1.0,0.0,0.0,0.0,1.0,0.0,0.0,0.0,1.0,-25.5487804413,31.9512214661,-92.2560958862,1.0,0.0,0.0,0.0,1.0,0.0,0.0,0.0,1.0,-0.162805712891,0.191536132812,-7.3549875,1.0,0.0,0.0,0.0,1.0,0.0,0.0,0.0,1.0
1463469815216596130,643,1463469815214929779,,0.386558949947,-3.40337300301,-150.580383301,0.0100020002574,1.0,0.0,0.0,0.0,1.0,0.0,0.0,0.0,1.0,-23.1097564697,30.6707305908,-93.2317123413,1.0,0.0,0.0,0.0,1.0,0.0,0.0,0.0,1.0,-0.215478149414,0.124498486328,-7.6614453125,1.0,0.0,0.0,0.0,1.0,0.0,0.0,0.0,1.0
1463469815226899130,644,1463469815224906999,,0.236976742744,-3.03630399704,-151.412384033,0.0100010000169,1.0,0.0,0.0,0.0,1.0,0.0,0.0,0.0,1.0,-21.6463432312,29.3902435303,-94.7561035156,1.0,0.0,0.0,0.0,1.0,0.0,0.0,0.0,1.0,0.497993945312,-0.440533105469,-7.18260498047,1.0,0.0,0.0,0.0,1.0,0.0,0.0,0.0,1.0
1463469815236594424,645,1463469815234881563,,0.0297832041979,-2.73954105377,-152.233337402,0.00999400019646,1.0,0.0,0.0,0.0,1.0,0.0,0.0,0.0,1.0,-20.2439022064,27.0121955872,-94.0243988037,1.0,0.0,0.0,0.0,1.0,0.0,0.0,0.0,1.0,-0.0143652099609,0.435744702148,-7.37414111328,1.0,0.0,0.0,0.0,1.0,0.0,0.0,0.0,1.0
1463469815246597477,646,1463469815244919877,,-0.0793023779988,-2.49732303619,-153.054519653,0.0100100003183,1.0,0.0,0.0,0.0,1.0,0.0,0.0,0.0,1.0,-19.0243911743,24.9390239716,-93.4146347046,1.0,0.0,0.0,0.0,1.0,0.0,0.0,0.0,1.0,-0.550666381836,-1.00077629395,-10.314220752,1.0,0.0,0.0,0.0,1.0,0.0,0.0,0.0,1.0
1463469815256538291,647,1463469815254879857,,-0.134608358145,-2.29791498184,-153.873748779,0.0099849998951,1.0,0.0,0.0,0.0,1.0,0.0,0.0,0.0,1.0,-16.4024391174,22.3780498505,-93.2926864624,1.0,0.0,0.0,0.0,1.0,0.0,0.0,0.0,1.0,-0.780509741211,-1.52750065918,-10.1466266357,1.0,0.0,0.0,0.0,1.0,0.0,0.0,0.0,1.0
1463469815266642855,648,1463469815264981504,,-0.173895224929,-2.11365866661,-154.68939209,0.0100079998374,1.0,0.0,0.0,0.0,1.0,0.0,0.0,0.0,1.0,-15.3658533096,20.0,-92.7439041138,1.0,0.0,0.0,0.0,1.0,0.0,0.0,0.0,1.0,-0.584185168546,-1.67594116211,-10.1370498291,1.0,0.0,0.0,0.0,1.0,0.0,0.0,0.0,1.0
1463469815276542836,649,1463469815274889401,,-0.228391304612,-1.95896232128,-155.476425171,0.0100010000169,1.0,0.0,0.0,0.0,1.0,0.0,0.0,0.0,1.0,-16.2195110321,17.9268302917,-90.0,1.0,0.0,0.0,0.0,1.0,0.0,0.0,0.0,1.0,-0.684741674805,-1.57538469238,-9.92636008301,1.0,0.0,0.0,0.0,1.0,0.0,0.0,0.0,1.0
1463469815286610160,650,1463469815284901674,,-0.277629077435,-1.82673060894,-156.21496582,0.00999800022691,1.0,0.0,0.0,0.0,1.0,0.0,0.0,0.0,1.0,-16.6463413239,15.7317075729,-85.1829299927,1.0,0.0,0.0,0.0,1.0,0.0,0.0,0.0,1.0,-0.646434448242,-1.77170922852,-9.73961235352,1.0,0.0,0.0,0.0,1.0,0.0,0.0,0.0,1.0
1463469815296542797,651,1463469815294893581,,-0.421726256609,-1.71503722668,-156.897735596,0.0100029995665,1.0,0.0,0.0,0.0,1.0,0.0,0.0,0.0,1.0,-19.6951236725,13.5365858078,-79.8170776367,1.0,0.0,0.0,0.0,1.0,0.0,0.0,0.0,1.0,-0.598550451572,-0.703895288086,-10.0412817627,1.0,0.0,0.0,0.0,1.0,0.0,0.0,0.0,1.0
1463469815306647933,652,1463469815304932885,,-0.527700304985,-1.63385593891,-157.551544189,0.0100020002574,1.0,0.0,0.0,0.0,1.0,0.0,0.0,0.0,1.0,-17.6219520569,11.2804880142,-76.8902435303,1.0,0.0,0.0,0.0,1.0,0.0,0.0,0.0,1.0,-0.684741674805,-1.00556469727,-9.82580361328,1.0,0.0,0.0,0.0,1.0,0.0,0.0,0.0,1.0
1463469815316636351,653,1463469815314901355,,-0.633931338787,-1.56519639492,-158.190734863,0.00999699998647,1.0,0.0,0.0,0.0,1.0,0.0,0.0,0.0,1.0,-15.3048791885,8.90243911743,-75.5487823486,1.0,0.0,0.0,0.0,1.0,0.0,0.0,0.0,1.0,-0.445321508789,-0.584185168546,-9.63426806499,1.0,0.0,0.0,0.0,1.0,0.0,0.0,0.0,1.0
1463469815326544717,654,1463469815324907325,,-0.670799076557,-1.51585674286,-158.833023071,0.00999800022691,1.0,0.0,0.0,0.0,1.0,0.0,0.0,0.0,1.0,-10.9756097794,7.01219511032,-75.7926864624,1.0,0.0,0.0,0.0,1.0,0.0,0.0,0.0,1.0,-0.445321508789,-1.06781401349,-10.0364933594,1.0,0.0,0.0,0.0,1.0,0.0,0.0,0.0,1.0
1463469815336509542,655,1463469815334884910,,-0.650796890259,-1.4972922802,-159.484832764,0.0100010000169,1.0,0.0,0.0,0.0,1.0,0.0,0.0,0.0,1.0,-7.01219511032,4.51219558716,-76.7073135376,1.0,0.0,0.0,0.0,1.0,0.0,0.0,0.0,1.0,-0.526724328702,-1.35032973633,-9.8305920166,1.0,0.0,0.0,0.0,1.0,0.0,0.0,0.0,1.0
1463469815346617595,656,1463469815344877182,,-0.605223119259,-1.48607814312,-160.140197754,0.0100029995665,1.0,0.0,0.0,0.0,1.0,0.0,0.0,0.0,1.0,-4.57317066193,2.37804889679,-77.0731658936,1.0,0.0,0.0,0.0,1.0,0.0,0.0,0.0,1.0,-0.272938989258,-1.32159931641,-9.44273076313,1.0,0.0,0.0,0.0,1.0,0.0,0.0,0.0,1.0
1463469815356550024,657,1463469815354905027,,-0.555481731892,-1.50881540775,-160.781280518,0.00998700037599,1.0,0.0,0.0,0.0,1.0,0.0,0.0,0.0,1.0,-3.41463422775,0.487804889679,-75.7926864624,1.0,0.0,0.0,0.0,1.0,0.0,0.0,0.0,1.0,-0.545877978516,-1.23061965332,-9.60553764507,1.0,0.0,0.0,0.0,1.0,0.0,0.0,0.0,1.0
1463469815366700681,658,1463469815364893653,,-0.497828960419,-1.56020748615,-161.395736694,0.0100079998374,1.0,0.0,0.0,0.0,1.0,0.0,0.0,0.0,1.0,-1.95121955872,-1.8902438879,-73.0487823486,1.0,0.0,0.0,0.0,1.0,0.0,0.0,0.0,1.0,-0.651222851562,-1.13485158691,-9.67257470703,1.0,0.0,0.0,0.0,1.0,0.0,0.0,0.0,1.0
1463469815376658787,659,1463469815374915457,,-0.488839268684,-1.60426986217,-161.975036621,0.00999899953604,1.0,0.0,0.0,0.0,1.0,0.0,0.0,0.0,1.0,-3.71951246262,-3.04878044128,-69.6951217651,1.0,0.0,0.0,0.0,1.0,0.0,0.0,0.0,1.0,-0.344765039063,-0.612915625,-9.65342167827,1.0,0.0,0.0,0.0,1.0,0.0,0.0,0.0,1.0
1463469815386561423,660,1463469815384886479,,-0.467315465212,-1.67569553852,-162.529983521,0.0100010000169,1.0,0.0,0.0,0.0,1.0,0.0,0.0,0.0,1.0,-2.80487799644,-4.2682929039,-67.2560958862,1.0,0.0,0.0,0.0,1.0,0.0,0.0,0.0,1.0,-0.61770402832,-0.675164868164,-9.64384487163,1.0,0.0,0.0,0.0,1.0,0.0,0.0,0.0,1.0
1463469815396483279,661,1463469815394861147,,-0.411788254976,-1.75912129879,-163.063781738,0.00999999977648,1.0,0.0,0.0,0.0,1.0,0.0,0.0,0.0,1.0,-0.853658556938,-6.21951246262,-65.1219558716,1.0,0.0,0.0,0.0,1.0,0.0,0.0,0.0,1.0,-0.512359155273,-0.928950244141,-9.66778688823,1.0,0.0,0.0,0.0,1.0,0.0,0.0,0.0,1.0
1463469815406632114,662,1463469815404979721,,-0.33826777339,-1.85353755951,-163.598419189,0.00999899953604,1.0,0.0,0.0,0.0,1.0,0.0,0.0,0.0,1.0,0.609756112099,-6.40243911743,-65.1829299927,1.0,0.0,0.0,0.0,1.0,0.0,0.0,0.0,1.0,-0.703895288086,-0.995987890625,-9.79228479004,1.0,0.0,0.0,0.0,1.0,0.0,0.0,0.0,1.0
1463469815416814698,663,1463469815414883608,,-0.21672642231,-1.96768915653,-164.144302368,0.0100029995665,1.0,0.0,0.0,0.0,1.0,0.0,0.0,0.0,1.0,4.08536577225,-7.86585378647,-66.2195129395,1.0,0.0,0.0,0.0,1.0,0.0,0.0,0.0,1.0,-0.818816967773,-1.21146604004,-9.71567033691,1.0,0.0,0.0,0.0,1.0,0.0,0.0,0.0,1.0
1463469815426647231,664,1463469815424858901,,-0.087284065783,-2.07944774628,-164.692138672,0.00999699998647,1.0,0.0,0.0,0.0,1.0,0.0,0.0,0.0,1.0,6.28048801422,-8.5365858078,-66.4634170532,1.0,0.0,0.0,0.0,1.0,0.0,0.0,0.0,1.0,-0.708683691406,-0.976834277344,-9.82580361328,1.0,0.0,0.0,0.0,1.0,0.0,0.0,0.0,1.0
1463469815436606534,665,1463469815434911850,,0.0510040074587,-2.18733143806,-165.228851318,0.00999999977648,1.0,0.0,0.0,0.0,1.0,0.0,0.0,0.0,1.0,7.07317113876,-8.41463470459,-65.3048782349,1.0,0.0,0.0,0.0,1.0,0.0,0.0,0.0,1.0,-0.694318481445,-0.991199487305,-9.69651672363,1.0,0.0,0.0,0.0,1.0,0.0,0.0,0.0,1.0
1463469815446537400,666,1463469815444898914,,0.190267145634,-2.31342887878,-165.740982056,0.0100090000778,1.0,0.0,0.0,0.0,1.0,0.0,0.0,0.0,1.0,7.86585378647,-9.51219558716,-62.8048782349,1.0,0.0,0.0,0.0,1.0,0.0,0.0,0.0,1.0,-0.857124194336,-0.890643017578,-9.69172832031,1.0,0.0,0.0,0.0,1.0,0.0,0.0,0.0,1.0
1463469815456542433,667,1463469815454896134,,0.285407572985,-2.4279563427,-166.221878052,0.00998600013554,1.0,0.0,0.0,0.0,1.0,0.0,0.0,0.0,1.0,5.91463422775,-9.5731716156,-59.8780517578,1.0,0.0,0.0,0.0,1.0,0.0,0.0,0.0,1.0,-0.699106884766,-0.502782348633,-9.8545340332,1.0,0.0,0.0,0.0,1.0,0.0,0.0,0.0,1.0
1463469815467151058,668,1463469815464901219,,0.387944608927,-2.54911971092,-166.677398682,0.0100050000474,1.0,0.0,0.0,0.0,1.0,0.0,0.0,0.0,1.0,6.95121955872,-9.26829242706,-57.2560997009,1.0,0.0,0.0,0.0,1.0,0.0,0.0,0.0,1.0,-0.900219824219,-0.469263525391,-9.89284125977,1.0,0.0,0.0,0.0,1.0,0.0,0.0,0.0,1.0
1463469815476880154,669,1463469815474920262,,0.499768197536,-2.67552304268,-167.120681763,0.0100020002574,1.0,0.0,0.0,0.0,1.0,0.0,0.0,0.0,1.0,8.17073154449,-9.87804889679,-56.0365867615,1.0,0.0,0.0,0.0,1.0,0.0,0.0,0.0,1.0,-0.92416184082,-0.430956298828,-9.93593688965,1.0,0.0,0.0,0.0,1.0,0.0,0.0,0.0,1.0
1463469815486507322,670,1463469815484880919,,0.636546552181,-2.79917788506,-167.565475464,0.00999699998647,1.0,0.0,0.0,0.0,1.0,0.0,0.0,0.0,1.0,8.59756088257,-8.59756088257,-56.0975608826,1.0,0.0,0.0,0.0,1.0,0.0,0.0,0.0,1.0,-1.14921679688,-0.804451757813,-9.97424411621,1.0,0.0,0.0,0.0,1.0,0.0,0.0,0.0,1.0
1463469815496505636,671,1463469815494906733,,0.763535261154,-2.92351722717,-167.998291016,0.0100020002574,1.0,0.0,0.0,0.0,1.0,0.0,0.0,0.0,1.0,9.51219558716,-9.32926845551,-54.9390258789,1.0,0.0,0.0,0.0,1.0,0.0,0.0,0.0,1.0,-1.07739082014,-0.488417138672,-10.0843773926,1.0,0.0,0.0,0.0,1.0,0.0,0.0,0.0,1.0
1463469815506525825,672,1463469815504884943,,0.896766722202,-3.02923965454,-168.426345825,0.00999699998647,1.0,0.0,0.0,0.0,1.0,0.0,0.0,0.0,1.0,10.7317075729,-7.80487823486,-54.5121955872,1.0,0.0,0.0,0.0,1.0,0.0,0.0,0.0,1.0,-1.03908344744,-0.387860668945,-9.92157167969,1.0,0.0,0.0,0.0,1.0,0.0,0.0,0.0,1.0
1463469815516671430,673,1463469815514921590,,1.0443508625,-3.13502597809,-168.853759766,0.0100029995665,1.0,0.0,0.0,0.0,1.0,0.0,0.0,0.0,1.0,12.9268293381,-7.31707334518,-54.4512214661,1.0,0.0,0.0,0.0,1.0,0.0,0.0,0.0,1.0,-1.20667770978,-0.272938989258,-10.3046439453,1.0,0.0,0.0,0.0,1.0,0.0,0.0,0.0,1.0
1463469815526889483,674,1463469815524878081,,1.20119667053,-3.21956014633,-169.274734497,0.00999999977648,1.0,0.0,0.0,0.0,1.0,0.0,0.0,0.0,1.0,14.3292694092,-6.7682929039,-53.8414649963,1.0,0.0,0.0,0.0,1.0,0.0,0.0,0.0,1.0,-0.928950244141,-0.201112939453,-10.0221281494,1.0,0.0,0.0,0.0,1.0,0.0,0.0,0.0,1.0
1463469815536639569,675,1463469815534877176,,1.35743582249,-3.30535674095,-169.680938721,0.0100020002574,1.0,0.0,0.0,0.0,1.0,0.0,0.0,0.0,1.0,15.7317075729,-6.15853643417,-52.4390258789,1.0,0.0,0.0,0.0,1.0,0.0,0.0,0.0,1.0,-1.10612116699,0.0287304199219,-10.1753570557,1.0,0.0,0.0,0.0,1.0,0.0,0.0,0.0,1.0
1463469815546613455,676,1463469815544935021,,1.53001856804,-3.38940620422,-170.079956055,0.0100010000169,1.0,0.0,0.0,0.0,1.0,0.0,0.0,0.0,1.0,16.158536911,-6.0365858078,-51.6463432312,1.0,0.0,0.0,0.0,1.0,0.0,0.0,0.0,1.0,-1.13485158691,-0.215478149414,-10.2184526855,1.0,0.0,0.0,0.0,1.0,0.0,0.0,0.0,1.0
1463469815556688071,677,1463469815554985991,,1.70604252815,-3.46573805809,-170.452758789,0.00997800007463,1.0,0.0,0.0,0.0,1.0,0.0,0.0,0.0,1.0,15.975610733,-5.54878091812,-49.0853652954,1.0,0.0,0.0,0.0,1.0,0.0,0.0,0.0,1.0,-1.07260241682,-0.354341845703,-9.86411083984,1.0,0.0,0.0,0.0,1.0,0.0,0.0,0.0,1.0
1463469815566811176,678,1463469815564895659,,1.86074745655,-3.52534008026,-170.794647217,0.0100199999288,1.0,0.0,0.0,0.0,1.0,0.0,0.0,0.0,1.0,15.4878053665,-4.57317066193,-45.9756088257,1.0,0.0,0.0,0.0,1.0,0.0,0.0,0.0,1.0,-0.991199487305,-0.114921679688,-10.1992990723,1.0,0.0,0.0,0.0,1.0,0.0,0.0,0.0,1.0
1463469815576901417,679,1463469815574908713,,2.0476129055,-3.58343982697,-171.130737305,0.00999899953604,1.0,0.0,0.0,0.0,1.0,0.0,0.0,0.0,1.0,16.8902435303,-3.90243911743,-45.365852356,1.0,0.0,0.0,0.0,1.0,0.0,0.0,0.0,1.0,-1.09654436035,-0.469263525391,-10.0317049561,1.0,0.0,0.0,0.0,1.0,0.0,0.0,0.0,1.0
1463469815586513273,680,1463469815584886975,,2.22328901291,-3.63827466965,-171.436584473,0.00999999977648,1.0,0.0,0.0,0.0,1.0,0.0,0.0,0.0,1.0,16.7073173523,-4.45121955872,-42.3780517578,1.0,0.0,0.0,0.0,1.0,0.0,0.0,0.0,1.0,-0.91458503418,-0.349553442383,-9.66778688823,1.0,0.0,0.0,0.0,1.0,0.0,0.0,0.0,1.0
1463469815596519504,681,1463469815594892736,,2.36681222916,-3.68310976028,-171.708618164,0.00999800022691,1.0,0.0,0.0,0.0,1.0,0.0,0.0,0.0,1.0,15.4878053665,-4.08536577225,-39.1463432312,1.0,0.0,0.0,0.0,1.0,0.0,0.0,0.0,1.0,-0.833182177734,-0.0718260498047,-9.99339772949,1.0,0.0,0.0,0.0,1.0,0.0,0.0,0.0,1.0
1463469815606608234,682,1463469815604903133,,2.50624275208,-3.74105191231,-171.952880859,0.0100010000169,1.0,0.0,0.0,0.0,1.0,0.0,0.0,0.0,1.0,15.6707315445,-5.48780488968,-36.3414611816,1.0,0.0,0.0,0.0,1.0,0.0,0.0,0.0,1.0,-0.823605371094,-0.0191536132812,-10.0939541992,1.0,0.0,0.0,0.0,1.0,0.0,0.0,0.0,1.0
1463469815616666756,683,1463469815614930770,,2.65525984764,-3.80044054985,-172.170379639,0.010006999597,1.0,0.0,0.0,0.0,1.0,0.0,0.0,0.0,1.0,15.0609760284,-5.73170757294,-33.5365867615,1.0,0.0,0.0,0.0,1.0,0.0,0.0,0.0,1.0,-0.814028564453,-0.354341845703,-10.2088758789,1.0,0.0,0.0,0.0,1.0,0.0,0.0,0.0,1.0
1463469815626874601,684,1463469815624882886,,2.77235794067,-3.87875890732,-172.349060059,0.00999400019646,1.0,0.0,0.0,0.0,1.0,0.0,0.0,0.0,1.0,13.5365858078,-6.40243911743,-29.7560997009,1.0,0.0,0.0,0.0,1.0,0.0,0.0,0.0,1.0,-1.03429511719,-0.124498486328,-10.3094323486,1.0,0.0,0.0,0.0,1.0,0.0,0.0,0.0,1.0
1463469815636549270,685,1463469815634920575,,2.8597304821,-3.94774365425,-172.500610352,0.0100119998679,1.0,0.0,0.0,0.0,1.0,0.0,0.0,0.0,1.0,12.1341466904,-6.21951246262,-27.1341457367,1.0,0.0,0.0,0.0,1.0,0.0,0.0,0.0,1.0,-0.890643017578,0.114921679688,-10.3190091553,1.0,0.0,0.0,0.0,1.0,0.0,0.0,0.0,1.0
1463469815646580761,686,1463469815644933055,,2.9152276516,-4.02599954605,-172.619155884,0.00998899992555,1.0,0.0,0.0,0.0,1.0,0.0,0.0,0.0,1.0,12.6219520569,-6.95121955872,-24.0853652954,1.0,0.0,0.0,0.0,1.0,0.0,0.0,0.0,1.0,-0.857124194336,0.689530078125,-9.65342167827,1.0,0.0,0.0,0.0,1.0,0.0,0.0,0.0,1.0
1463469815656724439,687,1463469815655055536,,2.99976611137,-4.09868764877,-172.718780518,0.0100020002574,1.0,0.0,0.0,0.0,1.0,0.0,0.0,0.0,1.0,13.2926826477,-8.41463470459,-21.9512195587,1.0,0.0,0.0,0.0,1.0,0.0,0.0,0.0,1.0,-0.555454785156,0.296881024126,-10.5584293213,1.0,0.0,0.0,0.0,1.0,0.0,0.0,0.0,1.0
1463469815666557649,688,1463469815664910985,,3.07904219627,-4.17988681793,-172.790939331,0.0100029995665,1.0,0.0,0.0,0.0,1.0,0.0,0.0,0.0,1.0,14.8170728683,-10.0,-19.2682914734,1.0,0.0,0.0,0.0,1.0,0.0,0.0,0.0,1.0,-0.397437475586,0.61770402832,-10.3237975586,1.0,0.0,0.0,0.0,1.0,0.0,0.0,0.0,1.0
1463469815676952004,689,1463469815674925132,,3.1828455925,-4.26987695694,-172.851913452,0.0099950004369,1.0,0.0,0.0,0.0,1.0,0.0,0.0,0.0,1.0,16.8902435303,-11.341463089,-18.0487823486,1.0,0.0,0.0,0.0,1.0,0.0,0.0,0.0,1.0,-0.316034619141,0.512359155273,-10.1992990723,1.0,0.0,0.0,0.0,1.0,0.0,0.0,0.0,1.0
1463469815686520318,690,1463469815684878498,,3.3230407238,-4.37274742126,-172.898117065,0.00999999977648,1.0,0.0,0.0,0.0,1.0,0.0,0.0,0.0,1.0,19.7560977936,-13.048781395,-16.4024391174,1.0,0.0,0.0,0.0,1.0,0.0,0.0,0.0,1.0,-0.234631762695,0.325611425781,-9.87368764648,1.0,0.0,0.0,0.0,1.0,0.0,0.0,0.0,1.0
1463469815696510820,691,1463469815694904625,,3.4806830883,-4.49565458298,-172.937286377,0.00999899953604,1.0,0.0,0.0,0.0,1.0,0.0,0.0,0.0,1.0,21.7073173523,-14.3902444839,-15.6097564697,1.0,0.0,0.0,0.0,1.0,0.0,0.0,0.0,1.0,-0.363918652344,0.330399829102,-9.90241806641,1.0,0.0,0.0,0.0,1.0,0.0,0.0,0.0,1.0
1463469815706564602,692,1463469815704890595,,3.65371537209,-4.62963294983,-172.974868774,0.0100029995665,1.0,0.0,0.0,0.0,1.0,0.0,0.0,0.0,1.0,24.8780498505,-15.3658533096,-15.4878053665,1.0,0.0,0.0,0.0,1.0,0.0,0.0,0.0,1.0,-0.411802685547,0.598550451572,-10.0221281494,1.0,0.0,0.0,0.0,1.0,0.0,0.0,0.0,1.0
1463469815716694478,693,1463469815714960054,,3.85802698135,-4.76667118073,-173.018875122,0.0100029995665,1.0,0.0,0.0,0.0,1.0,0.0,0.0,0.0,1.0,27.5609760284,-16.6463413239,-15.975610733,1.0,0.0,0.0,0.0,1.0,0.0,0.0,0.0,1.0,-0.268150604204,0.493205541992,-9.90241806641,1.0,0.0,0.0,0.0,1.0,0.0,0.0,0.0,1.0
1463469815726893729,694,1463469815724883004,,4.07966327667,-4.92121315002,-173.059020996,0.00999299995601,1.0,0.0,0.0,0.0,1.0,0.0,0.0,0.0,1.0,29.3902435303,-17.5609760284,-15.4878053665,1.0,0.0,0.0,0.0,1.0,0.0,0.0,0.0,1.0,-0.445321508789,0.474051928711,-10.046070166,1.0,0.0,0.0,0.0,1.0,0.0,0.0,0.0,1.0
1463469815736542408,695,1463469815734899911,,4.3161149025,-5.08040809631,-173.107574463,0.0100020002574,1.0,0.0,0.0,0.0,1.0,0.0,0.0,0.0,1.0,30.8536605835,-18.2926826477,-16.2195110321,1.0,0.0,0.0,0.0,1.0,0.0,0.0,0.0,1.0,-0.440533105469,0.45489831543,-10.1562034424,1.0,0.0,0.0,0.0,1.0,0.0,0.0,0.0,1.0
1463469815746629524,696,1463469815744958225,,4.58554029465,-5.23760604858,-173.174133301,0.00999800022691,1.0,0.0,0.0,0.0,1.0,0.0,0.0,0.0,1.0,32.2560958862,-18.9024391174,-17.7439022064,1.0,0.0,0.0,0.0,1.0,0.0,0.0,0.0,1.0,-0.359130249023,0.100556469727,-10.3285859619,1.0,0.0,0.0,0.0,1.0,0.0,0.0,0.0,1.0
1463469815756812317,697,1463469815755002841,,4.86360263824,-5.40644884109,-173.258255005,0.00999899953604,1.0,0.0,0.0,0.0,1.0,0.0,0.0,0.0,1.0,31.8292694092,-18.5975627899,-19.3292694092,1.0,0.0,0.0,0.0,1.0,0.0,0.0,0.0,1.0,-0.679953271484,-0.148440512063,-10.2184526855,1.0,0.0,0.0,0.0,1.0,0.0,0.0,0.0,1.0
1463469815766528652,698,1463469815764904697,,5.14008331299,-5.58003473282,-173.359649658,0.0100029995665,1.0,0.0,0.0,0.0,1.0,0.0,0.0,0.0,1.0,30.0000019073,-18.1707305908,-20.8536586761,1.0,0.0,0.0,0.0,1.0,0.0,0.0,0.0,1.0,-0.92416184082,-0.474051928711,-10.419565625,1.0,0.0,0.0,0.0,1.0,0.0,0.0,0.0,1.0
1463469815776572226,699,1463469815774875719,,5.37796974182,-5.74404287338,-173.477340698,0.00999899953604,1.0,0.0,0.0,0.0,1.0,0.0,0.0,0.0,1.0,25.6097564697,-16.7073173523,-22.5,1.0,0.0,0.0,0.0,1.0,0.0,0.0,0.0,1.0,-1.09654436035,-0.593762048251,-10.5057568848,1.0,0.0,0.0,0.0,1.0,0.0,0.0,0.0,1.0
1463469815786630852,700,1463469815784956429,,5.59145021439,-5.89307403564,-173.620162964,0.00999999977648,1.0,0.0,0.0,0.0,1.0,0.0,0.0,0.0,1.0,21.8902435303,-14.3292694092,-25.0609760284,1.0,0.0,0.0,0.0,1.0,0.0,0.0,0.0,1.0,-1.42694418945,-0.871489404297,-11.1234609131,1.0,0.0,0.0,0.0,1.0,0.0,0.0,0.0,1.0
1463469815796528750,701,1463469815794904117,,5.7833108902,-6.01676368713,-173.802871704,0.0100029995665,1.0,0.0,0.0,0.0,1.0,0.0,0.0,0.0,1.0,18.1097564697,-12.5609760284,-29.0243911743,1.0,0.0,0.0,0.0,1.0,0.0,0.0,0.0,1.0,-1.38384855957,-1.13963999023,-11.0516348633,1.0,0.0,0.0,0.0,1.0,0.0,0.0,0.0,1.0
1463469815806587793,702,1463469815804916963,,5.90896940231,-6.11165571213,-174.026367188,0.00999899953604,1.0,0.0,0.0,0.0,1.0,0.0,0.0,0.0,1.0,12.1951217651,-9.63414573669,-33.4756126404,1.0,0.0,0.0,0.0,1.0,0.0,0.0,0.0,1.0,-1.56580788574,-0.976834277344,-11.4347071289,1.0,0.0,0.0,0.0,1.0,0.0,0.0,0.0,1.0
1463469815816739335,703,1463469815815021162,,6.03177309036,-6.16947937012,-174.308837891,0.0100039998069,1.0,0.0,0.0,0.0,1.0,0.0,0.0,0.0,1.0,9.39024448395,-6.89024400711,-39.390247345,1.0,0.0,0.0,0.0,1.0,0.0,0.0,0.0,1.0,-1.52271225586,-1.38384855957,-11.4155535156,1.0,0.0,0.0,0.0,1.0,0.0,0.0,0.0,1.0
1463469815826666139,704,1463469815824964371,,6.12200164795,-6.18882989883,-174.652450562,0.00999699998647,1.0,0.0,0.0,0.0,1.0,0.0,0.0,0.0,1.0,5.0,-4.02439022064,-45.7317085266,1.0,0.0,0.0,0.0,1.0,0.0,0.0,0.0,1.0,-1.46525141602,-1.48919343262,-11.3006318359,1.0,0.0,0.0,0.0,1.0,0.0,0.0,0.0,1.0
1463469815836568568,705,1463469815834900237,,6.15175008774,-6.18308973312,-175.036193848,0.00999999977648,1.0,0.0,0.0,0.0,1.0,0.0,0.0,0.0,1.0,0.12195122242,-1.8292683363,-50.1219520569,1.0,0.0,0.0,0.0,1.0,0.0,0.0,0.0,1.0,-1.46525141602,-1.14921679688,-11.03248125,1.0,0.0,0.0,0.0,1.0,0.0,0.0,0.0,1.0
1463469815846593079,706,1463469815844905374,,6.12552785873,-6.14097309113,-175.447113037,0.00999699998647,1.0,0.0,0.0,0.0,1.0,0.0,0.0,0.0,1.0,-5.12195110321,0.609756112099,-53.1707305908,1.0,0.0,0.0,0.0,1.0,0.0,0.0,0.0,1.0,-1.26892687988,-1.01514150391,-10.8840407471,1.0,0.0,0.0,0.0,1.0,0.0,0.0,0.0,1.0
1463469815864854710,707,1463469815855212073,,6.02798843384,-6.07810640335,-175.875015259,0.0100050000474,1.0,0.0,0.0,0.0,1.0,0.0,0.0,0.0,1.0,-9.26829242706,2.5,-55.365852356,1.0,0.0,0.0,0.0,1.0,0.0,0.0,0.0,1.0,-1.25935007324,-0.402225878906,-10.9415015869,1.0,0.0,0.0,0.0,1.0,0.0,0.0,0.0,1.0
1463469815867622830,708,1463469815865169189,,5.88758993149,-5.99257802963,-176.328674316,0.0101220002398,1.0,0.0,0.0,0.0,1.0,0.0,0.0,0.0,1.0,-12.5,4.20731735229,-57.6829299927,1.0,0.0,0.0,0.0,1.0,0.0,0.0,0.0,1.0,-1.14442839355,-0.172382519531,-10.5871597412,1.0,0.0,0.0,0.0,1.0,0.0,0.0,0.0,1.0
1463469815877071197,709,1463469815874876045,,5.72025489807,-5.89665317535,-176.796890259,0.00986899994314,1.0,0.0,0.0,0.0,1.0,0.0,0.0,0.0,1.0,-14.5121955872,6.21951246262,-60.6097564697,1.0,0.0,0.0,0.0,1.0,0.0,0.0,0.0,1.0,-1.2737152832,0.0957680664062,-10.3956236084,1.0,0.0,0.0,0.0,1.0,0.0,0.0,0.0,1.0
1463469815887031230,710,1463469815884880192,,5.56533384323,-5.7700252533,-177.310638428,0.010006999597,1.0,0.0,0.0,0.0,1.0,0.0,0.0,0.0,1.0,-15.9146347046,8.35365867615,-64.3902435303,1.0,0.0,0.0,0.0,1.0,0.0,0.0,0.0,1.0,-1.1540052002,-0.354341845703,-10.3908352051,1.0,0.0,0.0,0.0,1.0,0.0,0.0,0.0,1.0
1463469815896715169,711,1463469815895092151,,5.37733745575,-5.64054965973,-177.846588135,0.00999199971557,1.0,0.0,0.0,0.0,1.0,0.0,0.0,0.0,1.0,-16.5243911743,9.20731735229,-67.0121994019,1.0,0.0,0.0,0.0,1.0,0.0,0.0,0.0,1.0,-1.19710090314,0.196324536133,-9.99339772949,1.0,0.0,0.0,0.0,1.0,0.0,0.0,0.0,1.0
1463469815907625512,712,1463469815904945361,,5.20351982117,-5.4808344841,-178.420608521,0.0100199999288,1.0,0.0,0.0,0.0,1.0,0.0,0.0,0.0,1.0,-17.2560977936,11.5243911743,-70.6097564697,1.0,0.0,0.0,0.0,1.0,0.0,0.0,0.0,1.0,-1.10133276367,-0.129286889648,-10.1370498291,1.0,0.0,0.0,0.0,1.0,0.0,0.0,0.0,1.0
1463469815916820130,713,1463469815915117060,,5.00218868256,-5.31795310974,-179.01171875,0.00998099986464,1.0,0.0,0.0,0.0,1.0,0.0,0.0,0.0,1.0,-18.2317085266,11.7682924271,-72.6829223633,1.0,0.0,0.0,0.0,1.0,0.0,0.0,0.0,1.0,-1.03908344744,0.239420166016,-10.0843773926,1.0,0.0,0.0,0.0,1.0,0.0,0.0,0.0,1.0
1463469815926698548,714,1463469815925009020,,4.80664300919,-5.14220428467,-179.620529175,0.00999899953604,1.0,0.0,0.0,0.0,1.0,0.0,0.0,0.0,1.0,-18.475610733,14.0243902206,-74.3902511597,1.0,0.0,0.0,0.0,1.0,0.0,0.0,0.0,1.0,-1.14921679688,0.114921679688,-9.8305920166,1.0,0.0,0.0,0.0,1.0,0.0,0.0,0.0,1.0
1463469815937133007,715,1463469815934979678,,4.64778804779,-4.94944429398,179.738540649,0.0100020002574,1.0,0.0,0.0,0.0,1.0,0.0,0.0,0.0,1.0,-17.0731716156,14.9390249252,-77.3780517578,1.0,0.0,0.0,0.0,1.0,0.0,0.0,0.0,1.0,-1.00077629395,-0.239420166016,-9.89762966309,1.0,0.0,0.0,0.0,1.0,0.0,0.0,0.0,1.0
