%time,field.header.seq,field.header.stamp,field.header.frame_id,field.orientation.x,field.orientation.y,field.orientation.z,field.orientation.w,field.orientation_covariance0,field.orientation_covariance1,field.orientation_covariance2,field.orientation_covariance3,field.orientation_covariance4,field.orientation_covariance5,field.orientation_covariance6,field.orientation_covariance7,field.orientation_covariance8,field.angular_velocity.x,field.angular_velocity.y,field.angular_velocity.z,field.angular_velocity_covariance0,field.angular_velocity_covariance1,field.angular_velocity_covariance2,field.angular_velocity_covariance3,field.angular_velocity_covariance4,field.angular_velocity_covariance5,field.angular_velocity_covariance6,field.angular_velocity_covariance7,field.angular_velocity_covariance8,field.linear_acceleration.x,field.linear_acceleration.y,field.linear_acceleration.z,field.linear_acceleration_covariance0,field.linear_acceleration_covariance1,field.linear_acceleration_covariance2,field.linear_acceleration_covariance3,field.linear_acceleration_covariance4,field.linear_acceleration_covariance5,field.linear_acceleration_covariance6,field.linear_acceleration_covariance7,field.linear_acceleration_covariance8
1464167060706515331,198,1464167060537926532,,8.43068885803,-2.42064833641,-178.651992798,0.00370300002396,1.0,0.0,0.0,0.0,1.0,0.0,0.0,0.0,1.0,0.0,1.76829278469,-0.670731723309,1.0,0.0,0.0,0.0,1.0,0.0,0.0,0.0,1.0,0.15322890625,-0.890643017578,10.180145459,1.0,0.0,0.0,0.0,1.0,0.0,0.0,0.0,1.0
1464167060712976302,199,1464167060567904260,,8.35515213013,-2.47028541565,-178.666122437,0.00333600002341,1.0,0.0,0.0,0.0,1.0,0.0,0.0,0.0,1.0,0.0609756112099,4.75609779358,-2.37804889679,1.0,0.0,0.0,0.0,1.0,0.0,0.0,0.0,1.0,-0.0718260498047,-0.718260498047,10.1992990723,1.0,0.0,0.0,0.0,1.0,0.0,0.0,0.0,1.0
1464167060713492343,200,1464167060587019155,,8.32659721375,-2.54156923294,-178.725921631,0.0106239998713,1.0,0.0,0.0,0.0,1.0,0.0,0.0,0.0,1.0,0.0609756112099,5.12195110321,-3.29268312454,1.0,0.0,0.0,0.0,1.0,0.0,0.0,0.0,1.0,-0.100556469727,-0.780509741211,10.1609918457,1.0,0.0,0.0,0.0,1.0,0.0,0.0,0.0,1.0
1464167060714197862,201,1464167060607815451,,8.30996227264,-2.59682869911,-178.780700684,0.00121400004718,1.0,0.0,0.0,0.0,1.0,0.0,0.0,0.0,1.0,-0.18292683363,3.90243911743,-3.23170733452,1.0,0.0,0.0,0.0,1.0,0.0,0.0,0.0,1.0,-0.349553442383,-0.775721337891,10.1992990723,1.0,0.0,0.0,0.0,1.0,0.0,0.0,0.0,1.0
1464167060714254684,202,1464167060628486018,,8.26237106323,-2.659979105,-178.841644287,0.00110700004734,1.0,0.0,0.0,0.0,1.0,0.0,0.0,0.0,1.0,-0.365853667259,1.76829278469,-4.02439022064,1.0,0.0,0.0,0.0,1.0,0.0,0.0,0.0,1.0,-0.138863696289,-0.497993945312,10.1322614258,1.0,0.0,0.0,0.0,1.0,0.0,0.0,0.0,1.0
1464167060714760047,203,1464167060653172876,,8.13180732727,-2.73277926445,-178.933044434,0.00613200012594,1.0,0.0,0.0,0.0,1.0,0.0,0.0,0.0,1.0,-0.426829278469,1.15853655338,-4.63414621353,1.0,0.0,0.0,0.0,1.0,0.0,0.0,0.0,1.0,-0.181959326172,-0.780509741211,10.1083194092,1.0,0.0,0.0,0.0,1.0,0.0,0.0,0.0,1.0
1464167060714798901,204,1464167060673909485,,8.07255649567,-2.79437088966,-178.958328247,0.00501100020483,1.0,0.0,0.0,0.0,1.0,0.0,0.0,0.0,1.0,-0.426829278469,4.63414621353,0.18292683363,1.0,0.0,0.0,0.0,1.0,0.0,0.0,0.0,1.0,-0.229843359375,-0.330399829102,10.165780249,1.0,0.0,0.0,0.0,1.0,0.0,0.0,0.0,1.0
1464167060714828276,205,1464167060695747913,,8.11458778381,-2.83920025826,-178.861846924,0.00142900005449,1.0,0.0,0.0,0.0,1.0,0.0,0.0,0.0,1.0,-0.0609756112099,3.7804877758,5.18292713165,1.0,0.0,0.0,0.0,1.0,0.0,0.0,0.0,1.0,-0.349553442383,-0.866701000977,10.0556469727,1.0,0.0,0.0,0.0,1.0,0.0,0.0,0.0,1.0
1464167060721110759,206,1464167060716054992,,8.04460144043,-2.86311030388,-178.759384155,0.00104100001045,1.0,0.0,0.0,0.0,1.0,0.0,0.0,0.0,1.0,-0.304878056049,-2.37804889679,1.76829278469,1.0,0.0,0.0,0.0,1.0,0.0,0.0,0.0,1.0,0.268150604204,-0.541089611728,10.314220752,1.0,0.0,0.0,0.0,1.0,0.0,0.0,0.0,1.0
1464167060743211634,207,1464167060740710444,,7.85794258118,-2.90685772896,-178.735397339,0.00101100001484,1.0,0.0,0.0,0.0,1.0,0.0,0.0,0.0,1.0,-1.70731711388,0.914634168148,1.58536589146,1.0,0.0,0.0,0.0,1.0,0.0,0.0,0.0,1.0,-0.598550451572,-1.07260241682,10.0029745361,1.0,0.0,0.0,0.0,1.0,0.0,0.0,0.0,1.0
1464167060765947977,208,1464167060762993402,,7.80964899063,-2.98687458038,-178.631317139,0.00276600010693,1.0,0.0,0.0,0.0,1.0,0.0,0.0,0.0,1.0,-1.46341466904,4.39024400711,8.35365867615,1.0,0.0,0.0,0.0,1.0,0.0,0.0,0.0,1.0,-0.890643017578,-0.598550451572,10.314220752,1.0,0.0,0.0,0.0,1.0,0.0,0.0,0.0,1.0
1464167060791321239,209,1464167060780582103,,7.81037139893,-3.02578377724,-178.446899414,0.00414599990472,1.0,0.0,0.0,0.0,1.0,0.0,0.0,0.0,1.0,-1.09756100178,0.853658556938,7.62195110321,1.0,0.0,0.0,0.0,1.0,0.0,0.0,0.0,1.0,-0.253785375977,-0.469263525391,10.1609918457,1.0,0.0,0.0,0.0,1.0,0.0,0.0,0.0,1.0
1464167060807561611,210,1464167060804417349,,7.64869594574,-3.09455561638,-178.316741943,0.00588499987498,1.0,0.0,0.0,0.0,1.0,0.0,0.0,0.0,1.0,-3.53658556938,-1.8902438879,0.853658556938,1.0,0.0,0.0,0.0,1.0,0.0,0.0,0.0,1.0,0.416591088867,-0.675164868164,10.1131078125,1.0,0.0,0.0,0.0,1.0,0.0,0.0,0.0,1.0
1464167060826797442,211,1464167060824944218,,7.51110649109,-3.19357323647,-178.276351929,0.00298100011423,1.0,0.0,0.0,0.0,1.0,0.0,0.0,0.0,1.0,-2.86585378647,1.52439022064,2.5,1.0,0.0,0.0,0.0,1.0,0.0,0.0,0.0,1.0,-0.15801730957,-0.909796630859,10.3046439453,1.0,0.0,0.0,0.0,1.0,0.0,0.0,0.0,1.0
1464167060847742748,212,1464167060845332547,,7.48508739471,-3.27332758904,-178.192611694,0.00155100005213,1.0,0.0,0.0,0.0,1.0,0.0,0.0,0.0,1.0,-1.34146344662,4.32926845551,4.02439022064,1.0,0.0,0.0,0.0,1.0,0.0,0.0,0.0,1.0,-0.268150604204,-0.718260498047,10.1992990723,1.0,0.0,0.0,0.0,1.0,0.0,0.0,0.0,1.0
1464167060868833627,213,1464167060866299832,,7.47988033295,-3.32360005379,-178.099227905,0.00131500000134,1.0,0.0,0.0,0.0,1.0,0.0,0.0,0.0,1.0,-1.52439022064,2.13414645195,2.56097555161,1.0,0.0,0.0,0.0,1.0,0.0,0.0,0.0,1.0,-0.129286889648,-0.751779321289,10.1370498291,1.0,0.0,0.0,0.0,1.0,0.0,0.0,0.0,1.0
1464167060889872787,214,1464167060887311752,,7.40898656845,-3.3687479496,-178.042373657,0.00104700005613,1.0,0.0,0.0,0.0,1.0,0.0,0.0,0.0,1.0,-0.487804889679,2.01219511032,1.34146344662,1.0,0.0,0.0,0.0,1.0,0.0,0.0,0.0,1.0,0.00957680664062,-0.881066210937,10.2088758789,1.0,0.0,0.0,0.0,1.0,0.0,0.0,0.0,1.0
1464167060912083454,215,1464167060908386641,,7.35983610153,-3.39392066002,-177.995895386,0.00101799995173,1.0,0.0,0.0,0.0,1.0,0.0,0.0,0.0,1.0,0.18292683363,3.04878044128,1.2195122242,1.0,0.0,0.0,0.0,1.0,0.0,0.0,0.0,1.0,0.076614453125,-1.06781401349,10.3190091553,1.0,0.0,0.0,0.0,1.0,0.0,0.0,0.0,1.0
1464167060938975462,216,1464167060929491009,,7.34434223175,-3.39892888069,-177.937896729,0.00099400000181,1.0,0.0,0.0,0.0,1.0,0.0,0.0,0.0,1.0,0.487804889679,3.90243911743,2.13414645195,1.0,0.0,0.0,0.0,1.0,0.0,0.0,0.0,1.0,-0.378283862305,-0.699106884766,10.2902787354,1.0,0.0,0.0,0.0,1.0,0.0,0.0,0.0,1.0
1464167060959999361,217,1464167060950860116,,7.2744436264,-3.41073179245,-177.893859863,0.000962999998592,1.0,0.0,0.0,0.0,1.0,0.0,0.0,0.0,1.0,0.304878056049,0.365853667259,0.12195122242,1.0,0.0,0.0,0.0,1.0,0.0,0.0,0.0,1.0,0.0718260498047,-0.689530078125,10.3190091553,1.0,0.0,0.0,0.0,1.0,0.0,0.0,0.0,1.0
1464167060974034270,218,1464167060971848755,,7.10739374161,-3.43758916855,-177.965332031,0.00101799995173,1.0,0.0,0.0,0.0,1.0,0.0,0.0,0.0,1.0,0.975609779358,1.2195122242,-4.87804889679,1.0,0.0,0.0,0.0,1.0,0.0,0.0,0.0,1.0,0.210689746094,-0.814028564453,10.3333743652,1.0,0.0,0.0,0.0,1.0,0.0,0.0,0.0,1.0
1464167060995694001,219,1464167060992378385,,7.10057210922,-3.4607694149,-177.998580933,0.0010969999712,1.0,0.0,0.0,0.0,1.0,0.0,0.0,0.0,1.0,0.609756112099,3.41463422775,-2.19512200356,1.0,0.0,0.0,0.0,1.0,0.0,0.0,0.0,1.0,-0.0622492431641,-0.742202514648,10.3668931885,1.0,0.0,0.0,0.0,1.0,0.0,0.0,0.0,1.0
1464167061020494036,220,1464167061013266243,,7.11709928513,-3.47309803963,-177.98387146,0.00103499996476,1.0,0.0,0.0,0.0,1.0,0.0,0.0,0.0,1.0,0.731707334518,4.57317066193,0.548780500889,1.0,0.0,0.0,0.0,1.0,0.0,0.0,0.0,1.0,-0.354341845703,-0.756567724609,9.95509050293,1.0,0.0,0.0,0.0,1.0,0.0,0.0,0.0,1.0
1464167061043121733,221,1464167061034479986,,7.101978302,-3.48234844208,-177.963394165,0.0012150000548,1.0,0.0,0.0,0.0,1.0,0.0,0.0,0.0,1.0,0.914634168148,2.25609779358,0.12195122242,1.0,0.0,0.0,0.0,1.0,0.0,0.0,0.0,1.0,-0.0335188255255,-0.790086547852,10.1753570557,1.0,0.0,0.0,0.0,1.0,0.0,0.0,0.0,1.0
1464167061058165493,222,1464167061055148470,,7.04640817642,-3.49174833298,-177.933837891,0.00113999994937,1.0,0.0,0.0,0.0,1.0,0.0,0.0,0.0,1.0,1.46341466904,1.40243899822,1.09756100178,1.0,0.0,0.0,0.0,1.0,0.0,0.0,0.0,1.0,-0.124498486328,-0.861912597656,10.4004120117,1.0,0.0,0.0,0.0,1.0,0.0,0.0,0.0,1.0
1464167061081823552,223,1464167061079031268,,6.98766899109,-3.49404478073,-177.877197266,0.000974000024144,1.0,0.0,0.0,0.0,1.0,0.0,0.0,0.0,1.0,1.40243899822,1.03658533096,2.31707310677,1.0,0.0,0.0,0.0,1.0,0.0,0.0,0.0,1.0,-0.067037651051,-0.847547387695,10.2088758789,1.0,0.0,0.0,0.0,1.0,0.0,0.0,0.0,1.0
1464167061098767150,224,1464167061096709083,,6.9257979393,-3.49833345413,-177.802505493,0.00119700003415,1.0,0.0,0.0,0.0,1.0,0.0,0.0,0.0,1.0,0.975609779358,0.853658556938,2.92682933807,1.0,0.0,0.0,0.0,1.0,0.0,0.0,0.0,1.0,0.0335188255255,-0.713472094727,10.1514150391,1.0,0.0,0.0,0.0,1.0,0.0,0.0,0.0,1.0
1464167061119557248,225,1464167061116994182,,6.85554742813,-3.49855232239,-177.708068848,0.00110700004734,1.0,0.0,0.0,0.0,1.0,0.0,0.0,0.0,1.0,0.365853667259,1.09756100178,3.71951246262,1.0,0.0,0.0,0.0,1.0,0.0,0.0,0.0,1.0,0.0478840332031,-0.828393774414,10.3908352051,1.0,0.0,0.0,0.0,1.0,0.0,0.0,0.0,1.0
1464167061141153646,226,1464167061138506101,,6.81662654877,-3.50245642662,-177.579345703,0.00126499996986,1.0,0.0,0.0,0.0,1.0,0.0,0.0,0.0,1.0,0.12195122242,0.853658556938,5.30487823486,1.0,0.0,0.0,0.0,1.0,0.0,0.0,0.0,1.0,-0.205901342773,-0.976834277344,9.95030209961,1.0,0.0,0.0,0.0,1.0,0.0,0.0,0.0,1.0
1464167061161713901,227,1464167061159780052,,6.69794034958,-3.52108454704,-177.487289429,0.00121799996123,1.0,0.0,0.0,0.0,1.0,0.0,0.0,0.0,1.0,-0.18292683363,-1.09756100178,0.0,1.0,0.0,0.0,0.0,1.0,0.0,0.0,0.0,1.0,0.799663354492,-0.713472094727,9.70130512695,1.0,0.0,0.0,0.0,1.0,0.0,0.0,0.0,1.0
1464167061183574256,228,1464167061181043586,,6.59237241745,-3.56314444542,-177.480209351,0.00120199995581,1.0,0.0,0.0,0.0,1.0,0.0,0.0,0.0,1.0,-1.03658533096,2.43902444839,0.548780500889,1.0,0.0,0.0,0.0,1.0,0.0,0.0,0.0,1.0,-0.45968671875,-0.976834277344,9.95987890625,1.0,0.0,0.0,0.0,1.0,0.0,0.0,0.0,1.0
1464167061204510917,229,1464167061201854570,,6.60641622543,-3.59534502029,-177.403289795,0.00568899977952,1.0,0.0,0.0,0.0,1.0,0.0,0.0,0.0,1.0,0.487804889679,4.87804889679,5.06097555161,1.0,0.0,0.0,0.0,1.0,0.0,0.0,0.0,1.0,-0.100556469727,-0.679953271484,10.1992990723,1.0,0.0,0.0,0.0,1.0,0.0,0.0,0.0,1.0
1464167061225864555,230,1464167061223261020,,6.65260219574,-3.60438776016,-177.279067993,0.00546899996698,1.0,0.0,0.0,0.0,1.0,0.0,0.0,0.0,1.0,0.365853667259,2.01219511032,4.08536577225,1.0,0.0,0.0,0.0,1.0,0.0,0.0,0.0,1.0,-0.335188232422,-0.699106884766,9.72524714355,1.0,0.0,0.0,0.0,1.0,0.0,0.0,0.0,1.0
1464167061246599549,231,1464167061244757158,,6.52093648911,-3.6112112999,-177.223144531,0.00113600003533,1.0,0.0,0.0,0.0,1.0,0.0,0.0,0.0,1.0,-0.853658556938,-1.40243899822,-1.95121955872,1.0,0.0,0.0,0.0,1.0,0.0,0.0,0.0,1.0,0.46447512207,-0.938527050781,10.4482960449,1.0,0.0,0.0,0.0,1.0,0.0,0.0,0.0,1.0
1464167061267749542,232,1464167061265895120,,6.40612411499,-3.62144398689,-177.229232788,0.0067159999162,1.0,0.0,0.0,0.0,1.0,0.0,0.0,0.0,1.0,0.487804889679,1.8292683363,0.12195122242,1.0,0.0,0.0,0.0,1.0,0.0,0.0,0.0,1.0,-0.076614453125,-0.727837304687,10.0364933594,1.0,0.0,0.0,0.0,1.0,0.0,0.0,0.0,1.0
1464167061288652504,233,1464167061286441937,,6.42381000519,-3.6392583847,-177.162368774,0.00103199994192,1.0,0.0,0.0,0.0,1.0,0.0,0.0,0.0,1.0,0.792682945728,3.71951246262,3.84146332741,1.0,0.0,0.0,0.0,1.0,0.0,0.0,0.0,1.0,-0.550666381836,-0.713472094727,9.88326445312,1.0,0.0,0.0,0.0,1.0,0.0,0.0,0.0,1.0
1464167061309104478,234,1464167061307058077,,6.42005157471,-3.63648557663,-177.062301636,0.00102700002026,1.0,0.0,0.0,0.0,1.0,0.0,0.0,0.0,1.0,-0.426829278469,-0.548780500889,2.43902444839,1.0,0.0,0.0,0.0,1.0,0.0,0.0,0.0,1.0,-0.100556469727,-0.411802685547,10.2759135254,1.0,0.0,0.0,0.0,1.0,0.0,0.0,0.0,1.0
1464167061330430408,235,1464167061327672864,,6.25525283813,-3.65211677551,-177.050094604,0.00110800005496,1.0,0.0,0.0,0.0,1.0,0.0,0.0,0.0,1.0,-0.12195122242,-2.92682933807,-2.5,1.0,0.0,0.0,0.0,1.0,0.0,0.0,0.0,1.0,0.488417138672,-1.08696755371,10.7643306641,1.0,0.0,0.0,0.0,1.0,0.0,0.0,0.0,1.0
1464167061350343165,236,1464167061348595826,,6.17066144943,-3.68663620949,-177.067169189,0.00101000000723,1.0,0.0,0.0,0.0,1.0,0.0,0.0,0.0,1.0,0.0,2.37804889679,-0.18292683363,1.0,0.0,0.0,0.0,1.0,0.0,0.0,0.0,1.0,-0.282515795898,-0.881066210937,10.1705686523,1.0,0.0,0.0,0.0,1.0,0.0,0.0,0.0,1.0
1464167061373638829,237,1464167061369609986,,6.16332864761,-3.71776914597,-177.033660889,0.00102500000503,1.0,0.0,0.0,0.0,1.0,0.0,0.0,0.0,1.0,-0.670731723309,2.92682933807,1.09756100178,1.0,0.0,0.0,0.0,1.0,0.0,0.0,0.0,1.0,-0.215478149414,-0.632069238281,10.0364933594,1.0,0.0,0.0,0.0,1.0,0.0,0.0,0.0,1.0
1464167061392662525,238,1464167061390454198,,6.14251899719,-3.74563169479,-176.998825073,0.00105500000063,1.0,0.0,0.0,0.0,1.0,0.0,0.0,0.0,1.0,0.0,1.52439022064,0.487804889679,1.0,0.0,0.0,0.0,1.0,0.0,0.0,0.0,1.0,-0.172382519531,-0.756567724609,10.3046439453,1.0,0.0,0.0,0.0,1.0,0.0,0.0,0.0,1.0
1464167061413737571,239,1464167061411446379,,6.11680603027,-3.77008390427,-176.954681396,0.000953999988269,1.0,0.0,0.0,0.0,1.0,0.0,0.0,0.0,1.0,0.487804889679,1.95121955872,2.13414645195,1.0,0.0,0.0,0.0,1.0,0.0,0.0,0.0,1.0,-0.244208569336,-0.847547387695,10.0077629395,1.0,0.0,0.0,0.0,1.0,0.0,0.0,0.0,1.0
1464167061435972248,240,1464167061432142102,,6.06514692307,-3.77699995041,-176.907302856,0.000997000024654,1.0,0.0,0.0,0.0,1.0,0.0,0.0,0.0,1.0,0.487804889679,-0.670731723309,-0.548780500889,1.0,0.0,0.0,0.0,1.0,0.0,0.0,0.0,1.0,0.679953271484,-0.837970581055,10.5009684814,1.0,0.0,0.0,0.0,1.0,0.0,0.0,0.0,1.0
1464167061459854421,241,1464167061452817617,,5.92550182343,-3.78168272972,-176.957870483,0.000956000003498,1.0,0.0,0.0,0.0,1.0,0.0,0.0,0.0,1.0,1.2804877758,0.670731723309,-4.57317066193,1.0,0.0,0.0,0.0,1.0,0.0,0.0,0.0,1.0,0.330399829102,-0.77093293457,10.2615483154,1.0,0.0,0.0,0.0,1.0,0.0,0.0,0.0,1.0
1464167061486709085,242,1464167061474450682,,5.91471719742,-3.81174254417,-176.998718262,0.00102700002026,1.0,0.0,0.0,0.0,1.0,0.0,0.0,0.0,1.0,0.914634168148,3.29268312454,-1.2804877758,1.0,0.0,0.0,0.0,1.0,0.0,0.0,0.0,1.0,-0.205901342773,-0.92416184082,10.0508585693,1.0,0.0,0.0,0.0,1.0,0.0,0.0,0.0,1.0
1464167061505212419,243,1464167061495037031,,5.93724012375,-3.80368995667,-176.9790802,0.00133200001437,1.0,0.0,0.0,0.0,1.0,0.0,0.0,0.0,1.0,1.2195122242,2.86585378647,0.731707334518,1.0,0.0,0.0,0.0,1.0,0.0,0.0,0.0,1.0,-0.210689746094,-0.703895288086,10.0652237793,1.0,0.0,0.0,0.0,1.0,0.0,0.0,0.0,1.0
1464167061525035384,244,1464167061515734473,,5.91310310364,-3.7961730957,-176.957260132,0.00118999998085,1.0,0.0,0.0,0.0,1.0,0.0,0.0,0.0,1.0,0.853658556938,1.64634156227,0.0609756112099,1.0,0.0,0.0,0.0,1.0,0.0,0.0,0.0,1.0,0.0335188255255,-0.732625708008,10.2471831055,1.0,0.0,0.0,0.0,1.0,0.0,0.0,0.0,1.0
1464167061541001277,245,1464167061537129569,,5.88179349899,-3.80026888847,-176.937149048,0.00122800003737,1.0,0.0,0.0,0.0,1.0,0.0,0.0,0.0,1.0,0.426829278469,1.70731711388,-0.12195122242,1.0,0.0,0.0,0.0,1.0,0.0,0.0,0.0,1.0,-0.110133276367,-0.737414111328,10.1897222656,1.0,0.0,0.0,0.0,1.0,0.0,0.0,0.0,1.0
1464167061560788826,246,1464167061558251541,,5.83885526657,-3.81086874008,-176.914245605,0.00122700002976,1.0,0.0,0.0,0.0,1.0,0.0,0.0,0.0,1.0,0.12195122242,0.975609779358,-0.0609756112099,1.0,0.0,0.0,0.0,1.0,0.0,0.0,0.0,1.0,-0.15801730957,-0.703895288086,9.98382092285,1.0,0.0,0.0,0.0,1.0,0.0,0.0,0.0,1.0
1464167061588536092,247,1464167061579575075,,5.77973604202,-3.82666492462,-176.893615723,0.0014600000577,1.0,0.0,0.0,0.0,1.0,0.0,0.0,0.0,1.0,0.853658556938,-0.487804889679,0.0609756112099,1.0,0.0,0.0,0.0,1.0,0.0,0.0,0.0,1.0,-0.076614453125,-0.775721337891,10.180145459,1.0,0.0,0.0,0.0,1.0,0.0,0.0,0.0,1.0
1464167061607838277,248,1464167061601912148,,5.6978635788,-3.82905292511,-176.873504639,0.00290099997073,1.0,0.0,0.0,0.0,1.0,0.0,0.0,0.0,1.0,1.09756100178,0.304878056049,-0.243902444839,1.0,0.0,0.0,0.0,1.0,0.0,0.0,0.0,1.0,-0.0622492431641,-0.76135612793,10.2950671387,1.0,0.0,0.0,0.0,1.0,0.0,0.0,0.0,1.0
1464167061627790513,249,1464167061622403653,,5.64399671555,-3.82599663734,-176.85647583,0.00109599996358,1.0,0.0,0.0,0.0,1.0,0.0,0.0,0.0,1.0,1.40243899822,1.46341466904,-0.365853667259,1.0,0.0,0.0,0.0,1.0,0.0,0.0,0.0,1.0,-0.067037651051,-0.837970581055,10.2184526855,1.0,0.0,0.0,0.0,1.0,0.0,0.0,0.0,1.0
1464167061650077638,250,1464167061645239892,,5.63297748566,-3.82447862625,-176.833343506,0.00118999998085,1.0,0.0,0.0,0.0,1.0,0.0,0.0,0.0,1.0,1.15853655338,3.29268312454,1.09756100178,1.0,0.0,0.0,0.0,1.0,0.0,0.0,0.0,1.0,-0.0861912597656,-0.756567724609,10.2280294922,1.0,0.0,0.0,0.0,1.0,0.0,0.0,0.0,1.0
1464167061672124868,251,1464167061664917336,,5.6495847702,-3.81933450699,-176.790359497,0.00146900000982,1.0,0.0,0.0,0.0,1.0,0.0,0.0,0.0,1.0,0.0609756112099,2.98780488968,0.792682945728,1.0,0.0,0.0,0.0,1.0,0.0,0.0,0.0,1.0,0.00957680664062,-0.517147558594,10.1322614258,1.0,0.0,0.0,0.0,1.0,0.0,0.0,0.0,1.0
1464167061690098516,252,1464167061685504310,,5.62481069565,-3.83705043793,-176.781723022,0.00162500003353,1.0,0.0,0.0,0.0,1.0,0.0,0.0,0.0,1.0,-0.914634168148,2.19512200356,-1.76829278469,1.0,0.0,0.0,0.0,1.0,0.0,0.0,0.0,1.0,0.15322890625,-0.651222851562,10.2184526855,1.0,0.0,0.0,0.0,1.0,0.0,0.0,0.0,1.0
1464167061711258717,253,1464167061706745605,,5.57895183563,-3.87206888199,-176.822998047,0.0011340000201,1.0,0.0,0.0,0.0,1.0,0.0,0.0,0.0,1.0,-0.548780500889,2.13414645195,-3.59756112099,1.0,0.0,0.0,0.0,1.0,0.0,0.0,0.0,1.0,-0.100556469727,-0.61770402832,10.1897222656,1.0,0.0,0.0,0.0,1.0,0.0,0.0,0.0,1.0
1464167061730951214,254,1464167061727139298,,5.48702955246,-3.89981675148,-176.921066284,0.001111999969,1.0,0.0,0.0,0.0,1.0,0.0,0.0,0.0,1.0,-0.914634168148,1.15853655338,-6.28048801422,1.0,0.0,0.0,0.0,1.0,0.0,0.0,0.0,1.0,0.45489831543,-0.588973571866,10.3860468018,1.0,0.0,0.0,0.0,1.0,0.0,0.0,0.0,1.0
1464167061751498084,255,1464167061748163770,,5.4817481041,-3.95695853233,-177.019058228,0.00112899998203,1.0,0.0,0.0,0.0,1.0,0.0,0.0,0.0,1.0,-0.365853667259,4.93902444839,-3.71951246262,1.0,0.0,0.0,0.0,1.0,0.0,0.0,0.0,1.0,-0.565031591797,-1.23540805664,10.4674496582,1.0,0.0,0.0,0.0,1.0,0.0,0.0,0.0,1.0
1464167061772165682,256,1464167061769185378,,5.57781457901,-3.98067879677,-177.022079468,0.00108700001147,1.0,0.0,0.0,0.0,1.0,0.0,0.0,0.0,1.0,0.670731723309,5.12195110321,0.243902444839,1.0,0.0,0.0,0.0,1.0,0.0,0.0,0.0,1.0,-0.373495458984,-0.670376464844,9.88805285645,1.0,0.0,0.0,0.0,1.0,0.0,0.0,0.0,1.0
1464167061793977444,257,1464167061790277767,,5.58756637573,-3.97953343391,-177.008407593,0.000969999993686,1.0,0.0,0.0,0.0,1.0,0.0,0.0,0.0,1.0,-0.853658556938,1.2804877758,-1.09756100178,1.0,0.0,0.0,0.0,1.0,0.0,0.0,0.0,1.0,0.124498486328,-0.636857641602,10.046070166,1.0,0.0,0.0,0.0,1.0,0.0,0.0,0.0,1.0
1464167061814643167,258,1464167061811576457,,5.46007061005,-3.99350881577,-177.095718384,0.000968999986071,1.0,0.0,0.0,0.0,1.0,0.0,0.0,0.0,1.0,0.304878056049,1.64634156227,-6.52439069748,1.0,0.0,0.0,0.0,1.0,0.0,0.0,0.0,1.0,0.287304199219,-0.665588061523,10.4674496582,1.0,0.0,0.0,0.0,1.0,0.0,0.0,0.0,1.0
1464167061835146756,259,1464167061832362389,,5.46577835083,-4.04800462723,-177.182006836,0.00115100003313,1.0,0.0,0.0,0.0,1.0,0.0,0.0,0.0,1.0,-0.853658556938,3.10975623131,-3.90243911743,1.0,0.0,0.0,0.0,1.0,0.0,0.0,0.0,1.0,-0.181959326172,-0.660799658203,10.3046439453,1.0,0.0,0.0,0.0,1.0,0.0,0.0,0.0,1.0
1464167061864582976,260,1464167061852998060,,5.49703884125,-4.08251810074,-177.209320068,0.00101000000723,1.0,0.0,0.0,0.0,1.0,0.0,0.0,0.0,1.0,-0.487804889679,3.47560977936,-1.34146344662,1.0,0.0,0.0,0.0,1.0,0.0,0.0,0.0,1.0,-0.483628735352,-0.699106884766,10.0029745361,1.0,0.0,0.0,0.0,1.0,0.0,0.0,0.0,1.0
1464167061882091312,261,1464167061874271959,,5.47301387787,-4.0969209671,-177.22807312,0.00101999996696,1.0,0.0,0.0,0.0,1.0,0.0,0.0,0.0,1.0,0.304878056049,0.975609779358,-2.07317066193,1.0,0.0,0.0,0.0,1.0,0.0,0.0,0.0,1.0,0.076614453125,-0.684741674805,10.2567599121,1.0,0.0,0.0,0.0,1.0,0.0,0.0,0.0,1.0
1464167061907831500,262,1464167061895191536,,5.4244852066,-4.11352682114,-177.253997803,0.00127500004601,1.0,0.0,0.0,0.0,1.0,0.0,0.0,0.0,1.0,-0.548780500889,1.64634156227,-1.95121955872,1.0,0.0,0.0,0.0,1.0,0.0,0.0,0.0,1.0,0.0814028564453,-0.593762048251,10.2950671387,1.0,0.0,0.0,0.0,1.0,0.0,0.0,0.0,1.0
1464167061924636922,263,1464167061916268873,,5.41658258438,-4.14730930328,-177.261459351,0.00126399996225,1.0,0.0,0.0,0.0,1.0,0.0,0.0,0.0,1.0,-1.8292683363,3.59756112099,-0.975609779358,1.0,0.0,0.0,0.0,1.0,0.0,0.0,0.0,1.0,0.105344873047,-0.737414111328,10.4004120117,1.0,0.0,0.0,0.0,1.0,0.0,0.0,0.0,1.0
1464167061944049889,264,1464167061937202564,,5.45955657959,-4.19803953171,-177.237411499,0.00143699999899,1.0,0.0,0.0,0.0,1.0,0.0,0.0,0.0,1.0,-2.37804889679,2.68292689323,0.853658556938,1.0,0.0,0.0,0.0,1.0,0.0,0.0,0.0,1.0,-0.287304199219,-0.632069238281,9.98860932617,1.0,0.0,0.0,0.0,1.0,0.0,0.0,0.0,1.0
1464167061966350764,265,1464167061962244161,,5.40457773209,-4.26637077332,-177.239349365,0.00583299994469,1.0,0.0,0.0,0.0,1.0,0.0,0.0,0.0,1.0,-2.74390244484,0.18292683363,-2.31707310677,1.0,0.0,0.0,0.0,1.0,0.0,0.0,0.0,1.0,0.143652099609,-0.737414111328,10.3429511719,1.0,0.0,0.0,0.0,1.0,0.0,0.0,0.0,1.0
1464167061986819144,266,1464167061984871702,,5.31127643585,-4.33035469055,-177.280532837,0.00382199999876,1.0,0.0,0.0,0.0,1.0,0.0,0.0,0.0,1.0,-1.70731711388,0.365853667259,-3.10975623131,1.0,0.0,0.0,0.0,1.0,0.0,0.0,0.0,1.0,0.148440512063,-0.751779321289,10.3477395752,1.0,0.0,0.0,0.0,1.0,0.0,0.0,0.0,1.0
1464167062008316584,267,1464167062006287267,,5.26773071289,-4.38743162155,-177.324081421,0.0014530000044,1.0,0.0,0.0,0.0,1.0,0.0,0.0,0.0,1.0,-1.76829278469,2.37804889679,-2.62195134163,1.0,0.0,0.0,0.0,1.0,0.0,0.0,0.0,1.0,-0.124498486328,-0.732625708008,10.1945106689,1.0,0.0,0.0,0.0,1.0,0.0,0.0,0.0,1.0
1464167062029344077,268,1464167062027752154,,5.23837089539,-4.4248714447,-177.367004395,0.00124100001995,1.0,0.0,0.0,0.0,1.0,0.0,0.0,0.0,1.0,-1.2804877758,1.8902438879,-3.71951246262,1.0,0.0,0.0,0.0,1.0,0.0,0.0,0.0,1.0,-0.0335188255255,-0.517147558594,10.1897222656,1.0,0.0,0.0,0.0,1.0,0.0,0.0,0.0,1.0
1464167062051601723,269,1464167062049268917,,5.17636108398,-4.44611930847,-177.453948975,0.00122199999169,1.0,0.0,0.0,0.0,1.0,0.0,0.0,0.0,1.0,-0.365853667259,1.2804877758,-5.85365867615,1.0,0.0,0.0,0.0,1.0,0.0,0.0,0.0,1.0,0.100556469727,-0.550666381836,10.2423947021,1.0,0.0,0.0,0.0,1.0,0.0,0.0,0.0,1.0
1464167062072988903,270,1464167062070561253,,5.15588521957,-4.46868848801,-177.551864624,0.00105800002348,1.0,0.0,0.0,0.0,1.0,0.0,0.0,0.0,1.0,0.243902444839,4.20731735229,-3.84146332741,1.0,0.0,0.0,0.0,1.0,0.0,0.0,0.0,1.0,-0.474051928711,-0.837970581055,10.2328178955,1.0,0.0,0.0,0.0,1.0,0.0,0.0,0.0,1.0
1464167062093127544,271,1464167062091041196,,5.19352006912,-4.46320533752,-177.58694458,0.00101000000723,1.0,0.0,0.0,0.0,1.0,0.0,0.0,0.0,1.0,0.914634168148,3.47560977936,-2.19512200356,1.0,0.0,0.0,0.0,1.0,0.0,0.0,0.0,1.0,-0.0430956298828,-0.756567724609,10.3046439453,1.0,0.0,0.0,0.0,1.0,0.0,0.0,0.0,1.0
1464167062114156444,272,1464167062111660461,,5.21667861938,-4.44701814651,-177.606445312,0.000972000008915,1.0,0.0,0.0,0.0,1.0,0.0,0.0,0.0,1.0,0.487804889679,2.80487799644,-1.46341466904,1.0,0.0,0.0,0.0,1.0,0.0,0.0,0.0,1.0,-0.287304199219,-0.632069238281,10.1322614258,1.0,0.0,0.0,0.0,1.0,0.0,0.0,0.0,1.0
1464167062134880240,273,1464167062132687225,,5.23117208481,-4.43473672867,-177.610992432,0.000999000039883,1.0,0.0,0.0,0.0,1.0,0.0,0.0,0.0,1.0,0.792682945728,2.19512200356,-0.426829278469,1.0,0.0,0.0,0.0,1.0,0.0,0.0,0.0,1.0,-0.292092584273,-0.660799658203,10.1945106689,1.0,0.0,0.0,0.0,1.0,0.0,0.0,0.0,1.0
1464167062156456638,274,1464167062153432428,,5.17022848129,-4.42220115662,-177.624069214,0.000966000021435,1.0,0.0,0.0,0.0,1.0,0.0,0.0,0.0,1.0,0.487804889679,-0.853658556938,-3.53658556938,1.0,0.0,0.0,0.0,1.0,0.0,0.0,0.0,1.0,-0.0191536132812,-0.248996972656,9.79228479004,1.0,0.0,0.0,0.0,1.0,0.0,0.0,0.0,1.0
1464167062181325943,275,1464167062174484608,,5.02423191071,-4.43452644348,-177.738632202,0.001111999969,1.0,0.0,0.0,0.0,1.0,0.0,0.0,0.0,1.0,-0.426829278469,-0.0609756112099,-7.13414621353,1.0,0.0,0.0,0.0,1.0,0.0,0.0,0.0,1.0,0.244208569336,-0.579396801758,10.4147772217,1.0,0.0,0.0,0.0,1.0,0.0,0.0,0.0,1.0
1464167062201097190,276,1464167062196623921,,5.02586698532,-4.46898174286,-177.808898926,0.00139800005127,1.0,0.0,0.0,0.0,1.0,0.0,0.0,0.0,1.0,-0.304878056049,5.18292713165,-1.52439022064,1.0,0.0,0.0,0.0,1.0,0.0,0.0,0.0,1.0,-0.689530078125,-1.14921679688,9.8784760498,1.0,0.0,0.0,0.0,1.0,0.0,0.0,0.0,1.0
1464167062219819377,277,1464167062217408134,,5.09989929199,-4.46003580093,-177.788894653,0.00126199994702,1.0,0.0,0.0,0.0,1.0,0.0,0.0,0.0,1.0,0.487804889679,3.17073178291,1.03658533096,1.0,0.0,0.0,0.0,1.0,0.0,0.0,0.0,1.0,-0.100556469727,-0.636857641602,10.0221281494,1.0,0.0,0.0,0.0,1.0,0.0,0.0,0.0,1.0
1464167062241664212,278,1464167062239139896,,5.08456420898,-4.45776224136,-177.779159546,0.0013190000318,1.0,0.0,0.0,0.0,1.0,0.0,0.0,0.0,1.0,-0.426829278469,1.76829278469,-1.64634156227,1.0,0.0,0.0,0.0,1.0,0.0,0.0,0.0,1.0,0.148440512063,-0.521935925381,10.0700121826,1.0,0.0,0.0,0.0,1.0,0.0,0.0,0.0,1.0
1464167062265527843,279,1464167062261498427,,5.05065107346,-4.48990535736,-177.808853149,0.00474500004202,1.0,0.0,0.0,0.0,1.0,0.0,0.0,0.0,1.0,-1.8902438879,2.07317066193,-2.68292689323,1.0,0.0,0.0,0.0,1.0,0.0,0.0,0.0,1.0,0.0,-0.684741674805,10.4913916748,1.0,0.0,0.0,0.0,1.0,0.0,0.0,0.0,1.0
1464167062292017300,280,1464167062282446754,,5.00655651093,-4.52177762985,-177.866439819,0.00127100001555,1.0,0.0,0.0,0.0,1.0,0.0,0.0,0.0,1.0,-0.0609756112099,1.03658533096,-4.57317066193,1.0,0.0,0.0,0.0,1.0,0.0,0.0,0.0,1.0,0.368707055664,-0.61770402832,10.2471831055,1.0,0.0,0.0,0.0,1.0,0.0,0.0,0.0,1.0
1464167062306539499,281,1464167062303702320,,4.98622274399,-4.5569767952,-177.948822021,0.00148500001524,1.0,0.0,0.0,0.0,1.0,0.0,0.0,0.0,1.0,0.304878056049,2.68292689323,-3.90243911743,1.0,0.0,0.0,0.0,1.0,0.0,0.0,0.0,1.0,-0.229843359375,-0.799663354492,10.5967365479,1.0,0.0,0.0,0.0,1.0,0.0,0.0,0.0,1.0
1464167062327720586,282,1464167062323907940,,5.08582687378,-4.55833005905,-177.939376831,0.0018759999657,1.0,0.0,0.0,0.0,1.0,0.0,0.0,0.0,1.0,1.58536589146,4.69512224197,2.07317066193,1.0,0.0,0.0,0.0,1.0,0.0,0.0,0.0,1.0,-0.737414111328,-0.794874951172,10.1753570557,1.0,0.0,0.0,0.0,1.0,0.0,0.0,0.0,1.0
1464167062348140320,283,1464167062345791317,,5.12942361832,-4.50936222076,-177.866333008,0.00242400006391,1.0,0.0,0.0,0.0,1.0,0.0,0.0,0.0,1.0,0.18292683363,2.68292689323,1.46341466904,1.0,0.0,0.0,0.0,1.0,0.0,0.0,0.0,1.0,0.00957680664062,-0.416591088867,9.99818613281,1.0,0.0,0.0,0.0,1.0,0.0,0.0,0.0,1.0
1464167062370113801,284,1464167062367008288,,5.08825302124,-4.49153327942,-177.837554932,0.00240000011399,1.0,0.0,0.0,0.0,1.0,0.0,0.0,0.0,1.0,-0.18292683363,1.34146344662,-0.426829278469,1.0,0.0,0.0,0.0,1.0,0.0,0.0,0.0,1.0,0.105344873047,-0.876277807617,10.4770264648,1.0,0.0,0.0,0.0,1.0,0.0,0.0,0.0,1.0
1464167062392657487,285,1464167062387370367,,5.03020572662,-4.48021650314,-177.852340698,0.00123299995903,1.0,0.0,0.0,0.0,1.0,0.0,0.0,0.0,1.0,2.13414645195,1.40243899822,-2.07317066193,1.0,0.0,0.0,0.0,1.0,0.0,0.0,0.0,1.0,0.148440512063,-0.799663354492,10.3190091553,1.0,0.0,0.0,0.0,1.0,0.0,0.0,0.0,1.0
1464167062413468888,286,1464167062408162496,,5.02526712418,-4.46202230453,-177.866500854,0.00109399994835,1.0,0.0,0.0,0.0,1.0,0.0,0.0,0.0,1.0,1.76829278469,2.07317066193,-1.40243899822,1.0,0.0,0.0,0.0,1.0,0.0,0.0,0.0,1.0,-0.244208569336,-0.703895288086,10.0029745361,1.0,0.0,0.0,0.0,1.0,0.0,0.0,0.0,1.0
1464167062432980500,287,1464167062429482957,,4.99702596664,-4.4308052063,-177.88710022,0.00168099999428,1.0,0.0,0.0,0.0,1.0,0.0,0.0,0.0,1.0,0.426829278469,2.74390244484,-2.25609779358,1.0,0.0,0.0,0.0,1.0,0.0,0.0,0.0,1.0,-0.105344873047,-0.660799658203,10.1562034424,1.0,0.0,0.0,0.0,1.0,0.0,0.0,0.0,1.0
1464167062454419658,288,1464167062450163472,,4.95555019379,-4.42139577866,-177.944488525,0.00133600004483,1.0,0.0,0.0,0.0,1.0,0.0,0.0,0.0,1.0,-0.12195122242,3.29268312454,-4.08536577225,1.0,0.0,0.0,0.0,1.0,0.0,0.0,0.0,1.0,0.253785375977,-0.76135612793,10.3381627686,1.0,0.0,0.0,0.0,1.0,0.0,0.0,0.0,1.0
1464167062474349290,289,1464167062471568829,,4.98206281662,-4.4365978241,-178.009124756,0.00114700000267,1.0,0.0,0.0,0.0,1.0,0.0,0.0,0.0,1.0,-0.487804889679,5.60975599289,-2.62195134163,1.0,0.0,0.0,0.0,1.0,0.0,0.0,0.0,1.0,-0.253785375977,-0.775721337891,10.1466266357,1.0,0.0,0.0,0.0,1.0,0.0,0.0,0.0,1.0
1464167062495234596,290,1464167062492566635,,5.06447839737,-4.458735466,-178.020339966,0.00104899995495,1.0,0.0,0.0,0.0,1.0,0.0,0.0,0.0,1.0,-1.09756100178,4.51219558716,-0.487804889679,1.0,0.0,0.0,0.0,1.0,0.0,0.0,0.0,1.0,-0.234631762695,-0.641646044922,10.0556469727,1.0,0.0,0.0,0.0,1.0,0.0,0.0,0.0,1.0
1464167062520160099,291,1464167062513542410,,5.10423088074,-4.48460626602,-178.01373291,0.00111499999184,1.0,0.0,0.0,0.0,1.0,0.0,0.0,0.0,1.0,-1.40243899822,3.10975623131,-0.12195122242,1.0,0.0,0.0,0.0,1.0,0.0,0.0,0.0,1.0,-0.138863696289,-0.708683691406,10.3812583984,1.0,0.0,0.0,0.0,1.0,0.0,0.0,0.0,1.0
1464167062537416926,292,1464167062534017613,,5.1350569725,-4.50768852234,-177.976867676,0.00101600005291,1.0,0.0,0.0,0.0,1.0,0.0,0.0,0.0,1.0,-1.40243899822,3.10975623131,1.95121955872,1.0,0.0,0.0,0.0,1.0,0.0,0.0,0.0,1.0,-0.31124621582,-0.584185168546,10.1992990723,1.0,0.0,0.0,0.0,1.0,0.0,0.0,0.0,1.0
1464167062558335357,293,1464167062554722763,,5.10640239716,-4.52853631973,-177.935592651,0.000991999986582,1.0,0.0,0.0,0.0,1.0,0.0,0.0,0.0,1.0,-0.914634168148,0.609756112099,0.18292683363,1.0,0.0,0.0,0.0,1.0,0.0,0.0,0.0,1.0,0.162805712891,-0.550666381836,10.0221281494,1.0,0.0,0.0,0.0,1.0,0.0,0.0,0.0,1.0
1464167062578756810,294,1464167062575655152,,5.02991485596,-4.5571603775,-177.940719604,0.00130000000354,1.0,0.0,0.0,0.0,1.0,0.0,0.0,0.0,1.0,-1.76829278469,-0.670731723309,-2.25609779358,1.0,0.0,0.0,0.0,1.0,0.0,0.0,0.0,1.0,0.0,-0.689530078125,10.2088758789,1.0,0.0,0.0,0.0,1.0,0.0,0.0,0.0,1.0
1464167062599103004,295,1464167062597143374,,4.9386548996,-4.57777404785,-177.974822998,0.00116999994498,1.0,0.0,0.0,0.0,1.0,0.0,0.0,0.0,1.0,-0.18292683363,-1.8902438879,-3.7804877758,1.0,0.0,0.0,0.0,1.0,0.0,0.0,0.0,1.0,0.387860668945,-0.684741674805,10.3860468018,1.0,0.0,0.0,0.0,1.0,0.0,0.0,0.0,1.0
1464167062624748088,296,1464167062618130815,,4.84959888458,-4.58613634109,-178.047698975,0.00115899997763,1.0,0.0,0.0,0.0,1.0,0.0,0.0,0.0,1.0,0.670731723309,1.40243899822,-4.32926845551,1.0,0.0,0.0,0.0,1.0,0.0,0.0,0.0,1.0,0.00478840332031,-0.756567724609,10.2328178955,1.0,0.0,0.0,0.0,1.0,0.0,0.0,0.0,1.0
1464167062645885633,297,1464167062642734861,,4.9240398407,-4.58186721802,-178.063674927,0.00477800006047,1.0,0.0,0.0,0.0,1.0,0.0,0.0,0.0,1.0,1.2804877758,6.15853643417,1.2195122242,1.0,0.0,0.0,0.0,1.0,0.0,0.0,0.0,1.0,-0.359130249023,-0.785298144531,9.99818613281,1.0,0.0,0.0,0.0,1.0,0.0,0.0,0.0,1.0
1464167062668738694,298,1464167062663878031,,5.00354814529,-4.53513097763,-178.012313843,0.00146800000221,1.0,0.0,0.0,0.0,1.0,0.0,0.0,0.0,1.0,0.975609779358,2.68292689323,0.0,1.0,0.0,0.0,0.0,1.0,0.0,0.0,0.0,1.0,0.00957680664062,-0.440533105469,10.0508585693,1.0,0.0,0.0,0.0,1.0,0.0,0.0,0.0,1.0
1464167062688068484,299,1464167062684783128,,4.91536569595,-4.52503490448,-178.041168213,0.00105099997018,1.0,0.0,0.0,0.0,1.0,0.0,0.0,0.0,1.0,-1.34146344662,-0.975609779358,-5.0,1.0,0.0,0.0,0.0,1.0,0.0,0.0,0.0,1.0,0.292092584273,-0.517147558594,10.1562034424,1.0,0.0,0.0,0.0,1.0,0.0,0.0,0.0,1.0
1464167062710653473,300,1464167062707693793,,4.83967828751,-4.5484380722,-178.129745483,0.00126900000032,1.0,0.0,0.0,0.0,1.0,0.0,0.0,0.0,1.0,-0.243902444839,1.76829278469,-3.17073178291,1.0,0.0,0.0,0.0,1.0,0.0,0.0,0.0,1.0,-0.134075302102,-0.857124194336,10.3429511719,1.0,0.0,0.0,0.0,1.0,0.0,0.0,0.0,1.0
1464167062731539508,301,1464167062726045096,,4.90264749527,-4.54095983505,-178.132385254,0.00164000003133,1.0,0.0,0.0,0.0,1.0,0.0,0.0,0.0,1.0,1.2195122242,4.20731735229,1.34146344662,1.0,0.0,0.0,0.0,1.0,0.0,0.0,0.0,1.0,-0.502782348633,-0.627280834961,9.97424411621,1.0,0.0,0.0,0.0,1.0,0.0,0.0,0.0,1.0
1464167062750264091,302,1464167062746581393,,4.94629430771,-4.52718544006,-178.089675903,0.00105700001586,1.0,0.0,0.0,0.0,1.0,0.0,0.0,0.0,1.0,-0.914634168148,3.17073178291,0.0,1.0,0.0,0.0,0.0,1.0,0.0,0.0,0.0,1.0,-0.129286889648,-0.397437475586,9.8305920166,1.0,0.0,0.0,0.0,1.0,0.0,0.0,0.0,1.0
1464167062769869869,303,1464167062768171437,,4.91990327835,-4.54637956619,-178.097640991,0.00130799994804,1.0,0.0,0.0,0.0,1.0,0.0,0.0,0.0,1.0,-1.70731711388,1.70731711388,-2.31707310677,1.0,0.0,0.0,0.0,1.0,0.0,0.0,0.0,1.0,-0.067037651051,-0.727837304687,10.5344873047,1.0,0.0,0.0,0.0,1.0,0.0,0.0,0.0,1.0
1464167062791179393,304,1464167062789587054,,4.87897014618,-4.56799840927,-178.153503418,0.0013190000318,1.0,0.0,0.0,0.0,1.0,0.0,0.0,0.0,1.0,-0.792682945728,2.98780488968,-3.71951246262,1.0,0.0,0.0,0.0,1.0,0.0,0.0,0.0,1.0,0.110133276367,-0.579396801758,10.1945106689,1.0,0.0,0.0,0.0,1.0,0.0,0.0,0.0,1.0
1464167062811709700,305,1464167062809966788,,4.91257381439,-4.61312532425,-178.198623657,0.00123399996664,1.0,0.0,0.0,0.0,1.0,0.0,0.0,0.0,1.0,-2.01219511032,4.45121955872,-2.62195134163,1.0,0.0,0.0,0.0,1.0,0.0,0.0,0.0,1.0,-0.229843359375,-0.77093293457,10.1466266357,1.0,0.0,0.0,0.0,1.0,0.0,0.0,0.0,1.0
1464167062835101406,306,1464167062831012302,,4.93461179733,-4.64728736877,-178.236175537,0.00105700001586,1.0,0.0,0.0,0.0,1.0,0.0,0.0,0.0,1.0,-0.426829278469,4.08536577225,-2.25609779358,1.0,0.0,0.0,0.0,1.0,0.0,0.0,0.0,1.0,-0.253785375977,-0.780509741211,10.060435376,1.0,0.0,0.0,0.0,1.0,0.0,0.0,0.0,1.0
1464167062854531664,307,1464167062852347347,,4.9595079422,-4.65063667297,-178.274215698,0.000977999996394,1.0,0.0,0.0,0.0,1.0,0.0,0.0,0.0,1.0,0.731707334518,3.7804877758,-2.19512200356,1.0,0.0,0.0,0.0,1.0,0.0,0.0,0.0,1.0,-0.162805712891,-0.742202514648,10.2615483154,1.0,0.0,0.0,0.0,1.0,0.0,0.0,0.0,1.0
1464167062875954573,308,1464167062873688537,,4.98461818695,-4.64055871964,-178.302032471,0.00101300003007,1.0,0.0,0.0,0.0,1.0,0.0,0.0,0.0,1.0,0.914634168148,3.10975623131,-1.70731711388,1.0,0.0,0.0,0.0,1.0,0.0,0.0,0.0,1.0,-0.076614453125,-0.756567724609,10.2088758789,1.0,0.0,0.0,0.0,1.0,0.0,0.0,0.0,1.0
1464167062896997482,309,1464167062894105095,,4.9988155365,-4.62347745895,-178.307754517,0.000961999990977,1.0,0.0,0.0,0.0,1.0,0.0,0.0,0.0,1.0,0.792682945728,2.74390244484,-0.426829278469,1.0,0.0,0.0,0.0,1.0,0.0,0.0,0.0,1.0,-0.181959326172,-0.742202514648,10.3046439453,1.0,0.0,0.0,0.0,1.0,0.0,0.0,0.0,1.0
1464167062920208928,310,1464167062914953161,,4.98345375061,-4.60534858704,-178.299972534,0.00110300001688,1.0,0.0,0.0,0.0,1.0,0.0,0.0,0.0,1.0,0.487804889679,0.914634168148,-1.2195122242,1.0,0.0,0.0,0.0,1.0,0.0,0.0,0.0,1.0,-0.181959326172,-0.665588061523,10.299855542,1.0,0.0,0.0,0.0,1.0,0.0,0.0,0.0,1.0
1464167062941349233,311,1464167062939082365,,4.91252040863,-4.60434103012,-178.315078735,0.00104300002567,1.0,0.0,0.0,0.0,1.0,0.0,0.0,0.0,1.0,-0.731707334518,0.670731723309,-1.34146344662,1.0,0.0,0.0,0.0,1.0,0.0,0.0,0.0,1.0,-0.067037651051,-0.636857641602,10.3381627686,1.0,0.0,0.0,0.0,1.0,0.0,0.0,0.0,1.0
1464167062969093999,312,1464167062962571882,,4.9304561615,-4.63812017441,-178.270050049,0.00586500018835,1.0,0.0,0.0,0.0,1.0,0.0,0.0,0.0,1.0,-1.03658533096,2.86585378647,2.62195134163,1.0,0.0,0.0,0.0,1.0,0.0,0.0,0.0,1.0,-0.287304199219,-0.756567724609,10.1945106689,1.0,0.0,0.0,0.0,1.0,0.0,0.0,0.0,1.0
1464167062986491190,313,1464167062982886825,,4.96421289444,-4.64257764816,-178.172637939,0.00134499999695,1.0,0.0,0.0,0.0,1.0,0.0,0.0,0.0,1.0,-1.15853655338,3.04878044128,4.2682929039,1.0,0.0,0.0,0.0,1.0,0.0,0.0,0.0,1.0,-0.220266552734,-0.684741674805,10.0556469727,1.0,0.0,0.0,0.0,1.0,0.0,0.0,0.0,1.0
1464167063007681600,314,1464167063004283588,,4.96671772003,-4.6574549675,-178.064300537,0.00127899996005,1.0,0.0,0.0,0.0,1.0,0.0,0.0,0.0,1.0,-1.95121955872,1.40243899822,4.32926845551,1.0,0.0,0.0,0.0,1.0,0.0,0.0,0.0,1.0,-0.253785375977,-0.584185168546,10.2376062988,1.0,0.0,0.0,0.0,1.0,0.0,0.0,0.0,1.0
1464167063027982116,315,1464167063025647435,,4.95237827301,-4.68931913376,-177.943237305,0.00190399994608,1.0,0.0,0.0,0.0,1.0,0.0,0.0,0.0,1.0,-1.58536589146,0.792682945728,5.0,1.0,0.0,0.0,0.0,1.0,0.0,0.0,0.0,1.0,-0.172382519531,-0.488417138672,10.314220752,1.0,0.0,0.0,0.0,1.0,0.0,0.0,0.0,1.0
1464167063049608670,316,1464167063046909563,,4.95662117004,-4.71377897263,-177.80770874,0.001304000034,1.0,0.0,0.0,0.0,1.0,0.0,0.0,0.0,1.0,-0.914634168148,1.34146344662,5.73170757294,1.0,0.0,0.0,0.0,1.0,0.0,0.0,0.0,1.0,-0.229843359375,-0.76135612793,10.2040874756,1.0,0.0,0.0,0.0,1.0,0.0,0.0,0.0,1.0
1464167063070793298,317,1464167063067622630,,4.92570209503,-4.72090816498,-177.678375244,0.00101899995934,1.0,0.0,0.0,0.0,1.0,0.0,0.0,0.0,1.0,-0.426829278469,-0.365853667259,3.7804877758,1.0,0.0,0.0,0.0,1.0,0.0,0.0,0.0,1.0,0.076614453125,-0.799663354492,10.2471831055,1.0,0.0,0.0,0.0,1.0,0.0,0.0,0.0,1.0
1464167063090931106,318,1464167063088242103,,4.86707639694,-4.71948957443,-177.61265564,0.00101300003007,1.0,0.0,0.0,0.0,1.0,0.0,0.0,0.0,1.0,0.12195122242,0.670731723309,0.853658556938,1.0,0.0,0.0,0.0,1.0,0.0,0.0,0.0,1.0,0.15801730957,-0.612915625,10.2567599121,1.0,0.0,0.0,0.0,1.0,0.0,0.0,0.0,1.0
1464167063112364848,319,1464167063109184441,,4.85630130768,-4.71426296234,-177.58757019,0.00144200003706,1.0,0.0,0.0,0.0,1.0,0.0,0.0,0.0,1.0,0.426829278469,4.39024400711,0.12195122242,1.0,0.0,0.0,0.0,1.0,0.0,0.0,0.0,1.0,-0.138863696289,-0.809240161133,10.0939541992,1.0,0.0,0.0,0.0,1.0,0.0,0.0,0.0,1.0
1464167063132294220,320,1464167063129942820,,4.89490747452,-4.70425128937,-177.574691772,0.00101600005291,1.0,0.0,0.0,0.0,1.0,0.0,0.0,0.0,1.0,-0.426829278469,5.0,-0.975609779358,1.0,0.0,0.0,0.0,1.0,0.0,0.0,0.0,1.0,0.0526724365234,-0.699106884766,10.4674496582,1.0,0.0,0.0,0.0,1.0,0.0,0.0,0.0,1.0
1464167063153774628,321,1464167063150862084,,4.94839906693,-4.70437145233,-177.584243774,0.00102500000503,1.0,0.0,0.0,0.0,1.0,0.0,0.0,0.0,1.0,-0.304878056049,4.87804889679,-1.64634156227,1.0,0.0,0.0,0.0,1.0,0.0,0.0,0.0,1.0,-0.076614453125,-0.751779321289,10.2376062988,1.0,0.0,0.0,0.0,1.0,0.0,0.0,0.0,1.0
1464167063174589153,322,1464167063171661870,,4.99727106094,-4.71150970459,-177.605239868,0.0010229999898,1.0,0.0,0.0,0.0,1.0,0.0,0.0,0.0,1.0,-0.304878056049,4.32926845551,-1.95121955872,1.0,0.0,0.0,0.0,1.0,0.0,0.0,0.0,1.0,-0.172382519531,-0.780509741211,10.1370498291,1.0,0.0,0.0,0.0,1.0,0.0,0.0,0.0,1.0
1464167063195934406,323,1464167063193025925,,5.05731201172,-4.71874046326,-177.61340332,0.00100499996915,1.0,0.0,0.0,0.0,1.0,0.0,0.0,0.0,1.0,-0.609756112099,4.51219558716,-0.0609756112099,1.0,0.0,0.0,0.0,1.0,0.0,0.0,0.0,1.0,-0.569819995117,-0.866701000977,9.96945571289,1.0,0.0,0.0,0.0,1.0,0.0,0.0,0.0,1.0
1464167063216851014,324,1464167063213919096,,5.09519720078,-4.7164182663,-177.578598022,0.00102199998219,1.0,0.0,0.0,0.0,1.0,0.0,0.0,0.0,1.0,0.487804889679,3.23170733452,1.76829278469,1.0,0.0,0.0,0.0,1.0,0.0,0.0,0.0,1.0,-0.31124621582,-0.670376464844,10.1083194092,1.0,0.0,0.0,0.0,1.0,0.0,0.0,0.0,1.0
1464167063238397933,325,1464167063235393098,,5.08392190933,-4.69552755356,-177.533706665,0.00146699999459,1.0,0.0,0.0,0.0,1.0,0.0,0.0,0.0,1.0,0.548780500889,1.34146344662,0.548780500889,1.0,0.0,0.0,0.0,1.0,0.0,0.0,0.0,1.0,0.119710083008,-0.651222851562,10.0891657959,1.0,0.0,0.0,0.0,1.0,0.0,0.0,0.0,1.0
1464167063260804746,326,1464167063256197727,,5.04604959488,-4.67699241638,-177.50680542,0.00103599997237,1.0,0.0,0.0,0.0,1.0,0.0,0.0,0.0,1.0,0.243902444839,0.792682945728,0.12195122242,1.0,0.0,0.0,0.0,1.0,0.0,0.0,0.0,1.0,0.00478840332031,-0.60812722168,10.314220752,1.0,0.0,0.0,0.0,1.0,0.0,0.0,0.0,1.0
1464167063282666976,327,1464167063276852669,,5.01784229279,-4.66734075546,-177.487380981,0.000990999978967,1.0,0.0,0.0,0.0,1.0,0.0,0.0,0.0,1.0,0.0,-0.304878056049,-0.365853667259,1.0,0.0,0.0,0.0,1.0,0.0,0.0,0.0,1.0,0.248996972656,-0.560243188477,10.285490332,1.0,0.0,0.0,0.0,1.0,0.0,0.0,0.0,1.0
1464167063310854814,328,1464167063302646347,,4.96436262131,-4.65784788132,-177.490310669,0.00104400003329,1.0,0.0,0.0,0.0,1.0,0.0,0.0,0.0,1.0,-0.12195122242,3.10975623131,0.0,1.0,0.0,0.0,0.0,1.0,0.0,0.0,0.0,1.0,-0.0909796630859,-0.861912597656,10.5296989014,1.0,0.0,0.0,0.0,1.0,0.0,0.0,0.0,1.0
1464167063322789364,329,1464167063319353384,,5.06163644791,-4.66677427292,-177.423233032,0.00127699994482,1.0,0.0,0.0,0.0,1.0,0.0,0.0,0.0,1.0,0.0,5.36585378647,5.67073154449,1.0,0.0,0.0,0.0,1.0,0.0,0.0,0.0,1.0,-0.565031591797,-0.560243188477,10.4770264648,1.0,0.0,0.0,0.0,1.0,0.0,0.0,0.0,1.0
1464167063347292837,330,1464167063343014828,,5.14890384674,-4.64114379883,-177.262451172,0.00490200007334,1.0,0.0,0.0,0.0,1.0,0.0,0.0,0.0,1.0,0.18292683363,2.01219511032,4.81707286835,1.0,0.0,0.0,0.0,1.0,0.0,0.0,0.0,1.0,-0.15801730957,-0.478840332031,9.73961235352,1.0,0.0,0.0,0.0,1.0,0.0,0.0,0.0,1.0
1464167063369639649,331,1464167063364365341,,5.0587310791,-4.63612365723,-177.188720703,0.00115400005598,1.0,0.0,0.0,0.0,1.0,0.0,0.0,0.0,1.0,-2.31707310677,-1.15853655338,-0.487804889679,1.0,0.0,0.0,0.0,1.0,0.0,0.0,0.0,1.0,0.402225878906,-0.679953271484,10.3477395752,1.0,0.0,0.0,0.0,1.0,0.0,0.0,0.0,1.0
1464167063390595268,332,1464167063385160491,,4.98099279404,-4.66867589951,-177.188018799,0.00158100004774,1.0,0.0,0.0,0.0,1.0,0.0,0.0,0.0,1.0,-1.15853655338,2.43902444839,0.548780500889,1.0,0.0,0.0,0.0,1.0,0.0,0.0,0.0,1.0,0.0574608398438,-0.828393774414,10.3716815918,1.0,0.0,0.0,0.0,1.0,0.0,0.0,0.0,1.0
1464167063411208596,333,1464167063405636528,,5.04851865768,-4.67367458344,-177.1300354,0.00107100000605,1.0,0.0,0.0,0.0,1.0,0.0,0.0,0.0,1.0,1.46341466904,5.36585378647,3.90243911743,1.0,0.0,0.0,0.0,1.0,0.0,0.0,0.0,1.0,-0.220266552734,-0.588973571866,10.0364933594,1.0,0.0,0.0,0.0,1.0,0.0,0.0,0.0,1.0
1464167063431770465,334,1464167063426545948,,5.1048951149,-4.63025856018,-177.051651001,0.0010379999876,1.0,0.0,0.0,0.0,1.0,0.0,0.0,0.0,1.0,0.975609779358,3.10975623131,0.365853667259,1.0,0.0,0.0,0.0,1.0,0.0,0.0,0.0,1.0,-0.210689746094,-0.517147558594,10.2615483154,1.0,0.0,0.0,0.0,1.0,0.0,0.0,0.0,1.0
1464167063451091244,335,1464167063447940264,,5.00309038162,-4.56673336029,-177.096008301,0.00104600004852,1.0,0.0,0.0,0.0,1.0,0.0,0.0,0.0,1.0,1.95121955872,0.365853667259,-5.91463422775,1.0,0.0,0.0,0.0,1.0,0.0,0.0,0.0,1.0,0.201112939453,-1.06781401349,10.5871597412,1.0,0.0,0.0,0.0,1.0,0.0,0.0,0.0,1.0
1464167063471139261,336,1464167063468973903,,4.97322893143,-4.51696968079,-177.200378418,0.00100399996154,1.0,0.0,0.0,0.0,1.0,0.0,0.0,0.0,1.0,3.65853667259,4.51219558716,-4.45121955872,1.0,0.0,0.0,0.0,1.0,0.0,0.0,0.0,1.0,-0.373495458984,-0.900219824219,10.1562034424,1.0,0.0,0.0,0.0,1.0,0.0,0.0,0.0,1.0
1464167063494692216,337,1464167063490309051,,5.07028055191,-4.46551275253,-177.231567383,0.00102099997457,1.0,0.0,0.0,0.0,1.0,0.0,0.0,0.0,1.0,1.64634156227,5.42682933807,-1.03658533096,1.0,0.0,0.0,0.0,1.0,0.0,0.0,0.0,1.0,-0.699106884766,-0.521935925381,9.8545340332,1.0,0.0,0.0,0.0,1.0,0.0,0.0,0.0,1.0
1464167063514102526,338,1464167063510739359,,5.08660984039,-4.40810060501,-177.252670288,0.00131500000134,1.0,0.0,0.0,0.0,1.0,0.0,0.0,0.0,1.0,1.46341466904,0.548780500889,-3.29268312454,1.0,0.0,0.0,0.0,1.0,0.0,0.0,0.0,1.0,-0.143652099609,-0.646434448242,10.3573163818,1.0,0.0,0.0,0.0,1.0,0.0,0.0,0.0,1.0
1464167063533589034,339,1464167063531380186,,5.00090408325,-4.36376905441,-177.321090698,0.0010379999876,1.0,0.0,0.0,0.0,1.0,0.0,0.0,0.0,1.0,3.17073178291,-1.40243899822,-4.69512224197,1.0,0.0,0.0,0.0,1.0,0.0,0.0,0.0,1.0,-0.0622492431641,-0.679953271484,10.1514150391,1.0,0.0,0.0,0.0,1.0,0.0,0.0,0.0,1.0
1464167063555229286,340,1464167063552397680,,4.90690088272,-4.31512641907,-177.402679443,0.00104999996256,1.0,0.0,0.0,0.0,1.0,0.0,0.0,0.0,1.0,2.31707310677,-0.426829278469,-4.51219558716,1.0,0.0,0.0,0.0,1.0,0.0,0.0,0.0,1.0,-0.0191536132812,-0.545877978516,10.2040874756,1.0,0.0,0.0,0.0,1.0,0.0,0.0,0.0,1.0
1464167063581366401,341,1464167063573206319,,4.87147331238,-4.27303361893,-177.447158813,0.0010150000453,1.0,0.0,0.0,0.0,1.0,0.0,0.0,0.0,1.0,1.46341466904,0.975609779358,-2.56097555161,1.0,0.0,0.0,0.0,1.0,0.0,0.0,0.0,1.0,-0.234631762695,-0.579396801758,10.2519715088,1.0,0.0,0.0,0.0,1.0,0.0,0.0,0.0,1.0
1464167063598063750,342,1464167063594652145,,4.82704019547,-4.22926807404,-177.471725464,0.00101100001484,1.0,0.0,0.0,0.0,1.0,0.0,0.0,0.0,1.0,1.15853655338,0.548780500889,-2.31707310677,1.0,0.0,0.0,0.0,1.0,0.0,0.0,0.0,1.0,0.15322890625,-0.521935925381,10.1322614258,1.0,0.0,0.0,0.0,1.0,0.0,0.0,0.0,1.0
1464167063619478013,343,1464167063614809797,,4.76328849792,-4.20888090134,-177.504180908,0.00112100003753,1.0,0.0,0.0,0.0,1.0,0.0,0.0,0.0,1.0,0.426829278469,0.18292683363,-2.68292689323,1.0,0.0,0.0,0.0,1.0,0.0,0.0,0.0,1.0,-0.15322890625,-0.60812722168,10.3812583984,1.0,0.0,0.0,0.0,1.0,0.0,0.0,0.0,1.0
1464167063638323741,344,1464167063635340468,,4.76251840591,-4.20910978317,-177.49432373,0.00126699998509,1.0,0.0,0.0,0.0,1.0,0.0,0.0,0.0,1.0,-0.18292683363,2.37804889679,1.95121955872,1.0,0.0,0.0,0.0,1.0,0.0,0.0,0.0,1.0,-0.483628735352,-0.732625708008,10.1897222656,1.0,0.0,0.0,0.0,1.0,0.0,0.0,0.0,1.0
1464167063661520864,345,1464167063658664466,,4.79051828384,-4.201359272,-177.403457642,0.00124699994922,1.0,0.0,0.0,0.0,1.0,0.0,0.0,0.0,1.0,-0.243902444839,1.70731711388,4.2682929039,1.0,0.0,0.0,0.0,1.0,0.0,0.0,0.0,1.0,-0.076614453125,-0.517147558594,10.046070166,1.0,0.0,0.0,0.0,1.0,0.0,0.0,0.0,1.0
1464167063684258248,346,1464167063681067476,,4.78021383286,-4.20031261444,-177.279022217,0.00298199988902,1.0,0.0,0.0,0.0,1.0,0.0,0.0,0.0,1.0,-0.426829278469,0.12195122242,4.63414621353,1.0,0.0,0.0,0.0,1.0,0.0,0.0,0.0,1.0,-0.129286889648,-0.550666381836,10.2423947021,1.0,0.0,0.0,0.0,1.0,0.0,0.0,0.0,1.0
1464167063705833136,347,1464167063700762056,,4.74808120728,-4.19912958145,-177.15335083,0.0024300001096,1.0,0.0,0.0,0.0,1.0,0.0,0.0,0.0,1.0,0.304878056049,-0.609756112099,5.36585378647,1.0,0.0,0.0,0.0,1.0,0.0,0.0,0.0,1.0,-0.172382519531,-0.684741674805,10.3094323486,1.0,0.0,0.0,0.0,1.0,0.0,0.0,0.0,1.0
1464167063728650676,348,1464167063724791051,,4.69882154465,-4.18576574326,-177.011474609,0.00141000002623,1.0,0.0,0.0,0.0,1.0,0.0,0.0,0.0,1.0,0.304878056049,-0.792682945728,5.73170757294,1.0,0.0,0.0,0.0,1.0,0.0,0.0,0.0,1.0,0.0430956298828,-0.541089611728,10.0795889893,1.0,0.0,0.0,0.0,1.0,0.0,0.0,0.0,1.0
1464167063744685735,349,1464167063742537772,,4.6480755806,-4.16871547699,-176.863082886,0.00649200007319,1.0,0.0,0.0,0.0,1.0,0.0,0.0,0.0,1.0,0.609756112099,0.0609756112099,5.42682933807,1.0,0.0,0.0,0.0,1.0,0.0,0.0,0.0,1.0,-0.0622492431641,-0.723048901367,10.1466266357,1.0,0.0,0.0,0.0,1.0,0.0,0.0,0.0,1.0
1464167063768012076,350,1464167063765453073,,4.61548709869,-4.14210224152,-176.728729248,0.00541000021622,1.0,0.0,0.0,0.0,1.0,0.0,0.0,0.0,1.0,0.548780500889,1.2804877758,4.39024400711,1.0,0.0,0.0,0.0,1.0,0.0,0.0,0.0,1.0,-0.0143652099609,-0.497993945312,10.2711251221,1.0,0.0,0.0,0.0,1.0,0.0,0.0,0.0,1.0
1464167063789123007,351,1464167063786623743,,4.60605096817,-4.12337493896,-176.622772217,0.00159200001508,1.0,0.0,0.0,0.0,1.0,0.0,0.0,0.0,1.0,-0.0609756112099,2.01219511032,3.59756112099,1.0,0.0,0.0,0.0,1.0,0.0,0.0,0.0,1.0,0.15801730957,-0.440533105469,10.2471831055,1.0,0.0,0.0,0.0,1.0,0.0,0.0,0.0,1.0
1464167063810247166,352,1464167063807598892,,4.64995622635,-4.11081981659,-176.524414062,0.00173100002576,1.0,0.0,0.0,0.0,1.0,0.0,0.0,0.0,1.0,0.304878056049,3.84146332741,4.14634132385,1.0,0.0,0.0,0.0,1.0,0.0,0.0,0.0,1.0,-0.407014282227,-0.713472094727,10.046070166,1.0,0.0,0.0,0.0,1.0,0.0,0.0,0.0,1.0
1464167063832418302,353,1464167063829407217,,4.67183208466,-4.09381198883,-176.44291687,0.00272800005041,1.0,0.0,0.0,0.0,1.0,0.0,0.0,0.0,1.0,0.487804889679,1.76829278469,1.03658533096,1.0,0.0,0.0,0.0,1.0,0.0,0.0,0.0,1.0,-0.220266552734,-0.584185168546,10.1705686523,1.0,0.0,0.0,0.0,1.0,0.0,0.0,0.0,1.0
1464167063852298090,354,1464167063850610960,,4.59114456177,-4.07992267609,-176.483840942,0.00103399995714,1.0,0.0,0.0,0.0,1.0,0.0,0.0,0.0,1.0,2.37804889679,0.243902444839,-4.75609779358,1.0,0.0,0.0,0.0,1.0,0.0,0.0,0.0,1.0,0.45968671875,-0.584185168546,10.299855542,1.0,0.0,0.0,0.0,1.0,0.0,0.0,0.0,1.0
1464167063874112092,355,1464167063872136160,,4.60104608536,-4.06337594986,-176.546554565,0.00106200005393,1.0,0.0,0.0,0.0,1.0,0.0,0.0,0.0,1.0,2.68292689323,3.84146332741,-2.37804889679,1.0,0.0,0.0,0.0,1.0,0.0,0.0,0.0,1.0,0.0478840332031,-0.493205541992,10.2711251221,1.0,0.0,0.0,0.0,1.0,0.0,0.0,0.0,1.0
1464167063895958176,356,1464167063893435944,,4.71754455566,-4.00873088837,-176.514785767,0.00103399995714,1.0,0.0,0.0,0.0,1.0,0.0,0.0,0.0,1.0,3.41463422775,4.75609779358,2.19512200356,1.0,0.0,0.0,0.0,1.0,0.0,0.0,0.0,1.0,-0.569819995117,-0.737414111328,9.93593688965,1.0,0.0,0.0,0.0,1.0,0.0,0.0,0.0,1.0
1464167063917840511,357,1464167063914687812,,4.73109340668,-3.92473244667,-176.474975586,0.00114399997983,1.0,0.0,0.0,0.0,1.0,0.0,0.0,0.0,1.0,3.65853667259,2.13414645195,0.243902444839,1.0,0.0,0.0,0.0,1.0,0.0,0.0,0.0,1.0,0.124498486328,-0.512359155273,10.2711251221,1.0,0.0,0.0,0.0,1.0,0.0,0.0,0.0,1.0
1464167063939176545,358,1464167063935363170,,4.70476722717,-3.86902427673,-176.472991943,0.00110300001688,1.0,0.0,0.0,0.0,1.0,0.0,0.0,0.0,1.0,1.8902438879,2.19512200356,-1.40243899822,1.0,0.0,0.0,0.0,1.0,0.0,0.0,0.0,1.0,0.210689746094,-0.397437475586,10.2328178955,1.0,0.0,0.0,0.0,1.0,0.0,0.0,0.0,1.0
1464167063960696225,359,1464167063956777590,,4.68664455414,-3.84270596504,-176.487014771,0.000983000034466,1.0,0.0,0.0,0.0,1.0,0.0,0.0,0.0,1.0,-0.487804889679,1.2804877758,-2.31707310677,1.0,0.0,0.0,0.0,1.0,0.0,0.0,0.0,1.0,0.138863696289,-0.383072265625,10.285490332,1.0,0.0,0.0,0.0,1.0,0.0,0.0,0.0,1.0
1464167063982799965,360,1464167063977788312,,4.64849424362,-3.85614752769,-176.534683228,0.00102900003549,1.0,0.0,0.0,0.0,1.0,0.0,0.0,0.0,1.0,-0.243902444839,2.37804889679,-2.56097555161,1.0,0.0,0.0,0.0,1.0,0.0,0.0,0.0,1.0,-0.320823022461,-0.675164868164,10.0939541992,1.0,0.0,0.0,0.0,1.0,0.0,0.0,0.0,1.0
1464167064008042134,361,1464167063999240179,,4.68647956848,-3.88379096985,-176.531082153,0.00133200001437,1.0,0.0,0.0,0.0,1.0,0.0,0.0,0.0,1.0,0.0609756112099,2.56097555161,0.548780500889,1.0,0.0,0.0,0.0,1.0,0.0,0.0,0.0,1.0,-0.15801730957,-0.794874951172,10.0556469727,1.0,0.0,0.0,0.0,1.0,0.0,0.0,0.0,1.0
1464167064026039167,362,1464167064019824497,,4.71727895737,-3.87586283684,-176.47253418,0.00117699999828,1.0,0.0,0.0,0.0,1.0,0.0,0.0,0.0,1.0,0.670731723309,2.5,2.56097555161,1.0,0.0,0.0,0.0,1.0,0.0,0.0,0.0,1.0,-0.15322890625,-0.679953271484,10.0364933594,1.0,0.0,0.0,0.0,1.0,0.0,0.0,0.0,1.0
1464167064044839479,363,1464167064041004489,,4.70985841751,-3.85358285904,-176.398635864,0.00119400001131,1.0,0.0,0.0,0.0,1.0,0.0,0.0,0.0,1.0,0.975609779358,2.31707310677,2.62195134163,1.0,0.0,0.0,0.0,1.0,0.0,0.0,0.0,1.0,0.0143652099609,-0.488417138672,10.1945106689,1.0,0.0,0.0,0.0,1.0,0.0,0.0,0.0,1.0
1464167064065223119,364,1464167064061583234,,4.71805381775,-3.84001064301,-176.317565918,0.00115000002552,1.0,0.0,0.0,0.0,1.0,0.0,0.0,0.0,1.0,-0.365853667259,2.01219511032,2.98780488968,1.0,0.0,0.0,0.0,1.0,0.0,0.0,0.0,1.0,-0.00478840332031,-0.469263525391,10.046070166,1.0,0.0,0.0,0.0,1.0,0.0,0.0,0.0,1.0
1464167064090274560,365,1464167064081991354,,4.7275147438,-3.83999967575,-176.225692749,0.00191300001461,1.0,0.0,0.0,0.0,1.0,0.0,0.0,0.0,1.0,-0.243902444839,1.76829278469,3.96341490746,1.0,0.0,0.0,0.0,1.0,0.0,0.0,0.0,1.0,-0.00478840332031,-0.627280834961,9.79228479004,1.0,0.0,0.0,0.0,1.0,0.0,0.0,0.0,1.0
1464167064106955815,366,1464167064104475562,,4.73592662811,-3.84170508385,-176.115142822,0.00137299997732,1.0,0.0,0.0,0.0,1.0,0.0,0.0,0.0,1.0,-0.731707334518,-0.609756112099,2.80487799644,1.0,0.0,0.0,0.0,1.0,0.0,0.0,0.0,1.0,0.0526724365234,-0.430956298828,9.90720646973,1.0,0.0,0.0,0.0,1.0,0.0,0.0,0.0,1.0
1464167064131849079,367,1464167064125065348,,4.60379314423,-3.84556221962,-176.085342407,0.001215999946,1.0,0.0,0.0,0.0,1.0,0.0,0.0,0.0,1.0,-0.792682945728,-0.792682945728,-2.56097555161,1.0,0.0,0.0,0.0,1.0,0.0,0.0,0.0,1.0,0.272938989258,-0.814028564453,10.3716815918,1.0,0.0,0.0,0.0,1.0,0.0,0.0,0.0,1.0
1464167064148492418,368,1464167064145781540,,4.55424261093,-3.86229658127,-176.113800049,0.00119099998847,1.0,0.0,0.0,0.0,1.0,0.0,0.0,0.0,1.0,0.0609756112099,3.47560977936,-0.792682945728,1.0,0.0,0.0,0.0,1.0,0.0,0.0,0.0,1.0,-0.172382519531,-0.660799658203,10.5919481445,1.0,0.0,0.0,0.0,1.0,0.0,0.0,0.0,1.0
1464167064169397411,369,1464167064166939658,,4.61837768555,-3.85939979553,-176.096191406,0.00118000002112,1.0,0.0,0.0,0.0,1.0,0.0,0.0,0.0,1.0,0.0609756112099,5.48780488968,0.792682945728,1.0,0.0,0.0,0.0,1.0,0.0,0.0,0.0,1.0,-0.239420166016,-0.445321508789,10.046070166,1.0,0.0,0.0,0.0,1.0,0.0,0.0,0.0,1.0
1464167064191016986,370,1464167064188091161,,4.68847990036,-3.85892033577,-176.073257446,0.000953999988269,1.0,0.0,0.0,0.0,1.0,0.0,0.0,0.0,1.0,-1.2804877758,3.71951246262,-0.426829278469,1.0,0.0,0.0,0.0,1.0,0.0,0.0,0.0,1.0,-0.172382519531,-0.45968671875,10.1418382324,1.0,0.0,0.0,0.0,1.0,0.0,0.0,0.0,1.0
1464167064212403541,371,1464167064208777822,,4.74675989151,-3.88754224777,-176.049987793,0.000973000016529,1.0,0.0,0.0,0.0,1.0,0.0,0.0,0.0,1.0,-2.07317066193,4.57317066193,0.853658556938,1.0,0.0,0.0,0.0,1.0,0.0,0.0,0.0,1.0,-0.478840332031,-0.560243188477,10.1992990723,1.0,0.0,0.0,0.0,1.0,0.0,0.0,0.0,1.0
1464167064233012702,372,1464167064229798440,,4.77175521851,-3.9267013073,-176.019729614,0.0009710000013,1.0,0.0,0.0,0.0,1.0,0.0,0.0,0.0,1.0,-2.92682933807,2.07317066193,-0.12195122242,1.0,0.0,0.0,0.0,1.0,0.0,0.0,0.0,1.0,0.00957680664062,-0.421379492187,10.3573163818,1.0,0.0,0.0,0.0,1.0,0.0,0.0,0.0,1.0
1464167064254554256,373,1464167064250760934,,4.7334189415,-3.9735481739,-176.031066895,0.000975999981165,1.0,0.0,0.0,0.0,1.0,0.0,0.0,0.0,1.0,-2.07317066193,0.12195122242,-2.68292689323,1.0,0.0,0.0,0.0,1.0,0.0,0.0,0.0,1.0,-0.00957680664062,-0.646434448242,10.2807019287,1.0,0.0,0.0,0.0,1.0,0.0,0.0,0.0,1.0
1464167064274097535,374,1464167064271478636,,4.67881298065,-4.01680421829,-176.060562134,0.000965000013821,1.0,0.0,0.0,0.0,1.0,0.0,0.0,0.0,1.0,-1.46341466904,1.15853655338,-2.19512200356,1.0,0.0,0.0,0.0,1.0,0.0,0.0,0.0,1.0,-0.0478840332031,-0.560243188477,10.3477395752,1.0,0.0,0.0,0.0,1.0,0.0,0.0,0.0,1.0
1464167064295465913,375,1464167064292846337,,4.66143465042,-4.04018354416,-176.07611084,0.00137499999255,1.0,0.0,0.0,0.0,1.0,0.0,0.0,0.0,1.0,-0.731707334518,1.52439022064,-1.76829278469,1.0,0.0,0.0,0.0,1.0,0.0,0.0,0.0,1.0,0.0814028564453,-0.507570751953,10.1992990723,1.0,0.0,0.0,0.0,1.0,0.0,0.0,0.0,1.0
1464167064315957939,376,1464167064313450133,,4.63920640945,-4.0328783989,-176.104293823,0.000960999983363,1.0,0.0,0.0,0.0,1.0,0.0,0.0,0.0,1.0,0.0,1.70731711388,-3.29268312454,1.0,0.0,0.0,0.0,1.0,0.0,0.0,0.0,1.0,0.416591088867,-0.627280834961,10.1945106689,1.0,0.0,0.0,0.0,1.0,0.0,0.0,0.0,1.0
1464167064339199853,377,1464167064335076687,,4.60455703735,-4.02428722382,-176.169418335,0.00154600001406,1.0,0.0,0.0,0.0,1.0,0.0,0.0,0.0,1.0,0.487804889679,3.53658556938,-4.14634132385,1.0,0.0,0.0,0.0,1.0,0.0,0.0,0.0,1.0,0.0143652099609,-0.488417138672,10.3573163818,1.0,0.0,0.0,0.0,1.0,0.0,0.0,0.0,1.0
1464167064358815579,378,1464167064355629546,,4.682097435,-4.0226316452,-176.203857422,0.000966000021435,1.0,0.0,0.0,0.0,1.0,0.0,0.0,0.0,1.0,0.670731723309,7.31707334518,0.243902444839,1.0,0.0,0.0,0.0,1.0,0.0,0.0,0.0,1.0,-0.526724328702,-0.967257470703,10.1705686523,1.0,0.0,0.0,0.0,1.0,0.0,0.0,0.0,1.0
1464167064387692061,379,1464167064376696571,,4.79991960526,-3.97949361801,-176.151138306,0.000981000019237,1.0,0.0,0.0,0.0,1.0,0.0,0.0,0.0,1.0,0.731707334518,3.47560977936,1.70731711388,1.0,0.0,0.0,0.0,1.0,0.0,0.0,0.0,1.0,-0.435744702148,-0.430956298828,10.1705686523,1.0,0.0,0.0,0.0,1.0,0.0,0.0,0.0,1.0
1464167064402356864,380,1464167064397196201,,4.74754667282,-3.9388859272,-176.138641357,0.0010000000475,1.0,0.0,0.0,0.0,1.0,0.0,0.0,0.0,1.0,1.40243899822,-2.5,-3.41463422775,1.0,0.0,0.0,0.0,1.0,0.0,0.0,0.0,1.0,0.325611425781,-0.248996972656,10.3429511719,1.0,0.0,0.0,0.0,1.0,0.0,0.0,0.0,1.0
1464167064430546472,381,1464167064418124684,,4.60809612274,-3.93064570427,-176.217178345,0.00107100000605,1.0,0.0,0.0,0.0,1.0,0.0,0.0,0.0,1.0,0.0609756112099,-0.487804889679,-5.06097555161,1.0,0.0,0.0,0.0,1.0,0.0,0.0,0.0,1.0,0.143652099609,-0.416591088867,10.2280294922,1.0,0.0,0.0,0.0,1.0,0.0,0.0,0.0,1.0
1464167064449813397,382,1464167064443313728,,4.65629434586,-3.92452836037,-176.215545654,0.00714100012556,1.0,0.0,0.0,0.0,1.0,0.0,0.0,0.0,1.0,1.52439022064,4.32926845551,2.31707310677,1.0,0.0,0.0,0.0,1.0,0.0,0.0,0.0,1.0,-0.794874951172,-0.550666381836,10.3812583984,1.0,0.0,0.0,0.0,1.0,0.0,0.0,0.0,1.0
1464167064466312414,383,1464167064463782473,,4.70124578476,-3.87653827667,-176.149154663,0.00137600000016,1.0,0.0,0.0,0.0,1.0,0.0,0.0,0.0,1.0,1.52439022064,1.58536589146,1.2804877758,1.0,0.0,0.0,0.0,1.0,0.0,0.0,0.0,1.0,0.138863696289,-0.316034619141,9.84016882324,1.0,0.0,0.0,0.0,1.0,0.0,0.0,0.0,1.0
1464167064490454169,384,1464167064488239904,,4.67600011826,-3.86754870415,-176.119644165,0.0043640001677,1.0,0.0,0.0,0.0,1.0,0.0,0.0,0.0,1.0,0.365853667259,1.52439022064,-0.487804889679,1.0,0.0,0.0,0.0,1.0,0.0,0.0,0.0,1.0,-0.0526724365234,-0.665588061523,10.4866032715,1.0,0.0,0.0,0.0,1.0,0.0,0.0,0.0,1.0
1464167064513577125,385,1464167064508514014,,4.64131307602,-3.85044956207,-176.128036499,0.0010450000409,1.0,0.0,0.0,0.0,1.0,0.0,0.0,0.0,1.0,0.792682945728,1.76829278469,-1.58536589146,1.0,0.0,0.0,0.0,1.0,0.0,0.0,0.0,1.0,0.0430956298828,-0.3064578125,10.2615483154,1.0,0.0,0.0,0.0,1.0,0.0,0.0,0.0,1.0
1464167064532358010,386,1464167064529486352,,4.6591591835,-3.85628652573,-176.130722046,0.00102900003549,1.0,0.0,0.0,0.0,1.0,0.0,0.0,0.0,1.0,-1.52439022064,2.5,-0.853658556938,1.0,0.0,0.0,0.0,1.0,0.0,0.0,0.0,1.0,-0.268150604204,-0.488417138672,10.2376062988,1.0,0.0,0.0,0.0,1.0,0.0,0.0,0.0,1.0
1464167064555606435,387,1464167064550609209,,4.64007234573,-3.87577915192,-176.140258789,0.000961999990977,1.0,0.0,0.0,0.0,1.0,0.0,0.0,0.0,1.0,-1.46341466904,1.34146344662,-2.13414645195,1.0,0.0,0.0,0.0,1.0,0.0,0.0,0.0,1.0,-0.0335188255255,-0.555454785156,10.0843773926,1.0,0.0,0.0,0.0,1.0,0.0,0.0,0.0,1.0
1464167064575377161,388,1464167064571704306,,4.57677936554,-3.90814137459,-176.196838379,0.000959000026342,1.0,0.0,0.0,0.0,1.0,0.0,0.0,0.0,1.0,-1.15853655338,0.914634168148,-4.57317066193,1.0,0.0,0.0,0.0,1.0,0.0,0.0,0.0,1.0,0.248996972656,-0.641646044922,10.2902787354,1.0,0.0,0.0,0.0,1.0,0.0,0.0,0.0,1.0
1464167064597069756,389,1464167064592809664,,4.58599758148,-3.94738268852,-176.25642395,0.000968999986071,1.0,0.0,0.0,0.0,1.0,0.0,0.0,0.0,1.0,-0.670731723309,5.36585378647,-1.64634156227,1.0,0.0,0.0,0.0,1.0,0.0,0.0,0.0,1.0,-0.239420166016,-0.574608398438,10.3956236084,1.0,0.0,0.0,0.0,1.0,0.0,0.0,0.0,1.0
1464167064618154906,390,1464167064614217781,,4.72086334229,-3.95623087883,-176.226989746,0.000996000017039,1.0,0.0,0.0,0.0,1.0,0.0,0.0,0.0,1.0,-0.243902444839,4.81707286835,1.2804877758,1.0,0.0,0.0,0.0,1.0,0.0,0.0,0.0,1.0,-0.210689746094,-0.440533105469,10.0556469727,1.0,0.0,0.0,0.0,1.0,0.0,0.0,0.0,1.0
1464167064638417193,391,1464167064635083452,,4.71389341354,-3.94987988472,-176.22265625,0.00110999995377,1.0,0.0,0.0,0.0,1.0,0.0,0.0,0.0,1.0,0.365853667259,-0.792682945728,-3.04878044128,1.0,0.0,0.0,0.0,1.0,0.0,0.0,0.0,1.0,0.584185168546,-0.296881024126,10.2184526855,1.0,0.0,0.0,0.0,1.0,0.0,0.0,0.0,1.0
1464167064659773435,392,1464167064656111101,,4.61103868484,-3.9463956356,-176.31640625,0.00106100004632,1.0,0.0,0.0,0.0,1.0,0.0,0.0,0.0,1.0,0.548780500889,0.731707334518,-6.28048801422,1.0,0.0,0.0,0.0,1.0,0.0,0.0,0.0,1.0,-0.0430956298828,-0.588973571866,10.1753570557,1.0,0.0,0.0,0.0,1.0,0.0,0.0,0.0,1.0
1464167064680519627,393,1464167064676894012,,4.61885309219,-3.95791697502,-176.384674072,0.00106799998321,1.0,0.0,0.0,0.0,1.0,0.0,0.0,0.0,1.0,0.18292683363,3.23170733452,-2.68292689323,1.0,0.0,0.0,0.0,1.0,0.0,0.0,0.0,1.0,-0.359130249023,-0.46447512207,10.0508585693,1.0,0.0,0.0,0.0,1.0,0.0,0.0,0.0,1.0
1464167064712009278,394,1464167064702816648,,4.66629362106,-3.93057727814,-176.401046753,0.00561799993739,1.0,0.0,0.0,0.0,1.0,0.0,0.0,0.0,1.0,1.09756100178,2.43902444839,-1.52439022064,1.0,0.0,0.0,0.0,1.0,0.0,0.0,0.0,1.0,-0.100556469727,-0.421379492187,9.96466730957,1.0,0.0,0.0,0.0,1.0,0.0,0.0,0.0,1.0
1464167064728192254,395,1464167064724059505,,4.66207695007,-3.91042041779,-176.429458618,0.00760600017384,1.0,0.0,0.0,0.0,1.0,0.0,0.0,0.0,1.0,0.0,2.25609779358,-2.68292689323,1.0,0.0,0.0,0.0,1.0,0.0,0.0,0.0,1.0,0.0335188255255,-0.397437475586,10.3381627686,1.0,0.0,0.0,0.0,1.0,0.0,0.0,0.0,1.0
1464167064748286573,396,1464167064745276894,,4.66184997559,-3.90353798866,-176.457382202,0.0012969999807,1.0,0.0,0.0,0.0,1.0,0.0,0.0,0.0,1.0,-0.18292683363,2.98780488968,-1.76829278469,1.0,0.0,0.0,0.0,1.0,0.0,0.0,0.0,1.0,-0.15322890625,-0.76614453125,10.2232410889,1.0,0.0,0.0,0.0,1.0,0.0,0.0,0.0,1.0
1464167064769313024,397,1464167064766033033,,4.68757820129,-3.89501214027,-176.457702637,0.00130700005684,1.0,0.0,0.0,0.0,1.0,0.0,0.0,0.0,1.0,-1.46341466904,3.84146332741,0.0,1.0,0.0,0.0,0.0,1.0,0.0,0.0,0.0,1.0,-0.344765039063,-0.320823022461,10.1705686523,1.0,0.0,0.0,0.0,1.0,0.0,0.0,0.0,1.0
1464167064791186088,398,1464167064788066930,,4.70836925507,-3.9219417572,-176.438018799,0.00161999999546,1.0,0.0,0.0,0.0,1.0,0.0,0.0,0.0,1.0,-2.19512200356,0.670731723309,-1.2195122242,1.0,0.0,0.0,0.0,1.0,0.0,0.0,0.0,1.0,-0.339976635742,-0.440533105469,10.4866032715,1.0,0.0,0.0,0.0,1.0,0.0,0.0,0.0,1.0
1464167064812298946,399,1464167064808137186,,4.60690593719,-3.97026729584,-176.506195068,0.00225099991076,1.0,0.0,0.0,0.0,1.0,0.0,0.0,0.0,1.0,-1.46341466904,-1.52439022064,-5.48780488968,1.0,0.0,0.0,0.0,1.0,0.0,0.0,0.0,1.0,0.277727392578,-0.560243188477,10.4818148682,1.0,0.0,0.0,0.0,1.0,0.0,0.0,0.0,1.0
1464167064831539048,400,1464167064828576400,,4.59462165833,-4.02621603012,-176.567733765,0.00124600005802,1.0,0.0,0.0,0.0,1.0,0.0,0.0,0.0,1.0,-1.15853655338,3.35365867615,-2.62195134163,1.0,0.0,0.0,0.0,1.0,0.0,0.0,0.0,1.0,-0.359130249023,-0.885854614258,10.2280294922,1.0,0.0,0.0,0.0,1.0,0.0,0.0,0.0,1.0
1464167064853059613,401,1464167064849276238,,4.69832181931,-4.04872131348,-176.540176392,0.00098600005731,1.0,0.0,0.0,0.0,1.0,0.0,0.0,0.0,1.0,-1.40243899822,4.87804889679,2.07317066193,1.0,0.0,0.0,0.0,1.0,0.0,0.0,0.0,1.0,-0.445321508789,-0.512359155273,10.2136642822,1.0,0.0,0.0,0.0,1.0,0.0,0.0,0.0,1.0
1464167064872428934,402,1464167064869904878,,4.72789382935,-4.05914020538,-176.491744995,0.00101200002246,1.0,0.0,0.0,0.0,1.0,0.0,0.0,0.0,1.0,-0.853658556938,0.548780500889,0.426829278469,1.0,0.0,0.0,0.0,1.0,0.0,0.0,0.0,1.0,-0.110133276367,-1.00077629395,10.1226846191,1.0,0.0,0.0,0.0,1.0,0.0,0.0,0.0,1.0
1464167064893871426,403,1464167064890206540,,4.60700273514,-4.06649065018,-176.531646729,0.0009710000013,1.0,0.0,0.0,0.0,1.0,0.0,0.0,0.0,1.0,1.2195122242,-0.548780500889,-4.02439022064,1.0,0.0,0.0,0.0,1.0,0.0,0.0,0.0,1.0,0.368707055664,-0.555454785156,10.5584293213,1.0,0.0,0.0,0.0,1.0,0.0,0.0,0.0,1.0
1464167064915148710,404,1464167064910946638,,4.60227155685,-4.07606697083,-176.554733276,0.00105600000825,1.0,0.0,0.0,0.0,1.0,0.0,0.0,0.0,1.0,0.609756112099,2.01219511032,-0.609756112099,1.0,0.0,0.0,0.0,1.0,0.0,0.0,0.0,1.0,0.00478840332031,-0.483628735352,10.4866032715,1.0,0.0,0.0,0.0,1.0,0.0,0.0,0.0,1.0
1464167064934649957,405,1464167064931423664,,4.64771032333,-4.06032705307,-176.521102905,0.000972000008915,1.0,0.0,0.0,0.0,1.0,0.0,0.0,0.0,1.0,0.426829278469,2.92682933807,1.40243899822,1.0,0.0,0.0,0.0,1.0,0.0,0.0,0.0,1.0,-0.440533105469,-0.579396801758,9.89762966309,1.0,0.0,0.0,0.0,1.0,0.0,0.0,0.0,1.0
1464167064956065887,406,1464167064952335950,,4.65026760101,-4.02950620651,-176.480209351,0.00114499998745,1.0,0.0,0.0,0.0,1.0,0.0,0.0,0.0,1.0,1.15853655338,1.58536589146,0.731707334518,1.0,0.0,0.0,0.0,1.0,0.0,0.0,0.0,1.0,-0.373495458984,-0.636857641602,10.2232410889,1.0,0.0,0.0,0.0,1.0,0.0,0.0,0.0,1.0
1464167064976190258,407,1464167064973012610,,4.65024375916,-4.00036096573,-176.425521851,0.000977999996394,1.0,0.0,0.0,0.0,1.0,0.0,0.0,0.0,1.0,1.52439022064,1.70731711388,2.19512200356,1.0,0.0,0.0,0.0,1.0,0.0,0.0,0.0,1.0,-0.114921679688,-0.483628735352,10.2232410889,1.0,0.0,0.0,0.0,1.0,0.0,0.0,0.0,1.0
1464167064998616810,408,1464167064993899010,,4.61757278442,-3.95903778076,-176.379058838,0.00109000003431,1.0,0.0,0.0,0.0,1.0,0.0,0.0,0.0,1.0,0.548780500889,0.609756112099,-0.548780500889,1.0,0.0,0.0,0.0,1.0,0.0,0.0,0.0,1.0,0.225054956055,-0.526724328702,9.54807680523,1.0,0.0,0.0,0.0,1.0,0.0,0.0,0.0,1.0
1464167065019485553,409,1464167065014831764,,4.49532699585,-3.92053580284,-176.441436768,0.00115799997002,1.0,0.0,0.0,0.0,1.0,0.0,0.0,0.0,1.0,0.548780500889,1.40243899822,-5.0,1.0,0.0,0.0,0.0,1.0,0.0,0.0,0.0,1.0,0.220266552734,-0.392649072266,10.2280294922,1.0,0.0,0.0,0.0,1.0,0.0,0.0,0.0,1.0
1464167065038152689,410,1464167065036368579,,4.54841089249,-3.94109988213,-176.475234985,0.001511999988,1.0,0.0,0.0,0.0,1.0,0.0,0.0,0.0,1.0,-0.426829278469,4.81707286835,-0.304878056049,1.0,0.0,0.0,0.0,1.0,0.0,0.0,0.0,1.0,-0.507570751953,-0.847547387695,10.1514150391,1.0,0.0,0.0,0.0,1.0,0.0,0.0,0.0,1.0
1464167065065115321,411,1464167065059338202,,4.6510720253,-3.93238592148,-176.43019104,0.00103499996476,1.0,0.0,0.0,0.0,1.0,0.0,0.0,0.0,1.0,1.09756100178,3.35365867615,1.40243899822,1.0,0.0,0.0,0.0,1.0,0.0,0.0,0.0,1.0,0.0239420166016,-0.603338854892,9.85932243652,1.0,0.0,0.0,0.0,1.0,0.0,0.0,0.0,1.0
1464167065087717862,412,1464167065082345846,,4.62360906601,-3.91406679153,-176.424484253,0.00400299998,1.0,0.0,0.0,0.0,1.0,0.0,0.0,0.0,1.0,-0.792682945728,1.2195122242,-2.98780488968,1.0,0.0,0.0,0.0,1.0,0.0,0.0,0.0,1.0,0.435744702148,-0.354341845703,10.4291424316,1.0,0.0,0.0,0.0,1.0,0.0,0.0,0.0,1.0
1464167065107816869,413,1464167065103166882,,4.60643911362,-3.94312572479,-176.478591919,0.00298100011423,1.0,0.0,0.0,0.0,1.0,0.0,0.0,0.0,1.0,-1.09756100178,2.5,-3.35365867615,1.0,0.0,0.0,0.0,1.0,0.0,0.0,0.0,1.0,-0.129286889648,-0.775721337891,10.0891657959,1.0,0.0,0.0,0.0,1.0,0.0,0.0,0.0,1.0
1464167065131403886,414,1464167065125704006,,4.61315107346,-3.95498108864,-176.525421143,0.0029190001078,1.0,0.0,0.0,0.0,1.0,0.0,0.0,0.0,1.0,-0.18292683363,2.01219511032,-3.35365867615,1.0,0.0,0.0,0.0,1.0,0.0,0.0,0.0,1.0,-0.234631762695,-0.545877978516,9.97903251953,1.0,0.0,0.0,0.0,1.0,0.0,0.0,0.0,1.0
1464167065150773050,415,1464167065147916183,,4.61483287811,-3.97180294991,-176.570571899,0.00280799996108,1.0,0.0,0.0,0.0,1.0,0.0,0.0,0.0,1.0,-1.2195122242,2.19512200356,-2.74390244484,1.0,0.0,0.0,0.0,1.0,0.0,0.0,0.0,1.0,-0.15322890625,-0.622492431641,10.4004120117,1.0,0.0,0.0,0.0,1.0,0.0,0.0,0.0,1.0
1464167065171864971,416,1464167065169858518,,4.60817909241,-3.97918963432,-176.60760498,0.00185899995267,1.0,0.0,0.0,0.0,1.0,0.0,0.0,0.0,1.0,-0.365853667259,2.31707310677,-2.37804889679,1.0,0.0,0.0,0.0,1.0,0.0,0.0,0.0,1.0,-0.0526724365234,-0.507570751953,10.1274730225,1.0,0.0,0.0,0.0,1.0,0.0,0.0,0.0,1.0
1464167065207371694,417,1464167065192323403,,4.63298130035,-3.99553108215,-176.627685547,0.00234399992041,1.0,0.0,0.0,0.0,1.0,0.0,0.0,0.0,1.0,-1.03658533096,3.7804877758,-1.2804877758,1.0,0.0,0.0,0.0,1.0,0.0,0.0,0.0,1.0,-0.46447512207,-0.641646044922,9.92636008301,1.0,0.0,0.0,0.0,1.0,0.0,0.0,0.0,1.0
1464167065220766188,418,1464167065212727252,,4.68595314026,-4.00641727448,-176.611709595,0.00109899998643,1.0,0.0,0.0,0.0,1.0,0.0,0.0,0.0,1.0,-0.548780500889,4.02439022064,0.609756112099,1.0,0.0,0.0,0.0,1.0,0.0,0.0,0.0,1.0,-0.205901342773,-0.541089611728,10.0748005859,1.0,0.0,0.0,0.0,1.0,0.0,0.0,0.0,1.0
1464167065239066293,419,1464167065233705058,,4.69080686569,-4.0050573349,-176.599960327,0.00104799994733,1.0,0.0,0.0,0.0,1.0,0.0,0.0,0.0,1.0,-0.18292683363,1.8902438879,-1.2195122242,1.0,0.0,0.0,0.0,1.0,0.0,0.0,0.0,1.0,0.0191536132812,-0.545877978516,10.2471831055,1.0,0.0,0.0,0.0,1.0,0.0,0.0,0.0,1.0
1464167065259380247,420,1464167065254366354,,4.65341949463,-4.00838899612,-176.627243042,0.00114800001029,1.0,0.0,0.0,0.0,1.0,0.0,0.0,0.0,1.0,-0.304878056049,0.548780500889,-3.04878044128,1.0,0.0,0.0,0.0,1.0,0.0,0.0,0.0,1.0,-0.0143652099609,-0.469263525391,10.2040874756,1.0,0.0,0.0,0.0,1.0,0.0,0.0,0.0,1.0
1464167065283514658,421,1464167065275568482,,4.60965204239,-4.00576066971,-176.669769287,0.00132100004703,1.0,0.0,0.0,0.0,1.0,0.0,0.0,0.0,1.0,-0.487804889679,0.365853667259,-3.35365867615,1.0,0.0,0.0,0.0,1.0,0.0,0.0,0.0,1.0,-0.00478840332031,-0.665588061523,9.80665,1.0,0.0,0.0,0.0,1.0,0.0,0.0,0.0,1.0
1464167065305343660,422,1464167065296148789,,4.53600883484,-3.99965190887,-176.739974976,0.00138799997512,1.0,0.0,0.0,0.0,1.0,0.0,0.0,0.0,1.0,-0.548780500889,1.8292683363,-4.51219558716,1.0,0.0,0.0,0.0,1.0,0.0,0.0,0.0,1.0,-0.258573779297,-0.45489831543,10.1178962158,1.0,0.0,0.0,0.0,1.0,0.0,0.0,0.0,1.0
1464167065326170580,423,1464167065317320918,,4.57962369919,-4.01087093353,-176.779586792,0.00127999996766,1.0,0.0,0.0,0.0,1.0,0.0,0.0,0.0,1.0,0.18292683363,4.63414621353,-1.52439022064,1.0,0.0,0.0,0.0,1.0,0.0,0.0,0.0,1.0,-0.373495458984,-0.502782348633,10.2328178955,1.0,0.0,0.0,0.0,1.0,0.0,0.0,0.0,1.0
1464167065347014480,424,1464167065338865024,,4.64456939697,-3.99601316452,-176.777099609,0.001200000057,1.0,0.0,0.0,0.0,1.0,0.0,0.0,0.0,1.0,0.487804889679,4.87804889679,-0.304878056049,1.0,0.0,0.0,0.0,1.0,0.0,0.0,0.0,1.0,-0.272938989258,-0.593762048251,10.2328178955,1.0,0.0,0.0,0.0,1.0,0.0,0.0,0.0,1.0
1464167065367338799,425,1464167065363445737,,4.68173980713,-3.97409105301,-176.773086548,0.00161999999546,1.0,0.0,0.0,0.0,1.0,0.0,0.0,0.0,1.0,0.365853667259,2.37804889679,-0.853658556938,1.0,0.0,0.0,0.0,1.0,0.0,0.0,0.0,1.0,-0.100556469727,-0.316034619141,10.314220752,1.0,0.0,0.0,0.0,1.0,0.0,0.0,0.0,1.0
1464167065385833330,426,1464167065381698967,,4.68477630615,-3.96429777145,-176.769241333,0.00280899996869,1.0,0.0,0.0,0.0,1.0,0.0,0.0,0.0,1.0,-0.426829278469,1.64634156227,-0.670731723309,1.0,0.0,0.0,0.0,1.0,0.0,0.0,0.0,1.0,-0.316034619141,-0.387860668945,10.2184526855,1.0,0.0,0.0,0.0,1.0,0.0,0.0,0.0,1.0
1464167065410067898,427,1464167065402500159,,4.68572950363,-3.96108007431,-176.742004395,0.00210799998604,1.0,0.0,0.0,0.0,1.0,0.0,0.0,0.0,1.0,-0.670731723309,0.914634168148,0.914634168148,1.0,0.0,0.0,0.0,1.0,0.0,0.0,0.0,1.0,-0.330399829102,-0.268150604204,10.5727945312,1.0,0.0,0.0,0.0,1.0,0.0,0.0,0.0,1.0
1464167065426473164,428,1464167065423961296,,4.68451929092,-3.96563649178,-176.685592651,0.0012009999482,1.0,0.0,0.0,0.0,1.0,0.0,0.0,0.0,1.0,-1.52439022064,0.0,0.914634168148,1.0,0.0,0.0,0.0,1.0,0.0,0.0,0.0,1.0,-0.0478840332031,-0.407014282227,10.0029745361,1.0,0.0,0.0,0.0,1.0,0.0,0.0,0.0,1.0
1464167065447324929,429,1464167065444741967,,4.57267189026,-3.98071932793,-176.682937622,0.0012450000504,1.0,0.0,0.0,0.0,1.0,0.0,0.0,0.0,1.0,-2.13414645195,-0.548780500889,-3.84146332741,1.0,0.0,0.0,0.0,1.0,0.0,0.0,0.0,1.0,0.31124621582,-0.732625708008,10.3860468018,1.0,0.0,0.0,0.0,1.0,0.0,0.0,0.0,1.0
1464167065469409971,430,1464167065466086856,,4.53477668762,-4.0159330368,-176.727035522,0.00117900001351,1.0,0.0,0.0,0.0,1.0,0.0,0.0,0.0,1.0,-0.365853667259,4.08536577225,-1.09756100178,1.0,0.0,0.0,0.0,1.0,0.0,0.0,0.0,1.0,-0.196324536133,-0.555454785156,10.3716815918,1.0,0.0,0.0,0.0,1.0,0.0,0.0,0.0,1.0
1464167065489043979,431,1464167065486862162,,4.64106369019,-4.02397632599,-176.689727783,0.0010529999854,1.0,0.0,0.0,0.0,1.0,0.0,0.0,0.0,1.0,0.548780500889,7.01219511032,2.56097555161,1.0,0.0,0.0,0.0,1.0,0.0,0.0,0.0,1.0,-0.363918652344,-0.497993945312,10.0939541992,1.0,0.0,0.0,0.0,1.0,0.0,0.0,0.0,1.0
1464167065510821157,432,1464167065508183821,,4.74200725555,-3.98300385475,-176.613677979,0.000979000004008,1.0,0.0,0.0,0.0,1.0,0.0,0.0,0.0,1.0,0.975609779358,3.71951246262,1.52439022064,1.0,0.0,0.0,0.0,1.0,0.0,0.0,0.0,1.0,-0.162805712891,-0.330399829102,10.2471831055,1.0,0.0,0.0,0.0,1.0,0.0,0.0,0.0,1.0
1464167065532060942,433,1464167065529406001,,4.73359060287,-3.94048166275,-176.592941284,0.000982000026852,1.0,0.0,0.0,0.0,1.0,0.0,0.0,0.0,1.0,1.64634156227,0.548780500889,-1.46341466904,1.0,0.0,0.0,0.0,1.0,0.0,0.0,0.0,1.0,0.0143652099609,-0.536301208408,10.3716815918,1.0,0.0,0.0,0.0,1.0,0.0,0.0,0.0,1.0
1464167065554424577,434,1464167065551081201,,4.68111562729,-3.90922403336,-176.615692139,0.00121100002434,1.0,0.0,0.0,0.0,1.0,0.0,0.0,0.0,1.0,0.548780500889,0.914634168148,-1.8902438879,1.0,0.0,0.0,0.0,1.0,0.0,0.0,0.0,1.0,-0.138863696289,-0.426167895508,10.2471831055,1.0,0.0,0.0,0.0,1.0,0.0,0.0,0.0,1.0
1464167065574673791,435,1464167065571908591,,4.65811491013,-3.89882564545,-176.629638672,0.00112300005276,1.0,0.0,0.0,0.0,1.0,0.0,0.0,0.0,1.0,0.18292683363,0.731707334518,-2.07317066193,1.0,0.0,0.0,0.0,1.0,0.0,0.0,0.0,1.0,-0.105344873047,-0.531512805087,10.2615483154,1.0,0.0,0.0,0.0,1.0,0.0,0.0,0.0,1.0
1464167065598622526,436,1464167065593123896,,4.6175198555,-3.87055826187,-176.65447998,0.000969999993686,1.0,0.0,0.0,0.0,1.0,0.0,0.0,0.0,1.0,2.01219511032,1.2804877758,-2.43902444839,1.0,0.0,0.0,0.0,1.0,0.0,0.0,0.0,1.0,-0.0287304199219,-0.521935925381,10.3668931885,1.0,0.0,0.0,0.0,1.0,0.0,0.0,0.0,1.0
1464167065617049089,437,1464167065614435920,,4.60220766068,-3.83220100403,-176.678222656,0.00102099997457,1.0,0.0,0.0,0.0,1.0,0.0,0.0,0.0,1.0,1.03658533096,2.56097555161,-1.52439022064,1.0,0.0,0.0,0.0,1.0,0.0,0.0,0.0,1.0,-0.0335188255255,-0.450109912109,10.2328178955,1.0,0.0,0.0,0.0,1.0,0.0,0.0,0.0,1.0
1464167065637060231,438,1464167065634918831,,4.58902597427,-3.78987407684,-176.704940796,0.00107200001366,1.0,0.0,0.0,0.0,1.0,0.0,0.0,0.0,1.0,1.52439022064,1.8292683363,-2.86585378647,1.0,0.0,0.0,0.0,1.0,0.0,0.0,0.0,1.0,0.225054956055,-0.416591088867,10.2759135254,1.0,0.0,0.0,0.0,1.0,0.0,0.0,0.0,1.0
1464167065657988298,439,1464167065655797158,,4.54827976227,-3.75579833984,-176.761627197,0.000992999994196,1.0,0.0,0.0,0.0,1.0,0.0,0.0,0.0,1.0,1.58536589146,1.95121955872,-4.20731735229,1.0,0.0,0.0,0.0,1.0,0.0,0.0,0.0,1.0,0.00957680664062,-0.684741674805,10.0843773926,1.0,0.0,0.0,0.0,1.0,0.0,0.0,0.0,1.0
1464167065679514383,440,1464167065676952255,,4.58645677567,-3.72726774216,-176.774612427,0.00141999998596,1.0,0.0,0.0,0.0,1.0,0.0,0.0,0.0,1.0,1.64634156227,3.96341490746,1.76829278469,1.0,0.0,0.0,0.0,1.0,0.0,0.0,0.0,1.0,-0.91458503418,-0.320823022461,9.79228479004,1.0,0.0,0.0,0.0,1.0,0.0,0.0,0.0,1.0
1464167065701141979,441,1464167065698779486,,4.65110683441,-3.67731261253,-176.684432983,0.00122700002976,1.0,0.0,0.0,0.0,1.0,0.0,0.0,0.0,1.0,1.46341466904,1.76829278469,3.59756112099,1.0,0.0,0.0,0.0,1.0,0.0,0.0,0.0,1.0,-0.225054956055,-0.263362164351,10.0939541992,1.0,0.0,0.0,0.0,1.0,0.0,0.0,0.0,1.0
1464167065727447322,442,1464167065722956970,,4.53785562515,-3.6426422596,-176.63079834,0.00461699999869,1.0,0.0,0.0,0.0,1.0,0.0,0.0,0.0,1.0,-0.426829278469,-3.53658556938,-2.74390244484,1.0,0.0,0.0,0.0,1.0,0.0,0.0,0.0,1.0,0.632069238281,-0.45968671875,10.314220752,1.0,0.0,0.0,0.0,1.0,0.0,0.0,0.0,1.0
1464167065751142777,443,1464167065744389879,,4.43871212006,-3.66198611259,-176.650650024,0.00136500003282,1.0,0.0,0.0,0.0,1.0,0.0,0.0,0.0,1.0,-1.09756100178,-0.304878056049,-0.731707334518,1.0,0.0,0.0,0.0,1.0,0.0,0.0,0.0,1.0,-0.0957680664062,-0.775721337891,10.3381627686,1.0,0.0,0.0,0.0,1.0,0.0,0.0,0.0,1.0
1464167065770013661,444,1464167065766282318,,4.44038963318,-3.65963411331,-176.602828979,0.00187100004405,1.0,0.0,0.0,0.0,1.0,0.0,0.0,0.0,1.0,0.426829278469,2.92682933807,2.31707310677,1.0,0.0,0.0,0.0,1.0,0.0,0.0,0.0,1.0,-0.0909796630859,-0.344765039063,10.165780249,1.0,0.0,0.0,0.0,1.0,0.0,0.0,0.0,1.0
1464167065789987147,445,1464167065787158822,,4.48266458511,-3.65074276924,-176.52973938,0.00129000004381,1.0,0.0,0.0,0.0,1.0,0.0,0.0,0.0,1.0,-0.18292683363,3.7804877758,1.58536589146,1.0,0.0,0.0,0.0,1.0,0.0,0.0,0.0,1.0,0.143652099609,-0.512359155273,10.2902787354,1.0,0.0,0.0,0.0,1.0,0.0,0.0,0.0,1.0
1464167065811211463,446,1464167065808426158,,4.54980421066,-3.64257979393,-176.46395874,0.00160199997481,1.0,0.0,0.0,0.0,1.0,0.0,0.0,0.0,1.0,0.0,5.85365867615,2.62195134163,1.0,0.0,0.0,0.0,1.0,0.0,0.0,0.0,1.0,-0.512359155273,-0.541089611728,10.5153336914,1.0,0.0,0.0,0.0,1.0,0.0,0.0,0.0,1.0
1464167065832698798,447,1464167065829313235,,4.61168909073,-3.62284135818,-176.414901733,0.00106399995275,1.0,0.0,0.0,0.0,1.0,0.0,0.0,0.0,1.0,-0.18292683363,2.31707310677,-0.365853667259,1.0,0.0,0.0,0.0,1.0,0.0,0.0,0.0,1.0,-0.244208569336,-0.31124621582,10.0029745361,1.0,0.0,0.0,0.0,1.0,0.0,0.0,0.0,1.0
1464167065853046814,448,1464167065849703699,,4.53123903275,-3.61992001534,-176.472213745,0.00121999997646,1.0,0.0,0.0,0.0,1.0,0.0,0.0,0.0,1.0,0.487804889679,-0.853658556938,-5.24390268326,1.0,0.0,0.0,0.0,1.0,0.0,0.0,0.0,1.0,0.272938989258,-0.45489831543,10.4818148682,1.0,0.0,0.0,0.0,1.0,0.0,0.0,0.0,1.0
1464167065880442311,449,1464167065871014889,,4.5184135437,-3.63594317436,-176.541366577,0.000973000016529,1.0,0.0,0.0,0.0,1.0,0.0,0.0,0.0,1.0,1.46341466904,1.58536589146,-2.74390244484,1.0,0.0,0.0,0.0,1.0,0.0,0.0,0.0,1.0,-0.0814028564453,-0.574608398438,10.405200415,1.0,0.0,0.0,0.0,1.0,0.0,0.0,0.0,1.0
1464167065905395470,450,1464167065891441603,,4.5512342453,-3.61507678032,-176.540344238,0.00113700004295,1.0,0.0,0.0,0.0,1.0,0.0,0.0,0.0,1.0,0.731707334518,3.59756112099,0.243902444839,1.0,0.0,0.0,0.0,1.0,0.0,0.0,0.0,1.0,-0.316034619141,-0.359130249023,9.94551369629,1.0,0.0,0.0,0.0,1.0,0.0,0.0,0.0,1.0
1464167065923871720,451,1464167065913954300,,4.5845708847,-3.56936979294,-176.503921509,0.00678300019354,1.0,0.0,0.0,0.0,1.0,0.0,0.0,0.0,1.0,0.304878056049,2.5,0.914634168148,1.0,0.0,0.0,0.0,1.0,0.0,0.0,0.0,1.0,-0.0909796630859,-0.0383072265625,10.2567599121,1.0,0.0,0.0,0.0,1.0,0.0,0.0,0.0,1.0
1464167065950874718,452,1464167065934658409,,4.63801574707,-3.55625891685,-176.441665649,0.00105500000063,1.0,0.0,0.0,0.0,1.0,0.0,0.0,0.0,1.0,-0.365853667259,3.59756112099,3.17073178291,1.0,0.0,0.0,0.0,1.0,0.0,0.0,0.0,1.0,-0.45489831543,-0.440533105469,9.95509050293,1.0,0.0,0.0,0.0,1.0,0.0,0.0,0.0,1.0
1464167065957941521,453,1464167065955215174,,4.61443376541,-3.55573797226,-176.370040894,0.00148400000762,1.0,0.0,0.0,0.0,1.0,0.0,0.0,0.0,1.0,-0.243902444839,-1.2804877758,0.548780500889,1.0,0.0,0.0,0.0,1.0,0.0,0.0,0.0,1.0,0.632069238281,-0.248996972656,10.0891657959,1.0,0.0,0.0,0.0,1.0,0.0,0.0,0.0,1.0
1464167065978797035,454,1464167065975898450,,4.53415155411,-3.56730079651,-176.376525879,0.000995000009425,1.0,0.0,0.0,0.0,1.0,0.0,0.0,0.0,1.0,-1.40243899822,2.31707310677,-0.975609779358,1.0,0.0,0.0,0.0,1.0,0.0,0.0,0.0,1.0,-0.229843359375,-0.541089611728,9.96945571289,1.0,0.0,0.0,0.0,1.0,0.0,0.0,0.0,1.0
1464167066007464143,455,1464167065996734121,,4.58197021484,-3.60082054138,-176.330215454,0.00134399998933,1.0,0.0,0.0,0.0,1.0,0.0,0.0,0.0,1.0,-1.8902438879,3.96341490746,2.98780488968,1.0,0.0,0.0,0.0,1.0,0.0,0.0,0.0,1.0,-0.3064578125,-0.407014282227,10.0700121826,1.0,0.0,0.0,0.0,1.0,0.0,0.0,0.0,1.0
1464167066022341914,456,1464167066018105988,,4.65510082245,-3.61590504646,-176.233627319,0.0014230000088,1.0,0.0,0.0,0.0,1.0,0.0,0.0,0.0,1.0,-1.2804877758,3.71951246262,3.53658556938,1.0,0.0,0.0,0.0,1.0,0.0,0.0,0.0,1.0,-0.3064578125,-0.478840332031,10.1418382324,1.0,0.0,0.0,0.0,1.0,0.0,0.0,0.0,1.0
1464167066050183398,457,1464167066039329731,,4.68183231354,-3.62443327904,-176.146438599,0.00126399996225,1.0,0.0,0.0,0.0,1.0,0.0,0.0,0.0,1.0,-1.09756100178,2.25609779358,3.59756112099,1.0,0.0,0.0,0.0,1.0,0.0,0.0,0.0,1.0,-0.201112939453,-0.397437475586,10.7547538574,1.0,0.0,0.0,0.0,1.0,0.0,0.0,0.0,1.0
1464167066063416694,458,1464167066060722379,,4.71276330948,-3.64521193504,-176.033920288,0.00131299998611,1.0,0.0,0.0,0.0,1.0,0.0,0.0,0.0,1.0,-0.975609779358,1.58536589146,4.45121955872,1.0,0.0,0.0,0.0,1.0,0.0,0.0,0.0,1.0,-0.0957680664062,-0.541089611728,10.1897222656,1.0,0.0,0.0,0.0,1.0,0.0,0.0,0.0,1.0
1464167066089963131,459,1464167066081666018,,4.6708278656,-3.6469848156,-175.942947388,0.00111499999184,1.0,0.0,0.0,0.0,1.0,0.0,0.0,0.0,1.0,-0.609756112099,-0.18292683363,2.31707310677,1.0,0.0,0.0,0.0,1.0,0.0,0.0,0.0,1.0,0.0814028564453,-0.402225878906,10.2136642822,1.0,0.0,0.0,0.0,1.0,0.0,0.0,0.0,1.0
1464167066109682659,460,1464167066103502780,,4.59791755676,-3.64143443108,-175.896331787,0.00130200001877,1.0,0.0,0.0,0.0,1.0,0.0,0.0,0.0,1.0,0.609756112099,0.12195122242,0.426829278469,1.0,0.0,0.0,0.0,1.0,0.0,0.0,0.0,1.0,0.138863696289,-0.545877978516,10.4291424316,1.0,0.0,0.0,0.0,1.0,0.0,0.0,0.0,1.0
1464167066134314413,461,1464167066129163750,,4.53098011017,-3.62032747269,-175.90145874,0.0126499999315,1.0,0.0,0.0,0.0,1.0,0.0,0.0,0.0,1.0,0.243902444839,1.03658533096,-2.31707310677,1.0,0.0,0.0,0.0,1.0,0.0,0.0,0.0,1.0,0.215478149414,-0.387860668945,10.4147772217,1.0,0.0,0.0,0.0,1.0,0.0,0.0,0.0,1.0
1464167066160590173,462,1464167066151370667,,4.54338979721,-3.59758925438,-175.905181885,0.00100599997677,1.0,0.0,0.0,0.0,1.0,0.0,0.0,0.0,1.0,0.670731723309,4.51219558716,0.304878056049,1.0,0.0,0.0,0.0,1.0,0.0,0.0,0.0,1.0,0.181959326172,-0.0814028564453,10.4530844482,1.0,0.0,0.0,0.0,1.0,0.0,0.0,0.0,1.0
1464167066173732115,463,1464167066170884050,,4.64828157425,-3.5623319149,-175.824645996,0.000967999978457,1.0,0.0,0.0,0.0,1.0,0.0,0.0,0.0,1.0,0.304878056049,5.42682933807,3.53658556938,1.0,0.0,0.0,0.0,1.0,0.0,0.0,0.0,1.0,-0.46447512207,-0.354341845703,10.0843773926,1.0,0.0,0.0,0.0,1.0,0.0,0.0,0.0,1.0
1464167066197312726,464,1464167066191837481,,4.6801738739,-3.53587079048,-175.760498047,0.000965000013821,1.0,0.0,0.0,0.0,1.0,0.0,0.0,0.0,1.0,-0.365853667259,2.86585378647,1.2195122242,1.0,0.0,0.0,0.0,1.0,0.0,0.0,0.0,1.0,0.00957680664062,-0.397437475586,10.4913916748,1.0,0.0,0.0,0.0,1.0,0.0,0.0,0.0,1.0
1464167066220719952,465,1464167066212958776,,4.65698957443,-3.53274559975,-175.749481201,0.00102399999741,1.0,0.0,0.0,0.0,1.0,0.0,0.0,0.0,1.0,0.0609756112099,1.09756100178,-1.52439022064,1.0,0.0,0.0,0.0,1.0,0.0,0.0,0.0,1.0,0.181959326172,-0.46447512207,10.1897222656,1.0,0.0,0.0,0.0,1.0,0.0,0.0,0.0,1.0
1464167066240703282,466,1464167066234290539,,4.62264490128,-3.56476998329,-175.76763916,0.00115799997002,1.0,0.0,0.0,0.0,1.0,0.0,0.0,0.0,1.0,-1.52439022064,1.34146344662,-2.56097555161,1.0,0.0,0.0,0.0,1.0,0.0,0.0,0.0,1.0,-0.296881024126,-0.320823022461,9.8305920166,1.0,0.0,0.0,0.0,1.0,0.0,0.0,0.0,1.0
1464167066260356300,467,1464167066255376626,,4.54035234451,-3.58309149742,-175.822402954,0.00114099995699,1.0,0.0,0.0,0.0,1.0,0.0,0.0,0.0,1.0,-0.792682945728,0.975609779358,-4.14634132385,1.0,0.0,0.0,0.0,1.0,0.0,0.0,0.0,1.0,-0.00957680664062,-0.526724328702,10.2759135254,1.0,0.0,0.0,0.0,1.0,0.0,0.0,0.0,1.0
1464167066280433535,468,1464167066276511359,,4.57324504852,-3.59055304527,-175.836715698,0.00096700002905,1.0,0.0,0.0,0.0,1.0,0.0,0.0,0.0,1.0,0.609756112099,3.53658556938,0.914634168148,1.0,0.0,0.0,0.0,1.0,0.0,0.0,0.0,1.0,-0.474051928711,-0.622492431641,9.87368764648,1.0,0.0,0.0,0.0,1.0,0.0,0.0,0.0,1.0
1464167066301387539,469,1464167066298146663,,4.65864419937,-3.55106043816,-175.762069702,0.0010450000409,1.0,0.0,0.0,0.0,1.0,0.0,0.0,0.0,1.0,1.40243899822,3.71951246262,3.04878044128,1.0,0.0,0.0,0.0,1.0,0.0,0.0,0.0,1.0,-0.15322890625,-0.301669427446,10.0795889893,1.0,0.0,0.0,0.0,1.0,0.0,0.0,0.0,1.0
1464167066323857841,470,1464167066318933375,,4.65220594406,-3.51331043243,-175.715744019,0.00114299997222,1.0,0.0,0.0,0.0,1.0,0.0,0.0,0.0,1.0,0.853658556938,1.03658533096,0.243902444839,1.0,0.0,0.0,0.0,1.0,0.0,0.0,0.0,1.0,0.0861912597656,-0.220266552734,10.2184526855,1.0,0.0,0.0,0.0,1.0,0.0,0.0,0.0,1.0
1464167066346331476,471,1464167066340044931,,4.60966730118,-3.504601717,-175.70652771,0.00115400005598,1.0,0.0,0.0,0.0,1.0,0.0,0.0,0.0,1.0,-0.304878056049,1.15853655338,-0.975609779358,1.0,0.0,0.0,0.0,1.0,0.0,0.0,0.0,1.0,0.0,-0.517147558594,10.4626612549,1.0,0.0,0.0,0.0,1.0,0.0,0.0,0.0,1.0
1464167066366930637,472,1464167066361612266,,4.59493207932,-3.49318194389,-175.691085815,0.00149099994451,1.0,0.0,0.0,0.0,1.0,0.0,0.0,0.0,1.0,0.548780500889,1.8902438879,0.670731723309,1.0,0.0,0.0,0.0,1.0,0.0,0.0,0.0,1.0,-0.402225878906,-0.60812722168,10.299855542,1.0,0.0,0.0,0.0,1.0,0.0,0.0,0.0,1.0
1464167066386640061,473,1464167066382153303,,4.58173465729,-3.47667336464,-175.646057129,0.00121300003957,1.0,0.0,0.0,0.0,1.0,0.0,0.0,0.0,1.0,0.243902444839,0.426829278469,1.09756100178,1.0,0.0,0.0,0.0,1.0,0.0,0.0,0.0,1.0,-0.076614453125,-0.316034619141,10.1035310059,1.0,0.0,0.0,0.0,1.0,0.0,0.0,0.0,1.0
1464167066406404172,474,1464167066403194181,,4.55409479141,-3.46997332573,-175.598968506,0.00122500001453,1.0,0.0,0.0,0.0,1.0,0.0,0.0,0.0,1.0,-0.792682945728,0.243902444839,0.975609779358,1.0,0.0,0.0,0.0,1.0,0.0,0.0,0.0,1.0,-0.0335188255255,-0.239420166016,10.1322614258,1.0,0.0,0.0,0.0,1.0,0.0,0.0,0.0,1.0
1464167066429285098,475,1464167066425137036,,4.52307510376,-3.48275947571,-175.558761597,0.00168099999428,1.0,0.0,0.0,0.0,1.0,0.0,0.0,0.0,1.0,-1.03658533096,1.40243899822,0.243902444839,1.0,0.0,0.0,0.0,1.0,0.0,0.0,0.0,1.0,0.210689746094,-0.550666381836,10.1370498291,1.0,0.0,0.0,0.0,1.0,0.0,0.0,0.0,1.0
1464167066454103101,476,1464167066445964009,,4.48819065094,-3.49430274963,-175.55065918,0.00101899995934,1.0,0.0,0.0,0.0,1.0,0.0,0.0,0.0,1.0,-0.18292683363,1.76829278469,-1.76829278469,1.0,0.0,0.0,0.0,1.0,0.0,0.0,0.0,1.0,0.387860668945,-0.541089611728,10.2471831055,1.0,0.0,0.0,0.0,1.0,0.0,0.0,0.0,1.0
1464167066469310454,477,1464167066466594941,,4.49382019043,-3.5069437027,-175.564300537,0.00107500003651,1.0,0.0,0.0,0.0,1.0,0.0,0.0,0.0,1.0,0.243902444839,3.84146332741,-0.365853667259,1.0,0.0,0.0,0.0,1.0,0.0,0.0,0.0,1.0,0.0191536132812,-0.440533105469,10.2088758789,1.0,0.0,0.0,0.0,1.0,0.0,0.0,0.0,1.0
1464167066489906491,478,1464167066487579049,,4.62793493271,-3.49755501747,-175.491943359,0.00101999996696,1.0,0.0,0.0,0.0,1.0,0.0,0.0,0.0,1.0,1.52439022064,4.81707286835,4.20731735229,1.0,0.0,0.0,0.0,1.0,0.0,0.0,0.0,1.0,-0.411802685547,-0.517147558594,9.8305920166,1.0,0.0,0.0,0.0,1.0,0.0,0.0,0.0,1.0
1464167066512290074,479,1464167066508839094,,4.6772146225,-3.4560945034,-175.392272949,0.000975999981165,1.0,0.0,0.0,0.0,1.0,0.0,0.0,0.0,1.0,-0.792682945728,1.09756100178,2.5,1.0,0.0,0.0,0.0,1.0,0.0,0.0,0.0,1.0,-0.143652099609,-0.0718260498047,10.1992990723,1.0,0.0,0.0,0.0,1.0,0.0,0.0,0.0,1.0
1464167066531686426,480,1464167066529923514,,4.61818647385,-3.45789957047,-175.350189209,0.00123299995903,1.0,0.0,0.0,0.0,1.0,0.0,0.0,0.0,1.0,-1.52439022064,-0.792682945728,0.0,1.0,0.0,0.0,0.0,1.0,0.0,0.0,0.0,1.0,0.0526724365234,-0.478840332031,10.4818148682,1.0,0.0,0.0,0.0,1.0,0.0,0.0,0.0,1.0
1464167066554232561,481,1464167066550680383,,4.54428815842,-3.47225117683,-175.336273193,0.00113800005056,1.0,0.0,0.0,0.0,1.0,0.0,0.0,0.0,1.0,-0.304878056049,-0.975609779358,-0.731707334518,1.0,0.0,0.0,0.0,1.0,0.0,0.0,0.0,1.0,0.0718260498047,-0.0335188255255,10.1418382324,1.0,0.0,0.0,0.0,1.0,0.0,0.0,0.0,1.0
1464167066575498751,482,1464167066571759386,,4.45775556564,-3.50122141838,-175.359817505,0.000966000021435,1.0,0.0,0.0,0.0,1.0,0.0,0.0,0.0,1.0,-1.8902438879,1.34146344662,-3.29268312454,1.0,0.0,0.0,0.0,1.0,0.0,0.0,0.0,1.0,0.335188232422,-0.450109912109,10.1370498291,1.0,0.0,0.0,0.0,1.0,0.0,0.0,0.0,1.0
1464167066595294529,483,1464167066592692245,,4.48226213455,-3.53642296791,-175.378128052,0.00101200002246,1.0,0.0,0.0,0.0,1.0,0.0,0.0,0.0,1.0,-0.609756112099,4.93902444839,0.12195122242,1.0,0.0,0.0,0.0,1.0,0.0,0.0,0.0,1.0,-0.181959326172,-1.00556469727,10.5296989014,1.0,0.0,0.0,0.0,1.0,0.0,0.0,0.0,1.0
1464167066628404853,484,1464167066613429322,,4.60146713257,-3.52537941933,-175.302261353,0.00100299995393,1.0,0.0,0.0,0.0,1.0,0.0,0.0,0.0,1.0,-0.243902444839,4.81707286835,3.7804877758,1.0,0.0,0.0,0.0,1.0,0.0,0.0,0.0,1.0,-0.383072265625,-0.272938989258,10.1753570557,1.0,0.0,0.0,0.0,1.0,0.0,0.0,0.0,1.0
1464167066639420968,485,1464167066634475461,,4.60592126846,-3.50909924507,-175.242202759,0.0011269999668,1.0,0.0,0.0,0.0,1.0,0.0,0.0,0.0,1.0,-0.12195122242,0.243902444839,-0.365853667259,1.0,0.0,0.0,0.0,1.0,0.0,0.0,0.0,1.0,0.656011254883,0.0861912597656,10.046070166,1.0,0.0,0.0,0.0,1.0,0.0,0.0,0.0,1.0
1464167066666927245,486,1464167066655334986,,4.50370025635,-3.51389551163,-175.288879395,0.00107799994294,1.0,0.0,0.0,0.0,1.0,0.0,0.0,0.0,1.0,-0.426829278469,1.70731711388,-4.20731735229,1.0,0.0,0.0,0.0,1.0,0.0,0.0,0.0,1.0,0.244208569336,-0.349553442383,10.1992990723,1.0,0.0,0.0,0.0,1.0,0.0,0.0,0.0,1.0
1464167066686458284,487,1464167066676319406,,4.54062604904,-3.55107450485,-175.318588257,0.00100699998438,1.0,0.0,0.0,0.0,1.0,0.0,0.0,0.0,1.0,-1.40243899822,3.53658556938,-1.09756100178,1.0,0.0,0.0,0.0,1.0,0.0,0.0,0.0,1.0,-0.445321508789,-0.512359155273,10.0029745361,1.0,0.0,0.0,0.0,1.0,0.0,0.0,0.0,1.0
1464167066710490196,488,1464167066697078827,,4.58396625519,-3.55882382393,-175.306381226,0.00100499996915,1.0,0.0,0.0,0.0,1.0,0.0,0.0,0.0,1.0,0.426829278469,2.31707310677,0.0609756112099,1.0,0.0,0.0,0.0,1.0,0.0,0.0,0.0,1.0,-0.292092584273,-0.588973571866,10.0029745361,1.0,0.0,0.0,0.0,1.0,0.0,0.0,0.0,1.0
1464167066728293792,489,1464167066718073925,,4.57274675369,-3.53570389748,-175.283096313,0.00118100002874,1.0,0.0,0.0,0.0,1.0,0.0,0.0,0.0,1.0,0.548780500889,2.80487799644,0.731707334518,1.0,0.0,0.0,0.0,1.0,0.0,0.0,0.0,1.0,-0.0383072265625,-0.507570751953,9.8545340332,1.0,0.0,0.0,0.0,1.0,0.0,0.0,0.0,1.0
1464167066745689525,490,1464167066739540427,,4.6079158783,-3.51558709145,-175.221862793,0.00113600003533,1.0,0.0,0.0,0.0,1.0,0.0,0.0,0.0,1.0,-0.304878056049,2.01219511032,1.58536589146,1.0,0.0,0.0,0.0,1.0,0.0,0.0,0.0,1.0,0.110133276367,-0.277727392578,10.0556469727,1.0,0.0,0.0,0.0,1.0,0.0,0.0,0.0,1.0
1464167066769865551,491,1464167066760339484,,4.55282211304,-3.50070905685,-175.212081909,0.00104600004852,1.0,0.0,0.0,0.0,1.0,0.0,0.0,0.0,1.0,-0.853658556938,-1.03658533096,-4.08536577225,1.0,0.0,0.0,0.0,1.0,0.0,0.0,0.0,1.0,0.497993945312,0.076614453125,10.3860468018,1.0,0.0,0.0,0.0,1.0,0.0,0.0,0.0,1.0
1464167066787684303,492,1464167066781053645,,4.49828338623,-3.52257657051,-175.29510498,0.00122600002214,1.0,0.0,0.0,0.0,1.0,0.0,0.0,0.0,1.0,-1.40243899822,2.25609779358,-3.96341490746,1.0,0.0,0.0,0.0,1.0,0.0,0.0,0.0,1.0,-0.0239420166016,-0.46447512207,10.1945106689,1.0,0.0,0.0,0.0,1.0,0.0,0.0,0.0,1.0
1464167066806344980,493,1464167066802038169,,4.56384706497,-3.54166769981,-175.316741943,0.00121200003196,1.0,0.0,0.0,0.0,1.0,0.0,0.0,0.0,1.0,0.487804889679,5.18292713165,0.670731723309,1.0,0.0,0.0,0.0,1.0,0.0,0.0,0.0,1.0,-0.689530078125,-0.531512805087,10.4961800781,1.0,0.0,0.0,0.0,1.0,0.0,0.0,0.0,1.0
1464167066828777626,494,1464167066823112277,,4.63409328461,-3.51652550697,-175.274414062,0.00124400004279,1.0,0.0,0.0,0.0,1.0,0.0,0.0,0.0,1.0,0.731707334518,2.07317066193,0.12195122242,1.0,0.0,0.0,0.0,1.0,0.0,0.0,0.0,1.0,-0.0430956298828,-0.392649072266,9.95509050293,1.0,0.0,0.0,0.0,1.0,0.0,0.0,0.0,1.0
1464167066853598858,495,1464167066844067947,,4.60646629333,-3.50104570389,-175.27281189,0.00138300005347,1.0,0.0,0.0,0.0,1.0,0.0,0.0,0.0,1.0,-0.243902444839,1.76829278469,-1.70731711388,1.0,0.0,0.0,0.0,1.0,0.0,0.0,0.0,1.0,0.15322890625,-0.387860668945,10.4147772217,1.0,0.0,0.0,0.0,1.0,0.0,0.0,0.0,1.0
1464167066867790537,496,1464167066866148563,,4.56795501709,-3.49908518791,-175.316482544,0.00173999997787,1.0,0.0,0.0,0.0,1.0,0.0,0.0,0.0,1.0,0.243902444839,1.58536589146,-3.23170733452,1.0,0.0,0.0,0.0,1.0,0.0,0.0,0.0,1.0,0.0191536132812,-0.440533105469,10.3573163818,1.0,0.0,0.0,0.0,1.0,0.0,0.0,0.0,1.0
1464167066890373287,497,1464167066887181941,,4.51033687592,-3.49615454674,-175.394485474,0.00124899996445,1.0,0.0,0.0,0.0,1.0,0.0,0.0,0.0,1.0,0.487804889679,0.487804889679,-5.91463422775,1.0,0.0,0.0,0.0,1.0,0.0,0.0,0.0,1.0,0.282515795898,-0.392649072266,10.2423947021,1.0,0.0,0.0,0.0,1.0,0.0,0.0,0.0,1.0
1464167066911359009,498,1464167066907910165,,4.51281118393,-3.50700688362,-175.470611572,0.0010150000453,1.0,0.0,0.0,0.0,1.0,0.0,0.0,0.0,1.0,0.304878056049,2.92682933807,-3.17073178291,1.0,0.0,0.0,0.0,1.0,0.0,0.0,0.0,1.0,-0.138863696289,-0.483628735352,10.1945106689,1.0,0.0,0.0,0.0,1.0,0.0,0.0,0.0,1.0
1464167066932725876,499,1464167066929774374,,4.55257606506,-3.48584938049,-175.489395142,0.00128600001335,1.0,0.0,0.0,0.0,1.0,0.0,0.0,0.0,1.0,1.03658533096,3.23170733452,-1.15853655338,1.0,0.0,0.0,0.0,1.0,0.0,0.0,0.0,1.0,-0.196324536133,-0.354341845703,10.0412817627,1.0,0.0,0.0,0.0,1.0,0.0,0.0,0.0,1.0
1464167066955341907,500,1464167066950740670,,4.58100414276,-3.46214771271,-175.490463257,0.0011490000179,1.0,0.0,0.0,0.0,1.0,0.0,0.0,0.0,1.0,0.487804889679,2.56097555161,-0.975609779358,1.0,0.0,0.0,0.0,1.0,0.0,0.0,0.0,1.0,-0.205901342773,-0.349553442383,10.4004120117,1.0,0.0,0.0,0.0,1.0,0.0,0.0,0.0,1.0
1464167066972489567,501,1464167066970510406,,4.61833620071,-3.45660972595,-175.467300415,0.000983000034466,1.0,0.0,0.0,0.0,1.0,0.0,0.0,0.0,1.0,0.18292683363,3.17073178291,1.34146344662,1.0,0.0,0.0,0.0,1.0,0.0,0.0,0.0,1.0,-0.407014282227,-0.397437475586,10.2759135254,1.0,0.0,0.0,0.0,1.0,0.0,0.0,0.0,1.0
1464167066995417055,502,1464167066991168734,,4.61953210831,-3.45395803452,-175.42477417,0.00103100005072,1.0,0.0,0.0,0.0,1.0,0.0,0.0,0.0,1.0,-0.304878056049,1.34146344662,0.487804889679,1.0,0.0,0.0,0.0,1.0,0.0,0.0,0.0,1.0,0.076614453125,-0.407014282227,10.0125513428,1.0,0.0,0.0,0.0,1.0,0.0,0.0,0.0,1.0
1464167067014979552,503,1464167067011934561,,4.58033084869,-3.46462893486,-175.422546387,0.0009710000013,1.0,0.0,0.0,0.0,1.0,0.0,0.0,0.0,1.0,-0.731707334518,0.975609779358,-2.13414645195,1.0,0.0,0.0,0.0,1.0,0.0,0.0,0.0,1.0,0.0239420166016,-0.354341845703,10.1418382324,1.0,0.0,0.0,0.0,1.0,0.0,0.0,0.0,1.0
1464167067040504689,504,1464167067033181272,,4.53925657272,-3.49102902412,-175.445999146,0.00101799995173,1.0,0.0,0.0,0.0,1.0,0.0,0.0,0.0,1.0,-1.95121955872,0.914634168148,-3.04878044128,1.0,0.0,0.0,0.0,1.0,0.0,0.0,0.0,1.0,0.110133276367,-0.742202514648,10.419565625,1.0,0.0,0.0,0.0,1.0,0.0,0.0,0.0,1.0
1464167067060984840,505,1464167067053773663,,4.49594402313,-3.52577781677,-175.505569458,0.00101200002246,1.0,0.0,0.0,0.0,1.0,0.0,0.0,0.0,1.0,-1.2195122242,1.8902438879,-3.90243911743,1.0,0.0,0.0,0.0,1.0,0.0,0.0,0.0,1.0,-0.0957680664062,-0.598550451572,10.2232410889,1.0,0.0,0.0,0.0,1.0,0.0,0.0,0.0,1.0
1464167067083018060,506,1464167067074738448,,4.54472160339,-3.55555939674,-175.526473999,0.00113900005817,1.0,0.0,0.0,0.0,1.0,0.0,0.0,0.0,1.0,-1.2804877758,3.29268312454,-0.487804889679,1.0,0.0,0.0,0.0,1.0,0.0,0.0,0.0,1.0,-0.521935925381,-0.416591088867,10.1945106689,1.0,0.0,0.0,0.0,1.0,0.0,0.0,0.0,1.0
1464167067098500412,507,1464167067095586723,,4.58360147476,-3.56183028221,-175.495559692,0.00097499997355,1.0,0.0,0.0,0.0,1.0,0.0,0.0,0.0,1.0,-0.609756112099,3.90243911743,0.975609779358,1.0,0.0,0.0,0.0,1.0,0.0,0.0,0.0,1.0,-0.320823022461,-0.526724328702,10.405200415,1.0,0.0,0.0,0.0,1.0,0.0,0.0,0.0,1.0
1464167067121665556,508,1464167067116589424,,4.61310338974,-3.56352353096,-175.448989868,0.00101000000723,1.0,0.0,0.0,0.0,1.0,0.0,0.0,0.0,1.0,0.18292683363,3.23170733452,1.46341466904,1.0,0.0,0.0,0.0,1.0,0.0,0.0,0.0,1.0,0.100556469727,-0.636857641602,10.5057568848,1.0,0.0,0.0,0.0,1.0,0.0,0.0,0.0,1.0
1464167067139655401,509,1464167067137168377,,4.65861940384,-3.55551719666,-175.371932983,0.00115400005598,1.0,0.0,0.0,0.0,1.0,0.0,0.0,0.0,1.0,0.18292683363,1.8902438879,2.62195134163,1.0,0.0,0.0,0.0,1.0,0.0,0.0,0.0,1.0,-0.239420166016,-0.407014282227,10.1514150391,1.0,0.0,0.0,0.0,1.0,0.0,0.0,0.0,1.0
1464167067161204768,510,1464167067157940090,,4.62029933929,-3.539757967,-175.308425903,0.00193000002764,1.0,0.0,0.0,0.0,1.0,0.0,0.0,0.0,1.0,-0.487804889679,-0.426829278469,0.609756112099,1.0,0.0,0.0,0.0,1.0,0.0,0.0,0.0,1.0,0.0574608398438,-0.344765039063,10.0891657959,1.0,0.0,0.0,0.0,1.0,0.0,0.0,0.0,1.0
1464167067183283925,511,1464167067179216905,,4.52830505371,-3.53307294846,-175.295028687,0.00117099995259,1.0,0.0,0.0,0.0,1.0,0.0,0.0,0.0,1.0,-0.365853667259,-1.03658533096,-1.52439022064,1.0,0.0,0.0,0.0,1.0,0.0,0.0,0.0,1.0,0.0287304199219,-0.469263525391,10.1562034424,1.0,0.0,0.0,0.0,1.0,0.0,0.0,0.0,1.0
1464167067211110722,512,1464167067205910945,,4.46659803391,-3.52170658112,-175.296554565,0.00508299982175,1.0,0.0,0.0,0.0,1.0,0.0,0.0,0.0,1.0,0.18292683363,1.76829278469,-1.15853655338,1.0,0.0,0.0,0.0,1.0,0.0,0.0,0.0,1.0,0.0430956298828,-0.426167895508,10.0795889893,1.0,0.0,0.0,0.0,1.0,0.0,0.0,0.0,1.0
1464167067229013901,513,1464167067225664223,,4.46177721024,-3.5091984272,-175.300064087,0.00641500018537,1.0,0.0,0.0,0.0,1.0,0.0,0.0,0.0,1.0,0.18292683363,3.29268312454,-1.40243899822,1.0,0.0,0.0,0.0,1.0,0.0,0.0,0.0,1.0,0.076614453125,-0.440533105469,10.1562034424,1.0,0.0,0.0,0.0,1.0,0.0,0.0,0.0,1.0
1464167067251168787,514,1464167067246490155,,4.4912443161,-3.49568891525,-175.315002441,0.00122500001453,1.0,0.0,0.0,0.0,1.0,0.0,0.0,0.0,1.0,-0.304878056049,4.32926845551,-1.64634156227,1.0,0.0,0.0,0.0,1.0,0.0,0.0,0.0,1.0,-0.162805712891,-0.478840332031,10.3860468018,1.0,0.0,0.0,0.0,1.0,0.0,0.0,0.0,1.0
1464167067271338054,515,1464167067267135566,,4.53684854507,-3.49779772758,-175.330093384,0.0009710000013,1.0,0.0,0.0,0.0,1.0,0.0,0.0,0.0,1.0,-1.34146344662,4.20731735229,-1.95121955872,1.0,0.0,0.0,0.0,1.0,0.0,0.0,0.0,1.0,-0.124498486328,-0.3064578125,10.165780249,1.0,0.0,0.0,0.0,1.0,0.0,0.0,0.0,1.0
1464167067299322819,516,1464167067287675716,,4.57193994522,-3.52170538902,-175.349502563,0.001615999965,1.0,0.0,0.0,0.0,1.0,0.0,0.0,0.0,1.0,-2.07317066193,3.23170733452,-1.76829278469,1.0,0.0,0.0,0.0,1.0,0.0,0.0,0.0,1.0,-0.0909796630859,-0.507570751953,10.2280294922,1.0,0.0,0.0,0.0,1.0,0.0,0.0,0.0,1.0
1464167067325093164,517,1464167067308680658,,4.58403015137,-3.55311965942,-175.368255615,0.0010450000409,1.0,0.0,0.0,0.0,1.0,0.0,0.0,0.0,1.0,-1.34146344662,1.64634156227,-1.95121955872,1.0,0.0,0.0,0.0,1.0,0.0,0.0,0.0,1.0,-0.0861912597656,-0.45968671875,10.1131078125,1.0,0.0,0.0,0.0,1.0,0.0,0.0,0.0,1.0
1464167067331582104,518,1464167067329467370,,4.5585064888,-3.57243037224,-175.392288208,0.00107300002128,1.0,0.0,0.0,0.0,1.0,0.0,0.0,0.0,1.0,-0.853658556938,0.914634168148,-1.8292683363,1.0,0.0,0.0,0.0,1.0,0.0,0.0,0.0,1.0,-0.0526724365234,-0.421379492187,10.2471831055,1.0,0.0,0.0,0.0,1.0,0.0,0.0,0.0,1.0
1464167067352236838,519,1464167067350051584,,4.53125572205,-3.57574510574,-175.40574646,0.0011190000223,1.0,0.0,0.0,0.0,1.0,0.0,0.0,0.0,1.0,-0.0609756112099,1.15853655338,-1.46341466904,1.0,0.0,0.0,0.0,1.0,0.0,0.0,0.0,1.0,-0.105344873047,-0.483628735352,10.1226846191,1.0,0.0,0.0,0.0,1.0,0.0,0.0,0.0,1.0
1464167067374341828,520,1464167067370977567,,4.51814603806,-3.56204271317,-175.40826416,0.00096700002905,1.0,0.0,0.0,0.0,1.0,0.0,0.0,0.0,1.0,0.426829278469,2.31707310677,-0.853658556938,1.0,0.0,0.0,0.0,1.0,0.0,0.0,0.0,1.0,-0.0909796630859,-0.555454785156,10.2759135254,1.0,0.0,0.0,0.0,1.0,0.0,0.0,0.0,1.0
1464167067398201709,521,1464167067391975737,,4.52601385117,-3.54714655876,-175.402664185,0.0009710000013,1.0,0.0,0.0,0.0,1.0,0.0,0.0,0.0,1.0,0.853658556938,2.74390244484,-0.914634168148,1.0,0.0,0.0,0.0,1.0,0.0,0.0,0.0,1.0,-0.00957680664062,-0.478840332031,10.1370498291,1.0,0.0,0.0,0.0,1.0,0.0,0.0,0.0,1.0
1464167067418813318,522,1464167067413518385,,4.52654600143,-3.51579284668,-175.390655518,0.00105099997018,1.0,0.0,0.0,0.0,1.0,0.0,0.0,0.0,1.0,1.09756100178,2.19512200356,-0.548780500889,1.0,0.0,0.0,0.0,1.0,0.0,0.0,0.0,1.0,-0.0335188255255,-0.272938989258,10.1562034424,1.0,0.0,0.0,0.0,1.0,0.0,0.0,0.0,1.0
1464167067437665922,523,1464167067434938013,,4.52097558975,-3.48076581955,-175.382156372,0.001304000034,1.0,0.0,0.0,0.0,1.0,0.0,0.0,0.0,1.0,1.09756100178,1.2804877758,-0.792682945728,1.0,0.0,0.0,0.0,1.0,0.0,0.0,0.0,1.0,-0.134075302102,-0.392649072266,10.1562034424,1.0,0.0,0.0,0.0,1.0,0.0,0.0,0.0,1.0
1464167067457803678,524,1464167067455822173,,4.50348949432,-3.44846916199,-175.370895386,0.00117800000589,1.0,0.0,0.0,0.0,1.0,0.0,0.0,0.0,1.0,0.731707334518,0.975609779358,-0.487804889679,1.0,0.0,0.0,0.0,1.0,0.0,0.0,0.0,1.0,-0.134075302102,-0.387860668945,10.1083194092,1.0,0.0,0.0,0.0,1.0,0.0,0.0,0.0,1.0
1464167067478470495,525,1464167067476712271,,4.47171831131,-3.4274699688,-175.368301392,0.00106899999082,1.0,0.0,0.0,0.0,1.0,0.0,0.0,0.0,1.0,0.487804889679,-0.12195122242,-1.46341466904,1.0,0.0,0.0,0.0,1.0,0.0,0.0,0.0,1.0,-0.277727392578,-0.373495458984,10.1466266357,1.0,0.0,0.0,0.0,1.0,0.0,0.0,0.0,1.0
1464167067501182306,526,1464167067497797108,,4.40727138519,-3.42364239693,-175.401977539,0.00125700002536,1.0,0.0,0.0,0.0,1.0,0.0,0.0,0.0,1.0,-0.548780500889,0.426829278469,-2.74390244484,1.0,0.0,0.0,0.0,1.0,0.0,0.0,0.0,1.0,-0.0430956298828,-0.512359155273,10.1992990723,1.0,0.0,0.0,0.0,1.0,0.0,0.0,0.0,1.0
1464167067522109331,527,1464167067520348190,,4.41694498062,-3.42238426208,-175.398254395,0.00272500002757,1.0,0.0,0.0,0.0,1.0,0.0,0.0,0.0,1.0,0.792682945728,1.95121955872,0.548780500889,1.0,0.0,0.0,0.0,1.0,0.0,0.0,0.0,1.0,-0.172382519531,-0.450109912109,10.3477395752,1.0,0.0,0.0,0.0,1.0,0.0,0.0,0.0,1.0
1464167067547770978,528,1464167067544501144,,4.44097709656,-3.39726781845,-175.348068237,0.00291800010018,1.0,0.0,0.0,0.0,1.0,0.0,0.0,0.0,1.0,1.2804877758,2.37804889679,1.58536589146,1.0,0.0,0.0,0.0,1.0,0.0,0.0,0.0,1.0,-0.277727392578,-0.497993945312,9.92157167969,1.0,0.0,0.0,0.0,1.0,0.0,0.0,0.0,1.0
1464167067571554141,529,1464167067565192231,,4.44238758087,-3.36962795258,-175.295166016,0.00233500008471,1.0,0.0,0.0,0.0,1.0,0.0,0.0,0.0,1.0,0.731707334518,2.31707310677,1.2195122242,1.0,0.0,0.0,0.0,1.0,0.0,0.0,0.0,1.0,-0.00957680664062,-0.335188232422,10.1897222656,1.0,0.0,0.0,0.0,1.0,0.0,0.0,0.0,1.0
1464167067588786384,530,1464167067585867122,,4.46026945114,-3.35284590721,-175.239761353,0.00107600004412,1.0,0.0,0.0,0.0,1.0,0.0,0.0,0.0,1.0,-0.12195122242,1.95121955872,1.52439022064,1.0,0.0,0.0,0.0,1.0,0.0,0.0,0.0,1.0,-0.105344873047,-0.430956298828,10.2423947021,1.0,0.0,0.0,0.0,1.0,0.0,0.0,0.0,1.0
1464167067610117679,531,1464167067607023260,,4.46775627136,-3.33794116974,-175.188613892,0.000989999971353,1.0,0.0,0.0,0.0,1.0,0.0,0.0,0.0,1.0,-0.853658556938,1.8292683363,1.03658533096,1.0,0.0,0.0,0.0,1.0,0.0,0.0,0.0,1.0,-0.0335188255255,-0.407014282227,10.3812583984,1.0,0.0,0.0,0.0,1.0,0.0,0.0,0.0,1.0
1464167067630295956,532,1464167067628054868,,4.4694237709,-3.34586524963,-175.144973755,0.000975999981165,1.0,0.0,0.0,0.0,1.0,0.0,0.0,0.0,1.0,-0.853658556938,2.13414645195,0.792682945728,1.0,0.0,0.0,0.0,1.0,0.0,0.0,0.0,1.0,-0.0191536132812,-0.354341845703,10.1609918457,1.0,0.0,0.0,0.0,1.0,0.0,0.0,0.0,1.0
1464167067651340324,533,1464167067649292204,,4.47215461731,-3.35877752304,-175.107116699,0.00110100000165,1.0,0.0,0.0,0.0,1.0,0.0,0.0,0.0,1.0,-1.2804877758,2.68292689323,0.548780500889,1.0,0.0,0.0,0.0,1.0,0.0,0.0,0.0,1.0,0.00957680664062,-0.517147558594,10.2519715088,1.0,0.0,0.0,0.0,1.0,0.0,0.0,0.0,1.0
1464167067672139380,534,1464167067670393500,,4.48734235764,-3.37377524376,-175.07043457,0.00105900003109,1.0,0.0,0.0,0.0,1.0,0.0,0.0,0.0,1.0,-0.914634168148,3.65853667259,0.670731723309,1.0,0.0,0.0,0.0,1.0,0.0,0.0,0.0,1.0,-0.0191536132812,-0.497993945312,10.1753570557,1.0,0.0,0.0,0.0,1.0,0.0,0.0,0.0,1.0
1464167067694158589,535,1464167067690739484,,4.51818704605,-3.38813734055,-175.04296875,0.000991999986582,1.0,0.0,0.0,0.0,1.0,0.0,0.0,0.0,1.0,-0.792682945728,3.47560977936,0.12195122242,1.0,0.0,0.0,0.0,1.0,0.0,0.0,0.0,1.0,-0.0287304199219,-0.512359155273,10.1897222656,1.0,0.0,0.0,0.0,1.0,0.0,0.0,0.0,1.0
1464167067717422326,536,1464167067715203270,,4.54350137711,-3.39247298241,-175.022171021,0.00264599989168,1.0,0.0,0.0,0.0,1.0,0.0,0.0,0.0,1.0,0.0,2.98780488968,0.0609756112099,1.0,0.0,0.0,0.0,1.0,0.0,0.0,0.0,1.0,-0.100556469727,-0.407014282227,10.1514150391,1.0,0.0,0.0,0.0,1.0,0.0,0.0,0.0,1.0
1464167067735739254,537,1464167067733193741,,4.5536441803,-3.39002299309,-175.009094238,0.000960999983363,1.0,0.0,0.0,0.0,1.0,0.0,0.0,0.0,1.0,0.0609756112099,2.98780488968,-0.365853667259,1.0,0.0,0.0,0.0,1.0,0.0,0.0,0.0,1.0,0.076614453125,-0.426167895508,10.2711251221,1.0,0.0,0.0,0.0,1.0,0.0,0.0,0.0,1.0
1464167067759786062,538,1464167067758545024,,4.59822654724,-3.38747859001,-174.987319946,0.00389300007373,1.0,0.0,0.0,0.0,1.0,0.0,0.0,0.0,1.0,-0.18292683363,4.87804889679,0.792682945728,1.0,0.0,0.0,0.0,1.0,0.0,0.0,0.0,1.0,-0.248996972656,-0.435744702148,10.1705686523,1.0,0.0,0.0,0.0,1.0,0.0,0.0,0.0,1.0
1464167067785182033,539,1464167067776518671,,4.67059469223,-3.37780094147,-174.942825317,0.000972000008915,1.0,0.0,0.0,0.0,1.0,0.0,0.0,0.0,1.0,-0.18292683363,4.08536577225,1.58536589146,1.0,0.0,0.0,0.0,1.0,0.0,0.0,0.0,1.0,-0.0814028564453,-0.426167895508,9.97424411621,1.0,0.0,0.0,0.0,1.0,0.0,0.0,0.0,1.0
1464167067805577288,540,1464167067797935591,,4.68273830414,-3.38289284706,-174.905395508,0.0010150000453,1.0,0.0,0.0,0.0,1.0,0.0,0.0,0.0,1.0,-1.64634156227,2.01219511032,-0.304878056049,1.0,0.0,0.0,0.0,1.0,0.0,0.0,0.0,1.0,0.0574608398438,-0.397437475586,10.1274730225,1.0,0.0,0.0,0.0,1.0,0.0,0.0,0.0,1.0
1464167067826697437,541,1464167067824163590,,4.63414096832,-3.40556573868,-174.906784058,0.00653199991211,1.0,0.0,0.0,0.0,1.0,0.0,0.0,0.0,1.0,-1.09756100178,0.792682945728,-1.70731711388,1.0,0.0,0.0,0.0,1.0,0.0,0.0,0.0,1.0,0.0957680664062,-0.359130249023,10.2759135254,1.0,0.0,0.0,0.0,1.0,0.0,0.0,0.0,1.0
1464167067847264671,542,1464167067845173063,,4.55405664444,-3.42214179039,-174.942123413,0.00143299996853,1.0,0.0,0.0,0.0,1.0,0.0,0.0,0.0,1.0,-1.09756100178,0.548780500889,-4.20731735229,1.0,0.0,0.0,0.0,1.0,0.0,0.0,0.0,1.0,0.478840332031,-0.277727392578,9.88805285645,1.0,0.0,0.0,0.0,1.0,0.0,0.0,0.0,1.0
1464167067868227269,543,1464167067866190712,,4.52475500107,-3.44787526131,-174.992248535,0.00233900011517,1.0,0.0,0.0,0.0,1.0,0.0,0.0,0.0,1.0,-0.243902444839,3.17073178291,-1.8292683363,1.0,0.0,0.0,0.0,1.0,0.0,0.0,0.0,1.0,-0.105344873047,-0.502782348633,10.2711251221,1.0,0.0,0.0,0.0,1.0,0.0,0.0,0.0,1.0
1464167067888919607,544,1464167067886800811,,4.57068347931,-3.43708324432,-174.986999512,0.000989999971353,1.0,0.0,0.0,0.0,1.0,0.0,0.0,0.0,1.0,0.914634168148,4.69512224197,0.0609756112099,1.0,0.0,0.0,0.0,1.0,0.0,0.0,0.0,1.0,-0.067037651051,-0.359130249023,10.1945106689,1.0,0.0,0.0,0.0,1.0,0.0,0.0,0.0,1.0
1464167067910673713,545,1464167067907953408,,4.63197898865,-3.40350174904,-174.961776733,0.00110500003211,1.0,0.0,0.0,0.0,1.0,0.0,0.0,0.0,1.0,-0.243902444839,3.23170733452,-0.365853667259,1.0,0.0,0.0,0.0,1.0,0.0,0.0,0.0,1.0,-0.0430956298828,-0.268150604204,10.2280294922,1.0,0.0,0.0,0.0,1.0,0.0,0.0,0.0,1.0
1464167067930816573,546,1464167067928673975,,4.6483540535,-3.39447188377,-174.946655273,0.000977999996394,1.0,0.0,0.0,0.0,1.0,0.0,0.0,0.0,1.0,-0.609756112099,2.62195134163,-0.18292683363,1.0,0.0,0.0,0.0,1.0,0.0,0.0,0.0,1.0,-0.143652099609,-0.268150604204,10.2807019287,1.0,0.0,0.0,0.0,1.0,0.0,0.0,0.0,1.0
1464167067951507817,547,1464167067949464177,,4.65241575241,-3.39712738991,-174.919265747,0.000996000017039,1.0,0.0,0.0,0.0,1.0,0.0,0.0,0.0,1.0,-1.03658533096,1.2804877758,0.0609756112099,1.0,0.0,0.0,0.0,1.0,0.0,0.0,0.0,1.0,-0.0957680664062,-0.435744702148,10.1035310059,1.0,0.0,0.0,0.0,1.0,0.0,0.0,0.0,1.0
1464167067972707185,548,1464167067969932193,,4.62346792221,-3.40533328056,-174.890609741,0.00104100001045,1.0,0.0,0.0,0.0,1.0,0.0,0.0,0.0,1.0,-0.670731723309,-0.0609756112099,0.12195122242,1.0,0.0,0.0,0.0,1.0,0.0,0.0,0.0,1.0,-0.0526724365234,-0.368707055664,10.3908352051,1.0,0.0,0.0,0.0,1.0,0.0,0.0,0.0,1.0
1464167067993511241,549,1464167067990892082,,4.5726313591,-3.4099676609,-174.860977173,0.000979000004008,1.0,0.0,0.0,0.0,1.0,0.0,0.0,0.0,1.0,-0.0609756112099,0.304878056049,0.243902444839,1.0,0.0,0.0,0.0,1.0,0.0,0.0,0.0,1.0,-0.0239420166016,-0.536301208408,10.3094323486,1.0,0.0,0.0,0.0,1.0,0.0,0.0,0.0,1.0
1464167068014958056,550,1464167068011449785,,4.54387569427,-3.39669513702,-174.825653076,0.00100699998438,1.0,0.0,0.0,0.0,1.0,0.0,0.0,0.0,1.0,0.792682945728,1.52439022064,0.731707334518,1.0,0.0,0.0,0.0,1.0,0.0,0.0,0.0,1.0,0.0478840332031,-0.478840332031,10.2519715088,1.0,0.0,0.0,0.0,1.0,0.0,0.0,0.0,1.0
1464167068038504397,551,1464167068032280664,,4.55250883102,-3.37088489532,-174.781478882,0.000974000024144,1.0,0.0,0.0,0.0,1.0,0.0,0.0,0.0,1.0,1.52439022064,2.92682933807,1.2804877758,1.0,0.0,0.0,0.0,1.0,0.0,0.0,0.0,1.0,-0.474051928711,-0.335188232422,10.285490332,1.0,0.0,0.0,0.0,1.0,0.0,0.0,0.0,1.0
1464167068056634294,552,1464167068052905085,,4.60336732864,-3.33687543869,-174.714660645,0.000972000008915,1.0,0.0,0.0,0.0,1.0,0.0,0.0,0.0,1.0,1.34146344662,3.7804877758,3.17073178291,1.0,0.0,0.0,0.0,1.0,0.0,0.0,0.0,1.0,-0.248996972656,-0.335188232422,10.1945106689,1.0,0.0,0.0,0.0,1.0,0.0,0.0,0.0,1.0
1464167068079049231,553,1464167068073665757,,4.61324834824,-3.30574679375,-174.650924683,0.00132299994584,1.0,0.0,0.0,0.0,1.0,0.0,0.0,0.0,1.0,0.609756112099,1.64634156227,1.09756100178,1.0,0.0,0.0,0.0,1.0,0.0,0.0,0.0,1.0,0.124498486328,-0.363918652344,10.1131078125,1.0,0.0,0.0,0.0,1.0,0.0,0.0,0.0,1.0
1464167068097095899,554,1464167068094490021,,4.58667564392,-3.2932202816,-174.629562378,0.00114099995699,1.0,0.0,0.0,0.0,1.0,0.0,0.0,0.0,1.0,-1.2804877758,0.914634168148,-1.2804877758,1.0,0.0,0.0,0.0,1.0,0.0,0.0,0.0,1.0,0.00957680664062,-0.268150604204,10.1274730225,1.0,0.0,0.0,0.0,1.0,0.0,0.0,0.0,1.0
1464167068117016416,555,1464167068115225849,,4.55799102783,-3.30900835991,-174.630386353,0.00109000003431,1.0,0.0,0.0,0.0,1.0,0.0,0.0,0.0,1.0,-1.64634156227,1.34146344662,-0.914634168148,1.0,0.0,0.0,0.0,1.0,0.0,0.0,0.0,1.0,-0.129286889648,-0.531512805087,10.2088758789,1.0,0.0,0.0,0.0,1.0,0.0,0.0,0.0,1.0
1464167068138277399,556,1464167068136587820,,4.55126619339,-3.3372399807,-174.626098633,0.00102099997457,1.0,0.0,0.0,0.0,1.0,0.0,0.0,0.0,1.0,-1.09756100178,1.46341466904,-1.03658533096,1.0,0.0,0.0,0.0,1.0,0.0,0.0,0.0,1.0,0.0574608398438,-0.416591088867,10.0891657959,1.0,0.0,0.0,0.0,1.0,0.0,0.0,0.0,1.0
1464167068159601610,557,1464167068157377033,,4.54561090469,-3.3623483181,-174.627853394,0.00100399996154,1.0,0.0,0.0,0.0,1.0,0.0,0.0,0.0,1.0,-0.792682945728,2.43902444839,-1.2804877758,1.0,0.0,0.0,0.0,1.0,0.0,0.0,0.0,1.0,-0.134075302102,-0.569819995117,10.1945106689,1.0,0.0,0.0,0.0,1.0,0.0,0.0,0.0,1.0
1464167068180155979,558,1464167068178064787,,4.56055498123,-3.38151788712,-174.623962402,0.00112000002991,1.0,0.0,0.0,0.0,1.0,0.0,0.0,0.0,1.0,0.12195122242,3.35365867615,-0.731707334518,1.0,0.0,0.0,0.0,1.0,0.0,0.0,0.0,1.0,0.0143652099609,-0.632069238281,10.1514150391,1.0,0.0,0.0,0.0,1.0,0.0,0.0,0.0,1.0
1464167068200705870,559,1464167068198483116,,4.56968450546,-3.36926603317,-174.624099731,0.00110200000927,1.0,0.0,0.0,0.0,1.0,0.0,0.0,0.0,1.0,1.03658533096,3.10975623131,-2.01219511032,1.0,0.0,0.0,0.0,1.0,0.0,0.0,0.0,1.0,0.129286889648,-0.450109912109,10.3237975586,1.0,0.0,0.0,0.0,1.0,0.0,0.0,0.0,1.0
1464167068225930539,560,1464167068219433369,,4.55570173264,-3.34218788147,-174.654891968,0.00113099999726,1.0,0.0,0.0,0.0,1.0,0.0,0.0,0.0,1.0,1.40243899822,2.25609779358,-2.5,1.0,0.0,0.0,0.0,1.0,0.0,0.0,0.0,1.0,-0.110133276367,-0.60812722168,10.2567599121,1.0,0.0,0.0,0.0,1.0,0.0,0.0,0.0,1.0
1464167068241980650,561,1464167068240016385,,4.60915660858,-3.30897378922,-174.647262573,0.00117900001351,1.0,0.0,0.0,0.0,1.0,0.0,0.0,0.0,1.0,1.76829278469,2.68292689323,0.609756112099,1.0,0.0,0.0,0.0,1.0,0.0,0.0,0.0,1.0,-0.263362164351,-0.330399829102,10.2328178955,1.0,0.0,0.0,0.0,1.0,0.0,0.0,0.0,1.0
1464167068263285278,562,1464167068261458825,,4.63953876495,-3.26028990746,-174.597427368,0.00122800003737,1.0,0.0,0.0,0.0,1.0,0.0,0.0,0.0,1.0,1.46341466904,1.95121955872,1.8292683363,1.0,0.0,0.0,0.0,1.0,0.0,0.0,0.0,1.0,-0.15801730957,-0.292092584273,10.0748005859,1.0,0.0,0.0,0.0,1.0,0.0,0.0,0.0,1.0
1464167068286900733,563,1464167068282689390,,4.62268543243,-3.23247861862,-174.549057007,0.00114800001029,1.0,0.0,0.0,0.0,1.0,0.0,0.0,0.0,1.0,1.09756100178,1.34146344662,1.2195122242,1.0,0.0,0.0,0.0,1.0,0.0,0.0,0.0,1.0,-0.00478840332031,-0.45968671875,10.1274730225,1.0,0.0,0.0,0.0,1.0,0.0,0.0,0.0,1.0
1464167068305498754,564,1464167068303885060,,4.61727905273,-3.22020459175,-174.488693237,0.00597599986941,1.0,0.0,0.0,0.0,1.0,0.0,0.0,0.0,1.0,0.0,1.2804877758,2.13414645195,1.0,0.0,0.0,0.0,1.0,0.0,0.0,0.0,1.0,-0.210689746094,-0.521935925381,10.2567599121,1.0,0.0,0.0,0.0,1.0,0.0,0.0,0.0,1.0
1464167068327688431,565,1464167068325667239,,4.6286945343,-3.20308089256,-174.397064209,0.00146599998698,1.0,0.0,0.0,0.0,1.0,0.0,0.0,0.0,1.0,-0.792682945728,2.19512200356,4.2682929039,1.0,0.0,0.0,0.0,1.0,0.0,0.0,0.0,1.0,-0.316034619141,-0.397437475586,10.3477395752,1.0,0.0,0.0,0.0,1.0,0.0,0.0,0.0,1.0
1464167068348141082,566,1464167068346036713,,4.63435173035,-3.21269249916,-174.281555176,0.00136600004043,1.0,0.0,0.0,0.0,1.0,0.0,0.0,0.0,1.0,-1.64634156227,0.548780500889,4.20731735229,1.0,0.0,0.0,0.0,1.0,0.0,0.0,0.0,1.0,-0.100556469727,-0.430956298828,10.1945106689,1.0,0.0,0.0,0.0,1.0,0.0,0.0,0.0,1.0
1464167068378346571,567,1464167068368703004,,4.5809006691,-3.23482966423,-174.184036255,0.00240799994208,1.0,0.0,0.0,0.0,1.0,0.0,0.0,0.0,1.0,-1.64634156227,0.426829278469,2.37804889679,1.0,0.0,0.0,0.0,1.0,0.0,0.0,0.0,1.0,0.114921679688,-0.416591088867,10.2519715088,1.0,0.0,0.0,0.0,1.0,0.0,0.0,0.0,1.0
1464167068405056027,568,1464167068389900340,,4.54481887817,-3.2771191597,-174.130615234,0.00097499997355,1.0,0.0,0.0,0.0,1.0,0.0,0.0,0.0,1.0,-2.74390244484,1.2804877758,1.15853655338,1.0,0.0,0.0,0.0,1.0,0.0,0.0,0.0,1.0,0.215478149414,0.15322890625,9.99339772949,1.0,0.0,0.0,0.0,1.0,0.0,0.0,0.0,1.0
1464167068414522667,569,1464167068410651116,,4.49635410309,-3.32859349251,-174.143127441,0.00101899995934,1.0,0.0,0.0,0.0,1.0,0.0,0.0,0.0,1.0,-2.74390244484,1.64634156227,-2.07317066193,1.0,0.0,0.0,0.0,1.0,0.0,0.0,0.0,1.0,0.296881024126,-0.555454785156,10.3812583984,1.0,0.0,0.0,0.0,1.0,0.0,0.0,0.0,1.0
1464167068435931305,570,1464167068433129438,,4.52968740463,-3.37222480774,-174.130615234,0.00428600003943,1.0,0.0,0.0,0.0,1.0,0.0,0.0,0.0,1.0,-0.670731723309,3.96341490746,1.09756100178,1.0,0.0,0.0,0.0,1.0,0.0,0.0,0.0,1.0,-0.387860668945,-0.579396801758,10.1562034424,1.0,0.0,0.0,0.0,1.0,0.0,0.0,0.0,1.0
1464167068455051929,571,1464167068452325166,,4.5685095787,-3.37257695198,-174.077102661,0.00112200004514,1.0,0.0,0.0,0.0,1.0,0.0,0.0,0.0,1.0,-0.426829278469,4.08536577225,1.8902438879,1.0,0.0,0.0,0.0,1.0,0.0,0.0,0.0,1.0,-0.268150604204,-0.421379492187,10.0221281494,1.0,0.0,0.0,0.0,1.0,0.0,0.0,0.0,1.0
1464167068475625517,572,1464167068473174899,,4.59982204437,-3.35086560249,-174.028503418,0.00100399996154,1.0,0.0,0.0,0.0,1.0,0.0,0.0,0.0,1.0,0.731707334518,2.74390244484,1.8292683363,1.0,0.0,0.0,0.0,1.0,0.0,0.0,0.0,1.0,-0.196324536133,-0.134075302102,10.1945106689,1.0,0.0,0.0,0.0,1.0,0.0,0.0,0.0,1.0
1464167068500298781,573,1464167068494377652,,4.63980722427,-3.32725691795,-173.976470947,0.000954999995884,1.0,0.0,0.0,0.0,1.0,0.0,0.0,0.0,1.0,1.40243899822,2.5,1.64634156227,1.0,0.0,0.0,0.0,1.0,0.0,0.0,0.0,1.0,-0.363918652344,-0.316034619141,10.0700121826,1.0,0.0,0.0,0.0,1.0,0.0,0.0,0.0,1.0
1464167068520049403,574,1464167068516840193,,4.62183713913,-3.30217242241,-173.944717407,0.00100599997677,1.0,0.0,0.0,0.0,1.0,0.0,0.0,0.0,1.0,0.0609756112099,0.731707334518,-1.2804877758,1.0,0.0,0.0,0.0,1.0,0.0,0.0,0.0,1.0,0.191536132812,-0.272938989258,10.2328178955,1.0,0.0,0.0,0.0,1.0,0.0,0.0,0.0,1.0
1464167068544118867,575,1464167068540516169,,4.56648635864,-3.29131984711,-173.972747803,0.00332099990919,1.0,0.0,0.0,0.0,1.0,0.0,0.0,0.0,1.0,-0.487804889679,0.548780500889,-2.92682933807,1.0,0.0,0.0,0.0,1.0,0.0,0.0,0.0,1.0,0.0383072265625,-0.421379492187,10.3333743652,1.0,0.0,0.0,0.0,1.0,0.0,0.0,0.0,1.0
1464167068566834637,576,1464167068563127460,,4.5147767067,-3.27937531471,-174.049346924,0.0064400001429,1.0,0.0,0.0,0.0,1.0,0.0,0.0,0.0,1.0,-0.304878056049,0.365853667259,-5.79268312454,1.0,0.0,0.0,0.0,1.0,0.0,0.0,0.0,1.0,0.143652099609,-0.244208569336,10.4913916748,1.0,0.0,0.0,0.0,1.0,0.0,0.0,0.0,1.0
1464167068586460728,577,1464167068584392244,,4.52626371384,-3.31862688065,-174.129653931,0.0076790000312,1.0,0.0,0.0,0.0,1.0,0.0,0.0,0.0,1.0,-1.09756100178,5.0,-3.10975623131,1.0,0.0,0.0,0.0,1.0,0.0,0.0,0.0,1.0,-0.373495458984,-0.732625708008,10.3477395752,1.0,0.0,0.0,0.0,1.0,0.0,0.0,0.0,1.0
1464167068607193014,578,1464167068605195311,,4.63482666016,-3.32761573792,-174.103469849,0.00900499988347,1.0,0.0,0.0,0.0,1.0,0.0,0.0,0.0,1.0,0.670731723309,5.0,2.37804889679,1.0,0.0,0.0,0.0,1.0,0.0,0.0,0.0,1.0,-0.488417138672,-0.521935925381,10.1609918457,1.0,0.0,0.0,0.0,1.0,0.0,0.0,0.0,1.0
1464167068631108259,579,1464167068625792389,,4.69621610641,-3.3051841259,-174.030029297,0.00166399998125,1.0,0.0,0.0,0.0,1.0,0.0,0.0,0.0,1.0,0.0609756112099,2.07317066193,1.58536589146,1.0,0.0,0.0,0.0,1.0,0.0,0.0,0.0,1.0,-0.076614453125,-0.335188232422,9.8545340332,1.0,0.0,0.0,0.0,1.0,0.0,0.0,0.0,1.0
1464167068651142578,580,1464167068646239102,,4.66535711288,-3.29065275192,-173.995239258,0.000990999978967,1.0,0.0,0.0,0.0,1.0,0.0,0.0,0.0,1.0,-0.0609756112099,0.853658556938,0.12195122242,1.0,0.0,0.0,0.0,1.0,0.0,0.0,0.0,1.0,-0.0287304199219,-0.502782348633,10.3764699951,1.0,0.0,0.0,0.0,1.0,0.0,0.0,0.0,1.0
1464167068669434193,581,1464167068666785555,,4.61301660538,-3.27734661102,-173.985931396,0.000975999981165,1.0,0.0,0.0,0.0,1.0,0.0,0.0,0.0,1.0,1.2804877758,0.426829278469,-0.609756112099,1.0,0.0,0.0,0.0,1.0,0.0,0.0,0.0,1.0,0.0335188255255,-0.497993945312,10.3429511719,1.0,0.0,0.0,0.0,1.0,0.0,0.0,0.0,1.0
1464167068692388088,582,1464167068687499455,,4.60457611084,-3.2552523613,-173.95854187,0.000972000008915,1.0,0.0,0.0,0.0,1.0,0.0,0.0,0.0,1.0,0.853658556938,0.365853667259,0.18292683363,1.0,0.0,0.0,0.0,1.0,0.0,0.0,0.0,1.0,-0.15322890625,-0.301669427446,10.0843773926,1.0,0.0,0.0,0.0,1.0,0.0,0.0,0.0,1.0
1464167068714050110,583,1464167068708875385,,4.57799863815,-3.23696684837,-173.919540405,0.00102600001264,1.0,0.0,0.0,0.0,1.0,0.0,0.0,0.0,1.0,-0.304878056049,0.914634168148,1.03658533096,1.0,0.0,0.0,0.0,1.0,0.0,0.0,0.0,1.0,-0.129286889648,-0.368707055664,10.299855542,1.0,0.0,0.0,0.0,1.0,0.0,0.0,0.0,1.0
1464167068732178393,584,1464167068729623400,,4.56078863144,-3.23318076134,-173.880310059,0.000966000021435,1.0,0.0,0.0,0.0,1.0,0.0,0.0,0.0,1.0,-0.243902444839,1.46341466904,1.2195122242,1.0,0.0,0.0,0.0,1.0,0.0,0.0,0.0,1.0,-0.0430956298828,-0.3064578125,10.1897222656,1.0,0.0,0.0,0.0,1.0,0.0,0.0,0.0,1.0
1464167068752630054,585,1464167068750260738,,4.55398082733,-3.22933959961,-173.839202881,0.00103399995714,1.0,0.0,0.0,0.0,1.0,0.0,0.0,0.0,1.0,-0.0609756112099,2.01219511032,0.914634168148,1.0,0.0,0.0,0.0,1.0,0.0,0.0,0.0,1.0,-0.0335188255255,-0.368707055664,10.1753570557,1.0,0.0,0.0,0.0,1.0,0.0,0.0,0.0,1.0
1464167068774901398,586,1464167068771033649,,4.56213331223,-3.23333787918,-173.799209595,0.00104400003329,1.0,0.0,0.0,0.0,1.0,0.0,0.0,0.0,1.0,-0.426829278469,2.37804889679,1.03658533096,1.0,0.0,0.0,0.0,1.0,0.0,0.0,0.0,1.0,-0.0814028564453,-0.426167895508,10.2040874756,1.0,0.0,0.0,0.0,1.0,0.0,0.0,0.0,1.0
1464167068795608267,587,1464167068792398954,,4.56170272827,-3.24760603905,-173.757217407,0.00102600001264,1.0,0.0,0.0,0.0,1.0,0.0,0.0,0.0,1.0,-0.548780500889,1.2195122242,1.09756100178,1.0,0.0,0.0,0.0,1.0,0.0,0.0,0.0,1.0,-0.134075302102,-0.450109912109,10.2711251221,1.0,0.0,0.0,0.0,1.0,0.0,0.0,0.0,1.0
1464167068816436022,588,1464167068812911032,,4.54392766953,-3.25018286705,-173.714645386,0.00102500000503,1.0,0.0,0.0,0.0,1.0,0.0,0.0,0.0,1.0,0.12195122242,1.03658533096,1.03658533096,1.0,0.0,0.0,0.0,1.0,0.0,0.0,0.0,1.0,-0.0861912597656,-0.531512805087,10.4147772217,1.0,0.0,0.0,0.0,1.0,0.0,0.0,0.0,1.0
1464167068838784761,589,1464167068834064774,,4.52232837677,-3.24431204796,-173.675247192,0.0010300000431,1.0,0.0,0.0,0.0,1.0,0.0,0.0,0.0,1.0,0.243902444839,0.975609779358,0.548780500889,1.0,0.0,0.0,0.0,1.0,0.0,0.0,0.0,1.0,-0.00957680664062,-0.407014282227,10.2711251221,1.0,0.0,0.0,0.0,1.0,0.0,0.0,0.0,1.0
