%time,field.header.seq,field.header.stamp,field.header.frame_id,field.orientation.x,field.orientation.y,field.orientation.z,field.orientation.w,field.orientation_covariance0,field.orientation_covariance1,field.orientation_covariance2,field.orientation_covariance3,field.orientation_covariance4,field.orientation_covariance5,field.orientation_covariance6,field.orientation_covariance7,field.orientation_covariance8,field.angular_velocity.x,field.angular_velocity.y,field.angular_velocity.z,field.angular_velocity_covariance0,field.angular_velocity_covariance1,field.angular_velocity_covariance2,field.angular_velocity_covariance3,field.angular_velocity_covariance4,field.angular_velocity_covariance5,field.angular_velocity_covariance6,field.angular_velocity_covariance7,field.angular_velocity_covariance8,field.linear_acceleration.x,field.linear_acceleration.y,field.linear_acceleration.z,field.linear_acceleration_covariance0,field.linear_acceleration_covariance1,field.linear_acceleration_covariance2,field.linear_acceleration_covariance3,field.linear_acceleration_covariance4,field.linear_acceleration_covariance5,field.linear_acceleration_covariance6,field.linear_acceleration_covariance7,field.linear_acceleration_covariance8
1481903019500761822,447,1481903019206569178,,8.50664615631,-0.703138649464,149.748733521,0.00123199995141,1.0,0.0,0.0,0.0,1.0,0.0,0.0,0.0,1.0,-0.0609756112099,3.71951246262,-0.731707334518,1.0,0.0,0.0,0.0,1.0,0.0,0.0,0.0,1.0,-0.612915625,-0.105344873047,10.2471831055,1.0,0.0,0.0,0.0,1.0,0.0,0.0,0.0,1.0
1481903019500812447,448,1481903019228236884,,8.54197311401,-0.704022586346,149.725570679,0.00129399995785,1.0,0.0,0.0,0.0,1.0,0.0,0.0,0.0,1.0,-0.12195122242,3.17073178291,-0.548780500889,1.0,0.0,0.0,0.0,1.0,0.0,0.0,0.0,1.0,-0.651222851562,-0.239420166016,10.0795889893,1.0,0.0,0.0,0.0,1.0,0.0,0.0,0.0,1.0
1481903019500856614,449,1481903019249303028,,8.56378746033,-0.705596804619,149.70199585,0.00137600000016,1.0,0.0,0.0,0.0,1.0,0.0,0.0,0.0,1.0,-0.18292683363,2.13414645195,-0.243902444839,1.0,0.0,0.0,0.0,1.0,0.0,0.0,0.0,1.0,-0.861912597656,-0.191536132812,10.2471831055,1.0,0.0,0.0,0.0,1.0,0.0,0.0,0.0,1.0
1481903019500888020,450,1481903019271014067,,8.56392669678,-0.703796863556,149.68862915,0.00217500003055,1.0,0.0,0.0,0.0,1.0,0.0,0.0,0.0,1.0,0.0609756112099,1.8292683363,0.0609756112099,1.0,0.0,0.0,0.0,1.0,0.0,0.0,0.0,1.0,-0.670376464844,-0.0909796630859,10.1609918457,1.0,0.0,0.0,0.0,1.0,0.0,0.0,0.0,1.0
1481903019500957968,451,1481903019291791776,,8.54559230804,-0.700287044048,149.681365967,0.00153500004672,1.0,0.0,0.0,0.0,1.0,0.0,0.0,0.0,1.0,0.12195122242,1.40243899822,0.18292683363,1.0,0.0,0.0,0.0,1.0,0.0,0.0,0.0,1.0,-0.584185168546,-0.129286889648,10.1897222656,1.0,0.0,0.0,0.0,1.0,0.0,0.0,0.0,1.0
1481903019501028957,452,1481903019312881045,,8.51691627502,-0.692796766758,149.672897339,0.00102600001264,1.0,0.0,0.0,0.0,1.0,0.0,0.0,0.0,1.0,0.243902444839,1.2195122242,-0.0609756112099,1.0,0.0,0.0,0.0,1.0,0.0,0.0,0.0,1.0,-0.45489831543,-0.129286889648,10.0508585693,1.0,0.0,0.0,0.0,1.0,0.0,0.0,0.0,1.0
1481903019501077082,453,1481903019336385361,,8.4915933609,-0.689270555973,149.659698486,0.00122400000691,1.0,0.0,0.0,0.0,1.0,0.0,0.0,0.0,1.0,0.0609756112099,2.25609779358,-0.304878056049,1.0,0.0,0.0,0.0,1.0,0.0,0.0,0.0,1.0,-0.469263525391,-0.0430956298828,10.1131078125,1.0,0.0,0.0,0.0,1.0,0.0,0.0,0.0,1.0
1481903019501239686,454,1481903019356708435,,8.48028659821,-0.689143240452,149.63760376,0.00322400010191,1.0,0.0,0.0,0.0,1.0,0.0,0.0,0.0,1.0,-0.18292683363,2.37804889679,-0.853658556938,1.0,0.0,0.0,0.0,1.0,0.0,0.0,0.0,1.0,-0.61770402832,-0.0383072265625,10.1945106689,1.0,0.0,0.0,0.0,1.0,0.0,0.0,0.0,1.0
1481903019501295988,455,1481903019377713851,,8.4829492569,-0.692328810692,149.612075806,0.00133100000676,1.0,0.0,0.0,0.0,1.0,0.0,0.0,0.0,1.0,-0.12195122242,2.37804889679,-1.09756100178,1.0,0.0,0.0,0.0,1.0,0.0,0.0,0.0,1.0,-0.675164868164,-0.0239420166016,10.2280294922,1.0,0.0,0.0,0.0,1.0,0.0,0.0,0.0,1.0
1481903019501337029,456,1481903019398540048,,8.48979187012,-0.69420671463,149.593444824,0.0012450000504,1.0,0.0,0.0,0.0,1.0,0.0,0.0,0.0,1.0,0.0609756112099,2.13414645195,-0.548780500889,1.0,0.0,0.0,0.0,1.0,0.0,0.0,0.0,1.0,-0.713472094727,-0.129286889648,10.1178962158,1.0,0.0,0.0,0.0,1.0,0.0,0.0,0.0,1.0
1481903019501400571,457,1481903019420246452,,8.48395252228,-0.691667914391,149.580123901,0.00142400001641,1.0,0.0,0.0,0.0,1.0,0.0,0.0,0.0,1.0,-0.18292683363,1.64634156227,0.0,1.0,0.0,0.0,0.0,1.0,0.0,0.0,0.0,1.0,-0.622492431641,0.0383072265625,10.2471831055,1.0,0.0,0.0,0.0,1.0,0.0,0.0,0.0,1.0
1481903019501437706,458,1481903019441465930,,8.46359729767,-0.688739836216,149.569854736,0.00108099996578,1.0,0.0,0.0,0.0,1.0,0.0,0.0,0.0,1.0,-0.0609756112099,1.2195122242,0.12195122242,1.0,0.0,0.0,0.0,1.0,0.0,0.0,0.0,1.0,-0.584185168546,-0.191536132812,10.3573163818,1.0,0.0,0.0,0.0,1.0,0.0,0.0,0.0,1.0
1481903019501495362,459,1481903019462889209,,8.43886375427,-0.688288748264,149.555648804,0.00115499994718,1.0,0.0,0.0,0.0,1.0,0.0,0.0,0.0,1.0,0.0609756112099,1.40243899822,-0.243902444839,1.0,0.0,0.0,0.0,1.0,0.0,0.0,0.0,1.0,-0.61770402832,-0.067037651051,10.2376062988,1.0,0.0,0.0,0.0,1.0,0.0,0.0,0.0,1.0
1481903019501529581,460,1481903019484228010,,8.41617774963,-0.686154305935,149.541427612,0.00116099999286,1.0,0.0,0.0,0.0,1.0,0.0,0.0,0.0,1.0,0.12195122242,2.07317066193,-0.365853667259,1.0,0.0,0.0,0.0,1.0,0.0,0.0,0.0,1.0,-0.502782348633,-0.0430956298828,10.2615483154,1.0,0.0,0.0,0.0,1.0,0.0,0.0,0.0,1.0
1481903019508238158,461,1481903019505091343,,8.40412807465,-0.68348056078,149.523880005,0.00105700001586,1.0,0.0,0.0,0.0,1.0,0.0,0.0,0.0,1.0,-0.365853667259,1.76829278469,-0.426829278469,1.0,0.0,0.0,0.0,1.0,0.0,0.0,0.0,1.0,-0.483628735352,-0.119710083008,10.2423947021,1.0,0.0,0.0,0.0,1.0,0.0,0.0,0.0,1.0
1481903019527428265,462,1481903019525636916,,8.39878082275,-0.682839632034,149.505828857,0.000985000049695,1.0,0.0,0.0,0.0,1.0,0.0,0.0,0.0,1.0,-0.0609756112099,2.19512200356,-0.426829278469,1.0,0.0,0.0,0.0,1.0,0.0,0.0,0.0,1.0,-0.61770402832,-0.067037651051,10.3621047852,1.0,0.0,0.0,0.0,1.0,0.0,0.0,0.0,1.0
1481903019554061271,463,1481903019547050039,,8.40409946442,-0.682195305824,149.487533569,0.000983000034466,1.0,0.0,0.0,0.0,1.0,0.0,0.0,0.0,1.0,-0.243902444839,2.25609779358,-0.609756112099,1.0,0.0,0.0,0.0,1.0,0.0,0.0,0.0,1.0,-0.632069238281,-0.076614453125,10.2184526855,1.0,0.0,0.0,0.0,1.0,0.0,0.0,0.0,1.0
1481903019569916127,464,1481903019568090923,,8.40416049957,-0.684015452862,149.466888428,0.00104000000283,1.0,0.0,0.0,0.0,1.0,0.0,0.0,0.0,1.0,-0.18292683363,1.8292683363,-0.670731723309,1.0,0.0,0.0,0.0,1.0,0.0,0.0,0.0,1.0,-0.550666381836,-0.292092584273,10.0843773926,1.0,0.0,0.0,0.0,1.0,0.0,0.0,0.0,1.0
1481903019590801648,465,1481903019588952381,,8.39813327789,-0.683507978916,149.450439453,0.00101000000723,1.0,0.0,0.0,0.0,1.0,0.0,0.0,0.0,1.0,-0.12195122242,1.64634156227,-0.243902444839,1.0,0.0,0.0,0.0,1.0,0.0,0.0,0.0,1.0,-0.76614453125,-0.138863696289,10.2902787354,1.0,0.0,0.0,0.0,1.0,0.0,0.0,0.0,1.0
1481903019611545710,466,1481903019609619048,,8.38407421112,-0.681332886219,149.438430786,0.00106200005393,1.0,0.0,0.0,0.0,1.0,0.0,0.0,0.0,1.0,-0.18292683363,1.46341466904,0.304878056049,1.0,0.0,0.0,0.0,1.0,0.0,0.0,0.0,1.0,-0.780509741211,0.0335188255255,10.3573163818,1.0,0.0,0.0,0.0,1.0,0.0,0.0,0.0,1.0
1481903019632282533,467,1481903019630198215,,8.36335086823,-0.67885529995,149.426361084,0.000985000049695,1.0,0.0,0.0,0.0,1.0,0.0,0.0,0.0,1.0,0.304878056049,1.8292683363,0.18292683363,1.0,0.0,0.0,0.0,1.0,0.0,0.0,0.0,1.0,-0.636857641602,0.0718260498047,10.2280294922,1.0,0.0,0.0,0.0,1.0,0.0,0.0,0.0,1.0
1481903019653402896,468,1481903019650659882,,8.34371376038,-0.676216602325,149.416717529,0.0010890000267,1.0,0.0,0.0,0.0,1.0,0.0,0.0,0.0,1.0,-0.18292683363,2.43902444839,-0.12195122242,1.0,0.0,0.0,0.0,1.0,0.0,0.0,0.0,1.0,-0.46447512207,-0.138863696289,10.2807019287,1.0,0.0,0.0,0.0,1.0,0.0,0.0,0.0,1.0
1481903019673341752,469,1481903019671386392,,8.33648777008,-0.673188090324,149.40246582,0.000991999986582,1.0,0.0,0.0,0.0,1.0,0.0,0.0,0.0,1.0,-0.12195122242,3.47560977936,-0.365853667259,1.0,0.0,0.0,0.0,1.0,0.0,0.0,0.0,1.0,-0.397437475586,-0.148440512063,10.3429511719,1.0,0.0,0.0,0.0,1.0,0.0,0.0,0.0,1.0
1481903019696446017,470,1481903019692090195,,8.34993648529,-0.673283338547,149.380599976,0.00107600004412,1.0,0.0,0.0,0.0,1.0,0.0,0.0,0.0,1.0,-0.243902444839,4.39024400711,-0.792682945728,1.0,0.0,0.0,0.0,1.0,0.0,0.0,0.0,1.0,-0.450109912109,-0.201112939453,10.0317049561,1.0,0.0,0.0,0.0,1.0,0.0,0.0,0.0,1.0
1481903019714890345,471,1481903019712621028,,8.39379501343,-0.676838934422,149.359924316,0.00103699997999,1.0,0.0,0.0,0.0,1.0,0.0,0.0,0.0,1.0,-0.12195122242,5.36585378647,-0.731707334518,1.0,0.0,0.0,0.0,1.0,0.0,0.0,0.0,1.0,-0.531512805087,-0.15801730957,9.87368764648,1.0,0.0,0.0,0.0,1.0,0.0,0.0,0.0,1.0
1481903019741363248,472,1481903019735293627,,8.45608329773,-0.681485414505,149.332061768,0.00100100005511,1.0,0.0,0.0,0.0,1.0,0.0,0.0,0.0,1.0,-0.12195122242,5.48780488968,-1.2195122242,1.0,0.0,0.0,0.0,1.0,0.0,0.0,0.0,1.0,-0.699106884766,-0.110133276367,10.1274730225,1.0,0.0,0.0,0.0,1.0,0.0,0.0,0.0,1.0
1481903019759374660,473,1481903019756784511,,8.52655887604,-0.68234795332,149.297073364,0.000987999956124,1.0,0.0,0.0,0.0,1.0,0.0,0.0,0.0,1.0,-0.12195122242,4.20731735229,-1.09756100178,1.0,0.0,0.0,0.0,1.0,0.0,0.0,0.0,1.0,-0.938527050781,-0.0718260498047,10.0748005859,1.0,0.0,0.0,0.0,1.0,0.0,0.0,0.0,1.0
1481903019781863666,474,1481903019778100030,,8.58290576935,-0.688002884388,149.264297485,0.00267899991013,1.0,0.0,0.0,0.0,1.0,0.0,0.0,0.0,1.0,-0.12195122242,2.07317066193,-0.670731723309,1.0,0.0,0.0,0.0,1.0,0.0,0.0,0.0,1.0,-0.962469067383,-0.0430956298828,10.165780249,1.0,0.0,0.0,0.0,1.0,0.0,0.0,0.0,1.0
1481903019805962199,475,1481903019797941907,,8.59595584869,-0.686759352684,149.251220703,0.00331400008872,1.0,0.0,0.0,0.0,1.0,0.0,0.0,0.0,1.0,-0.0609756112099,1.2804877758,0.426829278469,1.0,0.0,0.0,0.0,1.0,0.0,0.0,0.0,1.0,-0.991199487305,-0.0574608398438,10.1897222656,1.0,0.0,0.0,0.0,1.0,0.0,0.0,0.0,1.0
1481903019822323564,476,1481903019820234820,,8.56820487976,-0.681339204311,149.254074097,0.00215699989349,1.0,0.0,0.0,0.0,1.0,0.0,0.0,0.0,1.0,0.0609756112099,0.304878056049,0.548780500889,1.0,0.0,0.0,0.0,1.0,0.0,0.0,0.0,1.0,-0.636857641602,0.0335188255255,10.1609918457,1.0,0.0,0.0,0.0,1.0,0.0,0.0,0.0,1.0
1481903019842808825,477,1481903019840897528,,8.51670074463,-0.670757353306,149.255065918,0.00104300002567,1.0,0.0,0.0,0.0,1.0,0.0,0.0,0.0,1.0,0.0609756112099,1.09756100178,0.426829278469,1.0,0.0,0.0,0.0,1.0,0.0,0.0,0.0,1.0,-0.368707055664,0.0,10.1131078125,1.0,0.0,0.0,0.0,1.0,0.0,0.0,0.0,1.0
1481903019863702054,478,1481903019861884038,,8.47598266602,-0.66507101059,149.250640869,0.00104100001045,1.0,0.0,0.0,0.0,1.0,0.0,0.0,0.0,1.0,-0.304878056049,3.47560977936,0.12195122242,1.0,0.0,0.0,0.0,1.0,0.0,0.0,0.0,1.0,-0.186747729492,-0.181959326172,10.2615483154,1.0,0.0,0.0,0.0,1.0,0.0,0.0,0.0,1.0
1481903019885239031,479,1481903019882969714,,8.47689151764,-0.663623332977,149.233398438,0.000982000026852,1.0,0.0,0.0,0.0,1.0,0.0,0.0,0.0,1.0,0.0609756112099,4.39024400711,-1.09756100178,1.0,0.0,0.0,0.0,1.0,0.0,0.0,0.0,1.0,-0.45968671875,-0.138863696289,10.1035310059,1.0,0.0,0.0,0.0,1.0,0.0,0.0,0.0,1.0
1481903019905738354,480,1481903019903770859,,8.51314163208,-0.674412369728,149.189880371,0.00097499997355,1.0,0.0,0.0,0.0,1.0,0.0,0.0,0.0,1.0,-0.12195122242,4.39024400711,-1.40243899822,1.0,0.0,0.0,0.0,1.0,0.0,0.0,0.0,1.0,-0.656011254883,-0.205901342773,10.1609918457,1.0,0.0,0.0,0.0,1.0,0.0,0.0,0.0,1.0
1481903019926463615,481,1481903019924341276,,8.57516765594,-0.68392676115,149.152267456,0.00098600005731,1.0,0.0,0.0,0.0,1.0,0.0,0.0,0.0,1.0,0.0609756112099,3.84146332741,-1.15853655338,1.0,0.0,0.0,0.0,1.0,0.0,0.0,0.0,1.0,-0.905008227539,-0.0814028564453,10.1418382324,1.0,0.0,0.0,0.0,1.0,0.0,0.0,0.0,1.0
1481903019947503249,482,1481903019945269244,,8.62838459015,-0.686971545219,149.121322632,0.00101899995934,1.0,0.0,0.0,0.0,1.0,0.0,0.0,0.0,1.0,0.12195122242,1.2195122242,-1.15853655338,1.0,0.0,0.0,0.0,1.0,0.0,0.0,0.0,1.0,-1.03908344744,-0.129286889648,10.2136642822,1.0,0.0,0.0,0.0,1.0,0.0,0.0,0.0,1.0
1481903019968406738,483,1481903019966525597,,8.62238693237,-0.682271182537,149.104278564,0.00106000003871,1.0,0.0,0.0,0.0,1.0,0.0,0.0,0.0,1.0,0.0,-0.731707334518,0.365853667259,1.0,0.0,0.0,0.0,1.0,0.0,0.0,0.0,1.0,-0.905008227539,0.0287304199219,10.2232410889,1.0,0.0,0.0,0.0,1.0,0.0,0.0,0.0,1.0
1481903019989675070,484,1481903019987612419,,8.5714225769,-0.676346957684,149.116210938,0.00129100005142,1.0,0.0,0.0,0.0,1.0,0.0,0.0,0.0,1.0,0.18292683363,-0.670731723309,1.15853655338,1.0,0.0,0.0,0.0,1.0,0.0,0.0,0.0,1.0,-0.502782348633,-0.0957680664062,10.180145459,1.0,0.0,0.0,0.0,1.0,0.0,0.0,0.0,1.0
1481903020012757252,485,1481903020008542731,,8.47902011871,-0.665717303753,149.13067627,0.00125800003298,1.0,0.0,0.0,0.0,1.0,0.0,0.0,0.0,1.0,-0.0609756112099,0.0,0.975609779358,1.0,0.0,0.0,0.0,1.0,0.0,0.0,0.0,1.0,-0.067037651051,-0.258573779297,10.1226846191,1.0,0.0,0.0,0.0,1.0,0.0,0.0,0.0,1.0
1481903020034140114,486,1481903020029962469,,8.41363143921,-0.660362422466,149.140151978,0.00107600004412,1.0,0.0,0.0,0.0,1.0,0.0,0.0,0.0,1.0,0.0,2.98780488968,0.609756112099,1.0,0.0,0.0,0.0,1.0,0.0,0.0,0.0,1.0,-0.272938989258,0.0239420166016,10.2950671387,1.0,0.0,0.0,0.0,1.0,0.0,0.0,0.0,1.0
1481903020058628907,487,1481903020050699396,,8.3913602829,-0.656180262566,149.117492676,0.00125700002536,1.0,0.0,0.0,0.0,1.0,0.0,0.0,0.0,1.0,-0.18292683363,4.20731735229,-1.34146344662,1.0,0.0,0.0,0.0,1.0,0.0,0.0,0.0,1.0,-0.373495458984,-0.119710083008,10.2567599121,1.0,0.0,0.0,0.0,1.0,0.0,0.0,0.0,1.0
1481903020078077608,488,1481903020071890019,,8.41347980499,-0.662502169609,149.074081421,0.00211600004695,1.0,0.0,0.0,0.0,1.0,0.0,0.0,0.0,1.0,-0.12195122242,5.42682933807,-1.2804877758,1.0,0.0,0.0,0.0,1.0,0.0,0.0,0.0,1.0,-0.555454785156,-0.148440512063,10.3764699951,1.0,0.0,0.0,0.0,1.0,0.0,0.0,0.0,1.0
1481903020096206937,489,1481903020093292934,,8.49128913879,-0.671472668648,149.039230347,0.00130200001877,1.0,0.0,0.0,0.0,1.0,0.0,0.0,0.0,1.0,-0.0609756112099,5.06097555161,-1.09756100178,1.0,0.0,0.0,0.0,1.0,0.0,0.0,0.0,1.0,-0.723048901367,-0.0861912597656,10.1370498291,1.0,0.0,0.0,0.0,1.0,0.0,0.0,0.0,1.0
1481903020117013864,490,1481903020114470641,,8.56388378143,-0.670783400536,149.009353638,0.00105900003109,1.0,0.0,0.0,0.0,1.0,0.0,0.0,0.0,1.0,-0.0609756112099,4.87804889679,-0.914634168148,1.0,0.0,0.0,0.0,1.0,0.0,0.0,0.0,1.0,-0.727837304687,-0.143652099609,10.4626612549,1.0,0.0,0.0,0.0,1.0,0.0,0.0,0.0,1.0
1481903020140704065,491,1481903020136241993,,8.62602615356,-0.674368560314,148.989761353,0.00162500003353,1.0,0.0,0.0,0.0,1.0,0.0,0.0,0.0,1.0,0.0,3.65853667259,-0.18292683363,1.0,0.0,0.0,0.0,1.0,0.0,0.0,0.0,1.0,-0.890643017578,-0.0861912597656,10.0748005859,1.0,0.0,0.0,0.0,1.0,0.0,0.0,0.0,1.0
1481903020161092920,492,1481903020157677095,,8.65595722198,-0.673828005791,148.977828979,0.00158699997701,1.0,0.0,0.0,0.0,1.0,0.0,0.0,0.0,1.0,0.18292683363,2.86585378647,0.12195122242,1.0,0.0,0.0,0.0,1.0,0.0,0.0,0.0,1.0,-0.742202514648,-0.0335188255255,10.2519715088,1.0,0.0,0.0,0.0,1.0,0.0,0.0,0.0,1.0
1481903020181660785,493,1481903020179090999,,8.66457557678,-0.673901796341,148.967407227,0.00207899999805,1.0,0.0,0.0,0.0,1.0,0.0,0.0,0.0,1.0,0.304878056049,2.01219511032,0.0,1.0,0.0,0.0,0.0,1.0,0.0,0.0,0.0,1.0,-0.732625708008,-0.177170922852,10.1897222656,1.0,0.0,0.0,0.0,1.0,0.0,0.0,0.0,1.0
1481903020204006405,494,1481903020201213496,,8.65146350861,-0.673613905907,148.952545166,0.00237199990079,1.0,0.0,0.0,0.0,1.0,0.0,0.0,0.0,1.0,-0.18292683363,2.01219511032,-0.304878056049,1.0,0.0,0.0,0.0,1.0,0.0,0.0,0.0,1.0,-0.593762048251,-0.076614453125,10.2759135254,1.0,0.0,0.0,0.0,1.0,0.0,0.0,0.0,1.0
1481903020225075519,495,1481903020221988860,,8.63927078247,-0.67576277256,148.933059692,0.00101000000723,1.0,0.0,0.0,0.0,1.0,0.0,0.0,0.0,1.0,-0.12195122242,1.64634156227,-0.548780500889,1.0,0.0,0.0,0.0,1.0,0.0,0.0,0.0,1.0,-0.550666381836,-0.0909796630859,10.1466266357,1.0,0.0,0.0,0.0,1.0,0.0,0.0,0.0,1.0
1481903020245731352,496,1481903020242974224,,8.62544631958,-0.675825595856,148.917739868,0.00100499996915,1.0,0.0,0.0,0.0,1.0,0.0,0.0,0.0,1.0,-0.0609756112099,2.01219511032,-0.426829278469,1.0,0.0,0.0,0.0,1.0,0.0,0.0,0.0,1.0,-0.708683691406,-0.0909796630859,10.1226846191,1.0,0.0,0.0,0.0,1.0,0.0,0.0,0.0,1.0
1481903020269852854,497,1481903020264805836,,8.61099529266,-0.677523314953,148.901504517,0.00166199996602,1.0,0.0,0.0,0.0,1.0,0.0,0.0,0.0,1.0,0.0,1.52439022064,-0.487804889679,1.0,0.0,0.0,0.0,1.0,0.0,0.0,0.0,1.0,-0.574608398438,-0.0574608398438,10.2184526855,1.0,0.0,0.0,0.0,1.0,0.0,0.0,0.0,1.0
1481903020288305151,498,1481903020285718543,,8.59429359436,-0.682599365711,148.878051758,0.0012150000548,1.0,0.0,0.0,0.0,1.0,0.0,0.0,0.0,1.0,-0.12195122242,1.09756100178,-0.426829278469,1.0,0.0,0.0,0.0,1.0,0.0,0.0,0.0,1.0,-0.670376464844,-0.0526724365234,10.180145459,1.0,0.0,0.0,0.0,1.0,0.0,0.0,0.0,1.0
1481903020309989888,499,1481903020306630418,,8.57525348663,-0.688158035278,148.854568481,0.0010969999712,1.0,0.0,0.0,0.0,1.0,0.0,0.0,0.0,1.0,0.0,0.731707334518,-0.18292683363,1.0,0.0,0.0,0.0,1.0,0.0,0.0,0.0,1.0,-0.76614453125,0.0335188255255,10.2328178955,1.0,0.0,0.0,0.0,1.0,0.0,0.0,0.0,1.0
1481903020329560412,500,1481903020327297761,,8.54133224487,-0.684497535229,148.839675903,0.0009710000013,1.0,0.0,0.0,0.0,1.0,0.0,0.0,0.0,1.0,0.0609756112099,-0.670731723309,-0.243902444839,1.0,0.0,0.0,0.0,1.0,0.0,0.0,0.0,1.0,-0.727837304687,-0.148440512063,10.2711251221,1.0,0.0,0.0,0.0,1.0,0.0,0.0,0.0,1.0
1481903020350199631,501,1481903020348037813,,8.47834205627,-0.680992841721,148.833374023,0.00099400000181,1.0,0.0,0.0,0.0,1.0,0.0,0.0,0.0,1.0,-0.18292683363,-0.975609779358,0.243902444839,1.0,0.0,0.0,0.0,1.0,0.0,0.0,0.0,1.0,-0.565031591797,-0.186747729492,10.0508585693,1.0,0.0,0.0,0.0,1.0,0.0,0.0,0.0,1.0
1481903020371002391,502,1481903020368556356,,8.40026092529,-0.674050807953,148.832580566,0.00100199994631,1.0,0.0,0.0,0.0,1.0,0.0,0.0,0.0,1.0,-0.0609756112099,-1.15853655338,0.0,1.0,0.0,0.0,0.0,1.0,0.0,0.0,0.0,1.0,-0.435744702148,-0.201112939453,10.2088758789,1.0,0.0,0.0,0.0,1.0,0.0,0.0,0.0,1.0
1481903020392321035,503,1481903020389649584,,8.31225299835,-0.670003056526,148.822982788,0.00118000002112,1.0,0.0,0.0,0.0,1.0,0.0,0.0,0.0,1.0,0.304878056049,-0.853658556938,-0.18292683363,1.0,0.0,0.0,0.0,1.0,0.0,0.0,0.0,1.0,-0.60812722168,0.0143652099609,10.2519715088,1.0,0.0,0.0,0.0,1.0,0.0,0.0,0.0,1.0
1481903020412426245,504,1481903020410015366,,8.23482227325,-0.66974490881,148.811965942,0.00147799996193,1.0,0.0,0.0,0.0,1.0,0.0,0.0,0.0,1.0,0.0,0.243902444839,0.304878056049,1.0,0.0,0.0,0.0,1.0,0.0,0.0,0.0,1.0,-0.483628735352,0.0287304199219,10.2519715088,1.0,0.0,0.0,0.0,1.0,0.0,0.0,0.0,1.0
1481903020436051550,505,1481903020431037031,,8.18124103546,-0.675744533539,148.798202515,0.00109300005715,1.0,0.0,0.0,0.0,1.0,0.0,0.0,0.0,1.0,-0.304878056049,1.76829278469,-0.487804889679,1.0,0.0,0.0,0.0,1.0,0.0,0.0,0.0,1.0,-0.296881024126,-0.215478149414,10.2280294922,1.0,0.0,0.0,0.0,1.0,0.0,0.0,0.0,1.0
1481903020456505457,506,1481903020452268853,,8.15510654449,-0.672444224358,148.782104492,0.00102800002787,1.0,0.0,0.0,0.0,1.0,0.0,0.0,0.0,1.0,0.0,2.19512200356,-0.792682945728,1.0,0.0,0.0,0.0,1.0,0.0,0.0,0.0,1.0,-0.416591088867,-0.0861912597656,10.0364933594,1.0,0.0,0.0,0.0,1.0,0.0,0.0,0.0,1.0
1481903020476737281,507,1481903020472850832,,8.15861797333,-0.675128400326,148.759460449,0.000981000019237,1.0,0.0,0.0,0.0,1.0,0.0,0.0,0.0,1.0,-0.304878056049,2.92682933807,-0.609756112099,1.0,0.0,0.0,0.0,1.0,0.0,0.0,0.0,1.0,-0.435744702148,-0.0526724365234,10.060435376,1.0,0.0,0.0,0.0,1.0,0.0,0.0,0.0,1.0
1481903020496782178,508,1481903020494040623,,8.17228317261,-0.676302611828,148.736999512,0.000967999978457,1.0,0.0,0.0,0.0,1.0,0.0,0.0,0.0,1.0,-0.12195122242,3.35365867615,-1.09756100178,1.0,0.0,0.0,0.0,1.0,0.0,0.0,0.0,1.0,-0.474051928711,-0.186747729492,10.4818148682,1.0,0.0,0.0,0.0,1.0,0.0,0.0,0.0,1.0
1481903020520015557,509,1481903020517072023,,8.19434070587,-0.681969881058,148.714019775,0.00106299994513,1.0,0.0,0.0,0.0,1.0,0.0,0.0,0.0,1.0,-0.548780500889,3.35365867615,-0.426829278469,1.0,0.0,0.0,0.0,1.0,0.0,0.0,0.0,1.0,-0.636857641602,-0.181959326172,10.2471831055,1.0,0.0,0.0,0.0,1.0,0.0,0.0,0.0,1.0
1481903020542293939,510,1481903020537769679,,8.2162322998,-0.681667506695,148.693695068,0.00239700009115,1.0,0.0,0.0,0.0,1.0,0.0,0.0,0.0,1.0,0.0609756112099,2.68292689323,-0.426829278469,1.0,0.0,0.0,0.0,1.0,0.0,0.0,0.0,1.0,-0.713472094727,-0.0383072265625,10.2759135254,1.0,0.0,0.0,0.0,1.0,0.0,0.0,0.0,1.0
1481903020560129831,511,1481903020557932441,,8.23016738892,-0.681731760502,148.677734375,0.00118200003635,1.0,0.0,0.0,0.0,1.0,0.0,0.0,0.0,1.0,-0.12195122242,2.74390244484,-0.426829278469,1.0,0.0,0.0,0.0,1.0,0.0,0.0,0.0,1.0,-0.651222851562,-0.00478840332031,10.2567599121,1.0,0.0,0.0,0.0,1.0,0.0,0.0,0.0,1.0
1481903020581590767,512,1481903020579108065,,8.23638725281,-0.683162927628,148.66027832,0.00124200002756,1.0,0.0,0.0,0.0,1.0,0.0,0.0,0.0,1.0,-0.0609756112099,1.95121955872,-0.365853667259,1.0,0.0,0.0,0.0,1.0,0.0,0.0,0.0,1.0,-0.60812722168,-0.114921679688,10.2040874756,1.0,0.0,0.0,0.0,1.0,0.0,0.0,0.0,1.0
1481903020602259100,513,1481903020600076397,,8.23200416565,-0.682000339031,148.646102905,0.00119199999608,1.0,0.0,0.0,0.0,1.0,0.0,0.0,0.0,1.0,0.0,1.8902438879,-0.12195122242,1.0,0.0,0.0,0.0,1.0,0.0,0.0,0.0,1.0,-0.555454785156,-0.0526724365234,10.2615483154,1.0,0.0,0.0,0.0,1.0,0.0,0.0,0.0,1.0
1481903020623298006,514,1481903020620884105,,8.22043323517,-0.680376946926,148.631820679,0.00106799998321,1.0,0.0,0.0,0.0,1.0,0.0,0.0,0.0,1.0,0.0609756112099,1.76829278469,-0.426829278469,1.0,0.0,0.0,0.0,1.0,0.0,0.0,0.0,1.0,-0.593762048251,-0.129286889648,10.2040874756,1.0,0.0,0.0,0.0,1.0,0.0,0.0,0.0,1.0
1481903020643684465,515,1481903020641625824,,8.20275115967,-0.681974351406,148.615036011,0.000996000017039,1.0,0.0,0.0,0.0,1.0,0.0,0.0,0.0,1.0,-0.0609756112099,1.34146344662,-0.426829278469,1.0,0.0,0.0,0.0,1.0,0.0,0.0,0.0,1.0,-0.565031591797,-0.124498486328,10.1131078125,1.0,0.0,0.0,0.0,1.0,0.0,0.0,0.0,1.0
1481903020665587795,516,1481903020662563844,,8.18087100983,-0.683867990971,148.596069336,0.00103599997237,1.0,0.0,0.0,0.0,1.0,0.0,0.0,0.0,1.0,-0.0609756112099,0.670731723309,-0.487804889679,1.0,0.0,0.0,0.0,1.0,0.0,0.0,0.0,1.0,-0.636857641602,-0.114921679688,10.2711251221,1.0,0.0,0.0,0.0,1.0,0.0,0.0,0.0,1.0
1481903020686652950,517,1481903020683646552,,8.14916038513,-0.684207439423,148.57510376,0.00122099998407,1.0,0.0,0.0,0.0,1.0,0.0,0.0,0.0,1.0,0.0,-0.18292683363,-0.731707334518,1.0,0.0,0.0,0.0,1.0,0.0,0.0,0.0,1.0,-0.627280834961,-0.143652099609,10.1609918457,1.0,0.0,0.0,0.0,1.0,0.0,0.0,0.0,1.0
1481903020708776957,518,1481903020704559311,,8.10299682617,-0.682325661182,148.560150146,0.00113500002772,1.0,0.0,0.0,0.0,1.0,0.0,0.0,0.0,1.0,0.0609756112099,-1.03658533096,-0.12195122242,1.0,0.0,0.0,0.0,1.0,0.0,0.0,0.0,1.0,-0.684741674805,-0.0814028564453,10.2519715088,1.0,0.0,0.0,0.0,1.0,0.0,0.0,0.0,1.0
1481903020730130289,519,1481903020725890299,,8.03879737854,-0.680280923843,148.54927063,0.00137900002301,1.0,0.0,0.0,0.0,1.0,0.0,0.0,0.0,1.0,0.0,-1.95121955872,0.243902444839,1.0,0.0,0.0,0.0,1.0,0.0,0.0,0.0,1.0,-0.679953271484,-0.00478840332031,10.0843773926,1.0,0.0,0.0,0.0,1.0,0.0,0.0,0.0,1.0
1481903020750621800,520,1481903020746196082,,7.94897890091,-0.677824497223,148.546554565,0.00119099998847,1.0,0.0,0.0,0.0,1.0,0.0,0.0,0.0,1.0,-0.12195122242,-1.8902438879,0.548780500889,1.0,0.0,0.0,0.0,1.0,0.0,0.0,0.0,1.0,-0.440533105469,0.00478840332031,10.2807019287,1.0,0.0,0.0,0.0,1.0,0.0,0.0,0.0,1.0
1481903020772826275,521,1481903020767168685,,7.84725236893,-0.673701882362,148.540130615,0.0012229999993,1.0,0.0,0.0,0.0,1.0,0.0,0.0,0.0,1.0,-0.243902444839,-2.07317066193,-0.304878056049,1.0,0.0,0.0,0.0,1.0,0.0,0.0,0.0,1.0,-0.320823022461,-0.119710083008,10.3764699951,1.0,0.0,0.0,0.0,1.0,0.0,0.0,0.0,1.0
1481903020792271903,522,1481903020788463267,,7.74928760529,-0.669300019741,148.534118652,0.00120399997104,1.0,0.0,0.0,0.0,1.0,0.0,0.0,0.0,1.0,0.0,-0.18292683363,-0.0609756112099,1.0,0.0,0.0,0.0,1.0,0.0,0.0,0.0,1.0,-0.15322890625,-0.272938989258,10.2423947021,1.0,0.0,0.0,0.0,1.0,0.0,0.0,0.0,1.0
1481903020812874612,523,1481903020809040090,,7.68233633041,-0.667066514492,148.527832031,0.000980000011623,1.0,0.0,0.0,0.0,1.0,0.0,0.0,0.0,1.0,-0.0609756112099,1.2804877758,-0.12195122242,1.0,0.0,0.0,0.0,1.0,0.0,0.0,0.0,1.0,-0.205901342773,-0.15322890625,10.3716815918,1.0,0.0,0.0,0.0,1.0,0.0,0.0,0.0,1.0
1481903020835016535,524,1481903020830692431,,7.64099121094,-0.671902060509,148.507415771,0.00155399995856,1.0,0.0,0.0,0.0,1.0,0.0,0.0,0.0,1.0,0.0609756112099,2.19512200356,-0.853658556938,1.0,0.0,0.0,0.0,1.0,0.0,0.0,0.0,1.0,-0.416591088867,-0.143652099609,10.2471831055,1.0,0.0,0.0,0.0,1.0,0.0,0.0,0.0,1.0
1481903020854440549,525,1481903020852406335,,7.62967681885,-0.676935732365,148.476989746,0.00143199996091,1.0,0.0,0.0,0.0,1.0,0.0,0.0,0.0,1.0,0.18292683363,3.29268312454,-0.792682945728,1.0,0.0,0.0,0.0,1.0,0.0,0.0,0.0,1.0,-0.440533105469,-0.105344873047,10.0891657959,1.0,0.0,0.0,0.0,1.0,0.0,0.0,0.0,1.0
1481903020877084137,526,1481903020872714721,,7.64910364151,-0.673869550228,148.457595825,0.0010300000431,1.0,0.0,0.0,0.0,1.0,0.0,0.0,0.0,1.0,0.18292683363,3.53658556938,-0.426829278469,1.0,0.0,0.0,0.0,1.0,0.0,0.0,0.0,1.0,-0.493205541992,-0.134075302102,10.0221281494,1.0,0.0,0.0,0.0,1.0,0.0,0.0,0.0,1.0
1481903020901129962,527,1481903020894893988,,7.67580270767,-0.670640528202,148.442398071,0.00104100001045,1.0,0.0,0.0,0.0,1.0,0.0,0.0,0.0,1.0,0.0,3.7804877758,-0.365853667259,1.0,0.0,0.0,0.0,1.0,0.0,0.0,0.0,1.0,-0.359130249023,-0.105344873047,10.1609918457,1.0,0.0,0.0,0.0,1.0,0.0,0.0,0.0,1.0
1481903020922250586,528,1481903020916831693,,7.70677471161,-0.668235719204,148.421020508,0.0026380000636,1.0,0.0,0.0,0.0,1.0,0.0,0.0,0.0,1.0,-0.12195122242,3.71951246262,-0.548780500889,1.0,0.0,0.0,0.0,1.0,0.0,0.0,0.0,1.0,-0.493205541992,-0.0287304199219,10.1322614258,1.0,0.0,0.0,0.0,1.0,0.0,0.0,0.0,1.0
1481903020941882307,529,1481903020937680860,,7.73670530319,-0.665497541428,148.396606445,0.00301000010222,1.0,0.0,0.0,0.0,1.0,0.0,0.0,0.0,1.0,0.0609756112099,3.47560977936,-0.304878056049,1.0,0.0,0.0,0.0,1.0,0.0,0.0,0.0,1.0,-0.699106884766,-0.00478840332031,10.2040874756,1.0,0.0,0.0,0.0,1.0,0.0,0.0,0.0,1.0
1481903020962169548,530,1481903020958897785,,7.76885604858,-0.666388452053,148.37902832,0.00165200000629,1.0,0.0,0.0,0.0,1.0,0.0,0.0,0.0,1.0,-0.0609756112099,2.86585378647,-0.304878056049,1.0,0.0,0.0,0.0,1.0,0.0,0.0,0.0,1.0,-0.603338854892,-0.148440512063,10.2232410889,1.0,0.0,0.0,0.0,1.0,0.0,0.0,0.0,1.0
1481903020982604288,531,1481903020979833097,,7.78244066238,-0.664864063263,148.363082886,0.0024389999453,1.0,0.0,0.0,0.0,1.0,0.0,0.0,0.0,1.0,0.12195122242,2.07317066193,-0.548780500889,1.0,0.0,0.0,0.0,1.0,0.0,0.0,0.0,1.0,-0.646434448242,-0.0478840332031,10.2950671387,1.0,0.0,0.0,0.0,1.0,0.0,0.0,0.0,1.0
1481903021003848245,532,1481903021000257265,,7.78306865692,-0.665598869324,148.345504761,0.00151099998038,1.0,0.0,0.0,0.0,1.0,0.0,0.0,0.0,1.0,-0.243902444839,1.09756100178,-0.487804889679,1.0,0.0,0.0,0.0,1.0,0.0,0.0,0.0,1.0,-0.718260498047,-0.105344873047,10.2615483154,1.0,0.0,0.0,0.0,1.0,0.0,0.0,0.0,1.0
1481903021024148871,533,1481903021021621690,,7.75930261612,-0.666392445564,148.332824707,0.00116800004616,1.0,0.0,0.0,0.0,1.0,0.0,0.0,0.0,1.0,-0.12195122242,0.792682945728,0.0,1.0,0.0,0.0,0.0,1.0,0.0,0.0,0.0,1.0,-0.526724328702,-0.0957680664062,10.0795889893,1.0,0.0,0.0,0.0,1.0,0.0,0.0,0.0,1.0
1481903021046928189,534,1481903021043192469,,7.72340202332,-0.663987100124,148.324020386,0.00127200002316,1.0,0.0,0.0,0.0,1.0,0.0,0.0,0.0,1.0,0.12195122242,0.609756112099,-0.243902444839,1.0,0.0,0.0,0.0,1.0,0.0,0.0,0.0,1.0,-0.512359155273,-0.143652099609,10.165780249,1.0,0.0,0.0,0.0,1.0,0.0,0.0,0.0,1.0
1481903021068676207,535,1481903021064738456,,7.67564868927,-0.663705229759,148.310714722,0.00109599996358,1.0,0.0,0.0,0.0,1.0,0.0,0.0,0.0,1.0,-0.18292683363,0.670731723309,-0.12195122242,1.0,0.0,0.0,0.0,1.0,0.0,0.0,0.0,1.0,-0.335188232422,-0.0478840332031,10.2040874756,1.0,0.0,0.0,0.0,1.0,0.0,0.0,0.0,1.0
1481903021090672297,536,1481903021085746581,,7.63938999176,-0.664247214794,148.297790527,0.00122800003737,1.0,0.0,0.0,0.0,1.0,0.0,0.0,0.0,1.0,-0.0609756112099,1.2195122242,-0.304878056049,1.0,0.0,0.0,0.0,1.0,0.0,0.0,0.0,1.0,-0.387860668945,-0.0574608398438,10.2040874756,1.0,0.0,0.0,0.0,1.0,0.0,0.0,0.0,1.0
1481903021108753189,537,1481903021106328612,,7.61302709579,-0.661397993565,148.281463623,0.00165400002152,1.0,0.0,0.0,0.0,1.0,0.0,0.0,0.0,1.0,-0.12195122242,1.2195122242,-0.609756112099,1.0,0.0,0.0,0.0,1.0,0.0,0.0,0.0,1.0,-0.344765039063,-0.0335188255255,10.1418382324,1.0,0.0,0.0,0.0,1.0,0.0,0.0,0.0,1.0
1481903021129610064,538,1481903021127489705,,7.59074211121,-0.66091811657,148.261749268,0.00100599997677,1.0,0.0,0.0,0.0,1.0,0.0,0.0,0.0,1.0,-0.0609756112099,2.13414645195,-0.609756112099,1.0,0.0,0.0,0.0,1.0,0.0,0.0,0.0,1.0,-0.354341845703,-0.186747729492,10.2184526855,1.0,0.0,0.0,0.0,1.0,0.0,0.0,0.0,1.0
1481903021150388553,539,1481903021148690432,,7.58188962936,-0.660364925861,148.244873047,0.00121999997646,1.0,0.0,0.0,0.0,1.0,0.0,0.0,0.0,1.0,-0.304878056049,1.8292683363,-0.670731723309,1.0,0.0,0.0,0.0,1.0,0.0,0.0,0.0,1.0,-0.483628735352,-0.181959326172,10.2950671387,1.0,0.0,0.0,0.0,1.0,0.0,0.0,0.0,1.0
1481903021172881569,540,1481903021169335068,,7.57069444656,-0.657018065453,148.22807312,0.00119600002654,1.0,0.0,0.0,0.0,1.0,0.0,0.0,0.0,1.0,-0.12195122242,1.8902438879,-0.0609756112099,1.0,0.0,0.0,0.0,1.0,0.0,0.0,0.0,1.0,-0.593762048251,0.0287304199219,10.3094323486,1.0,0.0,0.0,0.0,1.0,0.0,0.0,0.0,1.0
1481903021193060425,541,1481903021190375119,,7.56161594391,-0.65453928709,148.210952759,0.00122099998407,1.0,0.0,0.0,0.0,1.0,0.0,0.0,0.0,1.0,0.0,1.40243899822,-0.243902444839,1.0,0.0,0.0,0.0,1.0,0.0,0.0,0.0,1.0,-0.593762048251,0.0143652099609,10.0843773926,1.0,0.0,0.0,0.0,1.0,0.0,0.0,0.0,1.0
1481903021216827136,542,1481903021210839703,,7.54446935654,-0.651351988316,148.199539185,0.000983000034466,1.0,0.0,0.0,0.0,1.0,0.0,0.0,0.0,1.0,0.0,1.8902438879,-0.304878056049,1.0,0.0,0.0,0.0,1.0,0.0,0.0,0.0,1.0,-0.488417138672,-0.134075302102,10.1753570557,1.0,0.0,0.0,0.0,1.0,0.0,0.0,0.0,1.0
1481903021237309168,543,1481903021231999441,,7.52540397644,-0.650965452194,148.186965942,0.00102500000503,1.0,0.0,0.0,0.0,1.0,0.0,0.0,0.0,1.0,0.0609756112099,1.58536589146,-0.548780500889,1.0,0.0,0.0,0.0,1.0,0.0,0.0,0.0,1.0,-0.402225878906,-0.076614453125,10.2615483154,1.0,0.0,0.0,0.0,1.0,0.0,0.0,0.0,1.0
1481903021259135415,544,1481903021252714493,,7.50843286514,-0.648476541042,148.170532227,0.00101400003769,1.0,0.0,0.0,0.0,1.0,0.0,0.0,0.0,1.0,-0.0609756112099,1.95121955872,-0.243902444839,1.0,0.0,0.0,0.0,1.0,0.0,0.0,0.0,1.0,-0.416591088867,-0.0718260498047,10.1178962158,1.0,0.0,0.0,0.0,1.0,0.0,0.0,0.0,1.0
1481903021276549329,545,1481903021273081265,,7.49689674377,-0.646267294884,148.156646729,0.000982000026852,1.0,0.0,0.0,0.0,1.0,0.0,0.0,0.0,1.0,0.12195122242,2.19512200356,-0.18292683363,1.0,0.0,0.0,0.0,1.0,0.0,0.0,0.0,1.0,-0.31124621582,-0.0430956298828,10.0652237793,1.0,0.0,0.0,0.0,1.0,0.0,0.0,0.0,1.0
1481903021296961674,546,1481903021293892411,,7.49103593826,-0.643293678761,148.140106201,0.000973000016529,1.0,0.0,0.0,0.0,1.0,0.0,0.0,0.0,1.0,0.243902444839,2.31707310677,-0.365853667259,1.0,0.0,0.0,0.0,1.0,0.0,0.0,0.0,1.0,-0.277727392578,-0.15801730957,10.3381627686,1.0,0.0,0.0,0.0,1.0,0.0,0.0,0.0,1.0
1481903021322498849,547,1481903021314903503,,7.49069356918,-0.647169113159,148.120346069,0.0010229999898,1.0,0.0,0.0,0.0,1.0,0.0,0.0,0.0,1.0,-0.12195122242,2.56097555161,-0.670731723309,1.0,0.0,0.0,0.0,1.0,0.0,0.0,0.0,1.0,-0.435744702148,-0.105344873047,10.1514150391,1.0,0.0,0.0,0.0,1.0,0.0,0.0,0.0,1.0
1481903021344191346,548,1481903021335680743,,7.49854230881,-0.647222340107,148.101531982,0.00106200005393,1.0,0.0,0.0,0.0,1.0,0.0,0.0,0.0,1.0,0.18292683363,3.04878044128,-0.0609756112099,1.0,0.0,0.0,0.0,1.0,0.0,0.0,0.0,1.0,-0.411802685547,-0.0909796630859,10.1370498291,1.0,0.0,0.0,0.0,1.0,0.0,0.0,0.0,1.0
1481903021362395936,549,1481903021357775323,,7.50823831558,-0.641350388527,148.093505859,0.00124699994922,1.0,0.0,0.0,0.0,1.0,0.0,0.0,0.0,1.0,-0.0609756112099,3.84146332741,0.12195122242,1.0,0.0,0.0,0.0,1.0,0.0,0.0,0.0,1.0,-0.368707055664,0.0,10.2232410889,1.0,0.0,0.0,0.0,1.0,0.0,0.0,0.0,1.0
1481903021381856981,550,1481903021378267146,,7.52358675003,-0.634618520737,148.082138062,0.00147699995432,1.0,0.0,0.0,0.0,1.0,0.0,0.0,0.0,1.0,0.12195122242,4.08536577225,-0.243902444839,1.0,0.0,0.0,0.0,1.0,0.0,0.0,0.0,1.0,-0.354341845703,-0.119710083008,10.3477395752,1.0,0.0,0.0,0.0,1.0,0.0,0.0,0.0,1.0
1481903021402340054,551,1481903021398214283,,7.55431079865,-0.635653436184,148.056945801,0.00201399996877,1.0,0.0,0.0,0.0,1.0,0.0,0.0,0.0,1.0,-0.365853667259,4.45121955872,-0.853658556938,1.0,0.0,0.0,0.0,1.0,0.0,0.0,0.0,1.0,-0.387860668945,-0.114921679688,10.2711251221,1.0,0.0,0.0,0.0,1.0,0.0,0.0,0.0,1.0
1481903021422883388,552,1481903021419290376,,7.60227537155,-0.644779860973,148.022674561,0.00226300000213,1.0,0.0,0.0,0.0,1.0,0.0,0.0,0.0,1.0,-0.365853667259,4.51219558716,-1.03658533096,1.0,0.0,0.0,0.0,1.0,0.0,0.0,0.0,1.0,-0.560243188477,-0.201112939453,10.0939541992,1.0,0.0,0.0,0.0,1.0,0.0,0.0,0.0,1.0
1481903021443034535,553,1481903021440014126,,7.65913772583,-0.645146727562,147.997238159,0.00136899994686,1.0,0.0,0.0,0.0,1.0,0.0,0.0,0.0,1.0,-0.12195122242,3.90243911743,-0.243902444839,1.0,0.0,0.0,0.0,1.0,0.0,0.0,0.0,1.0,-0.622492431641,-0.0478840332031,10.2232410889,1.0,0.0,0.0,0.0,1.0,0.0,0.0,0.0,1.0
1481903021464759168,554,1481903021461016417,,7.70081710815,-0.638515114784,147.98336792,0.00130600004923,1.0,0.0,0.0,0.0,1.0,0.0,0.0,0.0,1.0,0.0609756112099,3.10975623131,-0.365853667259,1.0,0.0,0.0,0.0,1.0,0.0,0.0,0.0,1.0,-0.636857641602,0.0478840332031,10.3429511719,1.0,0.0,0.0,0.0,1.0,0.0,0.0,0.0,1.0
1481903021485652188,555,1481903021482660008,,7.71473884583,-0.633623719215,147.974380493,0.00136500003282,1.0,0.0,0.0,0.0,1.0,0.0,0.0,0.0,1.0,-0.18292683363,2.5,-0.18292683363,1.0,0.0,0.0,0.0,1.0,0.0,0.0,0.0,1.0,-0.593762048251,-0.124498486328,10.1705686523,1.0,0.0,0.0,0.0,1.0,0.0,0.0,0.0,1.0
1481903021512175038,556,1481903021503195008,,7.71272039413,-0.635728478432,147.966384888,0.00106299994513,1.0,0.0,0.0,0.0,1.0,0.0,0.0,0.0,1.0,0.18292683363,2.56097555161,0.0609756112099,1.0,0.0,0.0,0.0,1.0,0.0,0.0,0.0,1.0,-0.378283862305,-0.0718260498047,10.2184526855,1.0,0.0,0.0,0.0,1.0,0.0,0.0,0.0,1.0
1481903021526679741,557,1481903021524154956,,7.7047290802,-0.636869907379,147.951019287,0.000975999981165,1.0,0.0,0.0,0.0,1.0,0.0,0.0,0.0,1.0,0.12195122242,2.5,-0.18292683363,1.0,0.0,0.0,0.0,1.0,0.0,0.0,0.0,1.0,-0.339976635742,-0.0718260498047,10.180145459,1.0,0.0,0.0,0.0,1.0,0.0,0.0,0.0,1.0
1481903021548654634,558,1481903021545391569,,7.70880365372,-0.639366209507,147.928649902,0.000988999963738,1.0,0.0,0.0,0.0,1.0,0.0,0.0,0.0,1.0,-0.18292683363,2.92682933807,-0.609756112099,1.0,0.0,0.0,0.0,1.0,0.0,0.0,0.0,1.0,-0.349553442383,-0.110133276367,10.1992990723,1.0,0.0,0.0,0.0,1.0,0.0,0.0,0.0,1.0
1481903021568552656,559,1481903021565838653,,7.72067451477,-0.642488598824,147.903167725,0.000975999981165,1.0,0.0,0.0,0.0,1.0,0.0,0.0,0.0,1.0,-0.12195122242,2.74390244484,-0.975609779358,1.0,0.0,0.0,0.0,1.0,0.0,0.0,0.0,1.0,-0.440533105469,-0.105344873047,10.2471831055,1.0,0.0,0.0,0.0,1.0,0.0,0.0,0.0,1.0
1481903021591064891,560,1481903021586877558,,7.74276781082,-0.640187561512,147.880584717,0.000986999948509,1.0,0.0,0.0,0.0,1.0,0.0,0.0,0.0,1.0,0.0,2.68292689323,-0.243902444839,1.0,0.0,0.0,0.0,1.0,0.0,0.0,0.0,1.0,-0.46447512207,-0.076614453125,10.3429511719,1.0,0.0,0.0,0.0,1.0,0.0,0.0,0.0,1.0
1481903021611819266,561,1481903021608400577,,7.75459527969,-0.638259887695,147.863708496,0.00110800005496,1.0,0.0,0.0,0.0,1.0,0.0,0.0,0.0,1.0,-0.243902444839,2.13414645195,-0.365853667259,1.0,0.0,0.0,0.0,1.0,0.0,0.0,0.0,1.0,-0.569819995117,-0.15801730957,10.2136642822,1.0,0.0,0.0,0.0,1.0,0.0,0.0,0.0,1.0
1481903021631809112,562,1481903021629404691,,7.75140190125,-0.639037907124,147.848846436,0.00100699998438,1.0,0.0,0.0,0.0,1.0,0.0,0.0,0.0,1.0,-0.18292683363,1.2195122242,-0.18292683363,1.0,0.0,0.0,0.0,1.0,0.0,0.0,0.0,1.0,-0.732625708008,0.0239420166016,10.1945106689,1.0,0.0,0.0,0.0,1.0,0.0,0.0,0.0,1.0
1481903021656049415,563,1481903021650500210,,7.73203468323,-0.636213362217,147.835723877,0.00147000001743,1.0,0.0,0.0,0.0,1.0,0.0,0.0,0.0,1.0,0.0,0.914634168148,-0.0609756112099,1.0,0.0,0.0,0.0,1.0,0.0,0.0,0.0,1.0,-0.689530078125,-0.0335188255255,10.2184526855,1.0,0.0,0.0,0.0,1.0,0.0,0.0,0.0,1.0
1481903021676822227,564,1481903021671277971,,7.69749403,-0.634483456612,147.824691772,0.00122199999169,1.0,0.0,0.0,0.0,1.0,0.0,0.0,0.0,1.0,0.0609756112099,0.731707334518,-0.243902444839,1.0,0.0,0.0,0.0,1.0,0.0,0.0,0.0,1.0,-0.45489831543,-0.134075302102,10.2423947021,1.0,0.0,0.0,0.0,1.0,0.0,0.0,0.0,1.0
1481903021697199832,565,1481903021691548649,,7.66012573242,-0.634657502174,147.812332153,0.0011269999668,1.0,0.0,0.0,0.0,1.0,0.0,0.0,0.0,1.0,-0.12195122242,0.731707334518,-0.304878056049,1.0,0.0,0.0,0.0,1.0,0.0,0.0,0.0,1.0,-0.445321508789,-0.162805712891,10.3046439453,1.0,0.0,0.0,0.0,1.0,0.0,0.0,0.0,1.0
1481903021717740666,566,1481903021712537085,,7.62359523773,-0.631260931492,147.80128479,0.00116400001571,1.0,0.0,0.0,0.0,1.0,0.0,0.0,0.0,1.0,0.18292683363,1.34146344662,-0.12195122242,1.0,0.0,0.0,0.0,1.0,0.0,0.0,0.0,1.0,-0.46447512207,-0.0718260498047,10.1226846191,1.0,0.0,0.0,0.0,1.0,0.0,0.0,0.0,1.0
1481903021738009105,567,1481903021733119221,,7.5926861763,-0.630267083645,147.786010742,0.00109899998643,1.0,0.0,0.0,0.0,1.0,0.0,0.0,0.0,1.0,0.0609756112099,1.64634156227,-0.365853667259,1.0,0.0,0.0,0.0,1.0,0.0,0.0,0.0,1.0,-0.335188232422,-0.114921679688,10.1370498291,1.0,0.0,0.0,0.0,1.0,0.0,0.0,0.0,1.0
1481903021760280142,568,1481903021754386668,,7.5722284317,-0.627022743225,147.768920898,0.00117299996782,1.0,0.0,0.0,0.0,1.0,0.0,0.0,0.0,1.0,0.243902444839,2.13414645195,-0.365853667259,1.0,0.0,0.0,0.0,1.0,0.0,0.0,0.0,1.0,-0.229843359375,-0.067037651051,10.3429511719,1.0,0.0,0.0,0.0,1.0,0.0,0.0,0.0,1.0
1481903021779117491,569,1481903021775629739,,7.56572341919,-0.626926481724,147.75189209,0.00110100000165,1.0,0.0,0.0,0.0,1.0,0.0,0.0,0.0,1.0,-0.365853667259,2.98780488968,-0.243902444839,1.0,0.0,0.0,0.0,1.0,0.0,0.0,0.0,1.0,-0.445321508789,-0.0861912597656,10.1418382324,1.0,0.0,0.0,0.0,1.0,0.0,0.0,0.0,1.0
1481903021799515252,570,1481903021796768019,,7.57304620743,-0.632368922234,147.733840942,0.00114099995699,1.0,0.0,0.0,0.0,1.0,0.0,0.0,0.0,1.0,-0.243902444839,2.98780488968,-0.609756112099,1.0,0.0,0.0,0.0,1.0,0.0,0.0,0.0,1.0,-0.368707055664,-0.110133276367,10.2280294922,1.0,0.0,0.0,0.0,1.0,0.0,0.0,0.0,1.0
1481903021820717542,571,1481903021818226194,,7.58922719955,-0.634701550007,147.712356567,0.00129899999592,1.0,0.0,0.0,0.0,1.0,0.0,0.0,0.0,1.0,0.0,3.65853667259,-0.487804889679,1.0,0.0,0.0,0.0,1.0,0.0,0.0,0.0,1.0,-0.502782348633,-0.119710083008,10.2136642822,1.0,0.0,0.0,0.0,1.0,0.0,0.0,0.0,1.0
1481903021843413214,572,1481903021840096400,,7.60922145844,-0.636249780655,147.69468689,0.00214400002733,1.0,0.0,0.0,0.0,1.0,0.0,0.0,0.0,1.0,-0.426829278469,3.41463422775,-0.304878056049,1.0,0.0,0.0,0.0,1.0,0.0,0.0,0.0,1.0,-0.440533105469,-0.0622492431641,10.2280294922,1.0,0.0,0.0,0.0,1.0,0.0,0.0,0.0,1.0
1481903021865038316,573,1481903021860453328,,7.6324057579,-0.634808003902,147.678009033,0.0011340000201,1.0,0.0,0.0,0.0,1.0,0.0,0.0,0.0,1.0,0.0,3.7804877758,-0.487804889679,1.0,0.0,0.0,0.0,1.0,0.0,0.0,0.0,1.0,-0.430956298828,0.0526724365234,10.1992990723,1.0,0.0,0.0,0.0,1.0,0.0,0.0,0.0,1.0
1481903021884255715,574,1481903021881112703,,7.65554523468,-0.633471190929,147.660369873,0.00104400003329,1.0,0.0,0.0,0.0,1.0,0.0,0.0,0.0,1.0,-0.12195122242,3.59756112099,-0.548780500889,1.0,0.0,0.0,0.0,1.0,0.0,0.0,0.0,1.0,-0.426167895508,-0.129286889648,10.2471831055,1.0,0.0,0.0,0.0,1.0,0.0,0.0,0.0,1.0
1481903021905538370,575,1481903021902446295,,7.68211841583,-0.637476444244,147.638366699,0.00104700005613,1.0,0.0,0.0,0.0,1.0,0.0,0.0,0.0,1.0,-0.12195122242,3.10975623131,-0.548780500889,1.0,0.0,0.0,0.0,1.0,0.0,0.0,0.0,1.0,-0.435744702148,-0.0957680664062,10.2376062988,1.0,0.0,0.0,0.0,1.0,0.0,0.0,0.0,1.0
1481903021926118266,576,1481903021923280461,,7.70633172989,-0.635994315147,147.622177124,0.00100599997677,1.0,0.0,0.0,0.0,1.0,0.0,0.0,0.0,1.0,-0.12195122242,3.35365867615,-0.304878056049,1.0,0.0,0.0,0.0,1.0,0.0,0.0,0.0,1.0,-0.560243188477,-0.0957680664062,10.0891657959,1.0,0.0,0.0,0.0,1.0,0.0,0.0,0.0,1.0
1481903021946455871,577,1481903021943692232,,7.72548818588,-0.634433686733,147.609283447,0.000999000039883,1.0,0.0,0.0,0.0,1.0,0.0,0.0,0.0,1.0,0.243902444839,3.04878044128,0.0,1.0,0.0,0.0,0.0,1.0,0.0,0.0,0.0,1.0,-0.517147558594,-0.0718260498047,10.1226846191,1.0,0.0,0.0,0.0,1.0,0.0,0.0,0.0,1.0
1481903021967186913,578,1481903021964394785,,7.73824501038,-0.629813969135,147.596389771,0.0010000000475,1.0,0.0,0.0,0.0,1.0,0.0,0.0,0.0,1.0,0.0609756112099,3.35365867615,0.0609756112099,1.0,0.0,0.0,0.0,1.0,0.0,0.0,0.0,1.0,-0.316034619141,-0.191536132812,10.1562034424,1.0,0.0,0.0,0.0,1.0,0.0,0.0,0.0,1.0
1481903021988210193,579,1481903021985235097,,7.75554132462,-0.630455195904,147.580047607,0.00130500004161,1.0,0.0,0.0,0.0,1.0,0.0,0.0,0.0,1.0,0.12195122242,3.65853667259,-0.365853667259,1.0,0.0,0.0,0.0,1.0,0.0,0.0,0.0,1.0,-0.363918652344,-0.0909796630859,10.2471831055,1.0,0.0,0.0,0.0,1.0,0.0,0.0,0.0,1.0
1481903022009430609,580,1481903022006200252,,7.77564954758,-0.63333106041,147.559707642,0.000996000017039,1.0,0.0,0.0,0.0,1.0,0.0,0.0,0.0,1.0,0.0,4.02439022064,-0.670731723309,1.0,0.0,0.0,0.0,1.0,0.0,0.0,0.0,1.0,-0.407014282227,-0.0191536132812,10.3046439453,1.0,0.0,0.0,0.0,1.0,0.0,0.0,0.0,1.0
1481903022030419306,581,1481903022027734781,,7.81280755997,-0.636648416519,147.535964966,0.00108299998101,1.0,0.0,0.0,0.0,1.0,0.0,0.0,0.0,1.0,0.0,3.90243911743,-0.975609779358,1.0,0.0,0.0,0.0,1.0,0.0,0.0,0.0,1.0,-0.368707055664,-0.177170922852,10.1131078125,1.0,0.0,0.0,0.0,1.0,0.0,0.0,0.0,1.0
1481903022051788158,582,1481903022048853999,,7.85335874557,-0.633450686932,147.513839722,0.000979000004008,1.0,0.0,0.0,0.0,1.0,0.0,0.0,0.0,1.0,-0.12195122242,3.71951246262,-0.609756112099,1.0,0.0,0.0,0.0,1.0,0.0,0.0,0.0,1.0,-0.593762048251,-0.076614453125,10.2807019287,1.0,0.0,0.0,0.0,1.0,0.0,0.0,0.0,1.0
1481903022071804149,583,1481903022069234156,,7.88522768021,-0.634606182575,147.49546814,0.0010529999854,1.0,0.0,0.0,0.0,1.0,0.0,0.0,0.0,1.0,-0.12195122242,3.17073178291,-0.243902444839,1.0,0.0,0.0,0.0,1.0,0.0,0.0,0.0,1.0,-0.742202514648,-0.0335188255255,10.2328178955,1.0,0.0,0.0,0.0,1.0,0.0,0.0,0.0,1.0
1481903022092771961,584,1481903022089658636,,7.90498542786,-0.634499907494,147.481323242,0.00125900004059,1.0,0.0,0.0,0.0,1.0,0.0,0.0,0.0,1.0,0.12195122242,2.62195134163,0.18292683363,1.0,0.0,0.0,0.0,1.0,0.0,0.0,0.0,1.0,-0.77093293457,0.0957680664062,10.1226846191,1.0,0.0,0.0,0.0,1.0,0.0,0.0,0.0,1.0
1481903022112675349,585,1481903022110206136,,7.91010189056,-0.637596607208,147.468215942,0.00102800002787,1.0,0.0,0.0,0.0,1.0,0.0,0.0,0.0,1.0,0.0609756112099,2.5,-0.18292683363,1.0,0.0,0.0,0.0,1.0,0.0,0.0,0.0,1.0,-0.703895288086,-0.076614453125,10.0652237793,1.0,0.0,0.0,0.0,1.0,0.0,0.0,0.0,1.0
1481903022136545393,586,1481903022130611762,,7.9011054039,-0.638245880604,147.454071045,0.000995000009425,1.0,0.0,0.0,0.0,1.0,0.0,0.0,0.0,1.0,-0.18292683363,2.07317066193,-0.0609756112099,1.0,0.0,0.0,0.0,1.0,0.0,0.0,0.0,1.0,-0.45968671875,-0.110133276367,10.1083194092,1.0,0.0,0.0,0.0,1.0,0.0,0.0,0.0,1.0
1481903022154630035,587,1481903022151399105,,7.88793325424,-0.635607004166,147.443267822,0.00115499994718,1.0,0.0,0.0,0.0,1.0,0.0,0.0,0.0,1.0,-0.243902444839,2.13414645195,-0.304878056049,1.0,0.0,0.0,0.0,1.0,0.0,0.0,0.0,1.0,-0.46447512207,-0.210689746094,10.3429511719,1.0,0.0,0.0,0.0,1.0,0.0,0.0,0.0,1.0
1481903022180669709,588,1481903022172274886,,7.87493848801,-0.632740914822,147.42829895,0.00109999999404,1.0,0.0,0.0,0.0,1.0,0.0,0.0,0.0,1.0,0.0,1.8902438879,-0.426829278469,1.0,0.0,0.0,0.0,1.0,0.0,0.0,0.0,1.0,-0.45489831543,-0.076614453125,10.2376062988,1.0,0.0,0.0,0.0,1.0,0.0,0.0,0.0,1.0
1481903022201362834,589,1481903022192895199,,7.87046480179,-0.633092224598,147.411148071,0.000989999971353,1.0,0.0,0.0,0.0,1.0,0.0,0.0,0.0,1.0,-0.12195122242,2.43902444839,-0.487804889679,1.0,0.0,0.0,0.0,1.0,0.0,0.0,0.0,1.0,-0.440533105469,-0.067037651051,10.1514150391,1.0,0.0,0.0,0.0,1.0,0.0,0.0,0.0,1.0
1481903022218466697,590,1481903022213455928,,7.8750295639,-0.636298596859,147.392669678,0.000975999981165,1.0,0.0,0.0,0.0,1.0,0.0,0.0,0.0,1.0,-0.0609756112099,2.68292689323,-0.548780500889,1.0,0.0,0.0,0.0,1.0,0.0,0.0,0.0,1.0,-0.488417138672,-0.076614453125,10.2136642822,1.0,0.0,0.0,0.0,1.0,0.0,0.0,0.0,1.0
1481903022239303207,591,1481903022234646239,,7.88414859772,-0.637602984905,147.369293213,0.00100899999961,1.0,0.0,0.0,0.0,1.0,0.0,0.0,0.0,1.0,0.0,2.31707310677,-0.426829278469,1.0,0.0,0.0,0.0,1.0,0.0,0.0,0.0,1.0,-0.541089611728,-0.105344873047,10.3237975586,1.0,0.0,0.0,0.0,1.0,0.0,0.0,0.0,1.0
1481903022258647846,592,1481903022256132071,,7.88931179047,-0.639073610306,147.350662231,0.00110899994615,1.0,0.0,0.0,0.0,1.0,0.0,0.0,0.0,1.0,0.18292683363,1.95121955872,-0.304878056049,1.0,0.0,0.0,0.0,1.0,0.0,0.0,0.0,1.0,-0.521935925381,-0.0861912597656,10.2328178955,1.0,0.0,0.0,0.0,1.0,0.0,0.0,0.0,1.0
1481903022280050083,593,1481903022277035299,,7.88459014893,-0.639730870724,147.336700439,0.00118699995801,1.0,0.0,0.0,0.0,1.0,0.0,0.0,0.0,1.0,0.0609756112099,1.40243899822,-0.304878056049,1.0,0.0,0.0,0.0,1.0,0.0,0.0,0.0,1.0,-0.550666381836,-0.0287304199219,10.2615483154,1.0,0.0,0.0,0.0,1.0,0.0,0.0,0.0,1.0
1481903022301033728,594,1481903022298447485,,7.86250829697,-0.638685882092,147.324447632,0.00116099999286,1.0,0.0,0.0,0.0,1.0,0.0,0.0,0.0,1.0,0.0,1.34146344662,-0.12195122242,1.0,0.0,0.0,0.0,1.0,0.0,0.0,0.0,1.0,-0.507570751953,-0.114921679688,10.1370498291,1.0,0.0,0.0,0.0,1.0,0.0,0.0,0.0,1.0
1481903022322139404,595,1481903022318974673,,7.83760929108,-0.635533213615,147.314666748,0.00132899999153,1.0,0.0,0.0,0.0,1.0,0.0,0.0,0.0,1.0,-0.243902444839,1.40243899822,-0.304878056049,1.0,0.0,0.0,0.0,1.0,0.0,0.0,0.0,1.0,-0.359130249023,-0.105344873047,10.1131078125,1.0,0.0,0.0,0.0,1.0,0.0,0.0,0.0,1.0
1481903022342534926,596,1481903022339803474,,7.80748033524,-0.636994302273,147.299850464,0.00171500002034,1.0,0.0,0.0,0.0,1.0,0.0,0.0,0.0,1.0,-0.365853667259,1.58536589146,-0.487804889679,1.0,0.0,0.0,0.0,1.0,0.0,0.0,0.0,1.0,-0.435744702148,-0.0718260498047,10.3094323486,1.0,0.0,0.0,0.0,1.0,0.0,0.0,0.0,1.0
1481903022365798669,597,1481903022361488837,,7.78351259232,-0.638438463211,147.282546997,0.00126199994702,1.0,0.0,0.0,0.0,1.0,0.0,0.0,0.0,1.0,-0.304878056049,2.07317066193,-0.18292683363,1.0,0.0,0.0,0.0,1.0,0.0,0.0,0.0,1.0,-0.435744702148,-0.162805712891,10.0795889893,1.0,0.0,0.0,0.0,1.0,0.0,0.0,0.0,1.0
1481903022387325542,598,1481903022382577638,,7.77377557755,-0.636179625988,147.269088745,0.00109300005715,1.0,0.0,0.0,0.0,1.0,0.0,0.0,0.0,1.0,-0.0609756112099,2.43902444839,-0.304878056049,1.0,0.0,0.0,0.0,1.0,0.0,0.0,0.0,1.0,-0.440533105469,-0.0909796630859,10.2136642822,1.0,0.0,0.0,0.0,1.0,0.0,0.0,0.0,1.0
1481903022408465541,599,1481903022403630189,,7.77590656281,-0.635067760944,147.250289917,0.00141200004146,1.0,0.0,0.0,0.0,1.0,0.0,0.0,0.0,1.0,-0.0609756112099,3.10975623131,-0.609756112099,1.0,0.0,0.0,0.0,1.0,0.0,0.0,0.0,1.0,-0.502782348633,-0.0191536132812,10.2519715088,1.0,0.0,0.0,0.0,1.0,0.0,0.0,0.0,1.0
1481903022427712003,600,1481903022424854979,,7.79068231583,-0.634505152702,147.230300903,0.00152000004891,1.0,0.0,0.0,0.0,1.0,0.0,0.0,0.0,1.0,-0.0609756112099,3.35365867615,-0.609756112099,1.0,0.0,0.0,0.0,1.0,0.0,0.0,0.0,1.0,-0.435744702148,-0.138863696289,10.285490332,1.0,0.0,0.0,0.0,1.0,0.0,0.0,0.0,1.0
1481903022448645700,601,1481903022445621750,,7.81017923355,-0.635745942593,147.212127686,0.00107999995816,1.0,0.0,0.0,0.0,1.0,0.0,0.0,0.0,1.0,-0.12195122242,3.47560977936,-0.487804889679,1.0,0.0,0.0,0.0,1.0,0.0,0.0,0.0,1.0,-0.426167895508,-0.0622492431641,10.2807019287,1.0,0.0,0.0,0.0,1.0,0.0,0.0,0.0,1.0
1481903022476554745,602,1481903022466907894,,7.83428192139,-0.637286245823,147.19418335,0.00104000000283,1.0,0.0,0.0,0.0,1.0,0.0,0.0,0.0,1.0,0.0,3.53658556938,-0.548780500889,1.0,0.0,0.0,0.0,1.0,0.0,0.0,0.0,1.0,-0.517147558594,-0.105344873047,10.3333743652,1.0,0.0,0.0,0.0,1.0,0.0,0.0,0.0,1.0
1481903022490739761,603,1481903022488167736,,7.85661363602,-0.639533758163,147.174468994,0.00116500002332,1.0,0.0,0.0,0.0,1.0,0.0,0.0,0.0,1.0,-0.243902444839,3.23170733452,-0.365853667259,1.0,0.0,0.0,0.0,1.0,0.0,0.0,0.0,1.0,-0.430956298828,-0.220266552734,9.99818613281,1.0,0.0,0.0,0.0,1.0,0.0,0.0,0.0,1.0
1481903022518033078,604,1481903022509521328,,7.87924623489,-0.637195885181,147.160446167,0.00124200002756,1.0,0.0,0.0,0.0,1.0,0.0,0.0,0.0,1.0,-0.18292683363,3.53658556938,0.0,1.0,0.0,0.0,0.0,1.0,0.0,0.0,0.0,1.0,-0.699106884766,0.0335188255255,10.2711251221,1.0,0.0,0.0,0.0,1.0,0.0,0.0,0.0,1.0
1481903022532939603,605,1481903022529884767,,7.89664840698,-0.636079370975,147.145050049,0.000989999971353,1.0,0.0,0.0,0.0,1.0,0.0,0.0,0.0,1.0,-0.12195122242,3.23170733452,-0.304878056049,1.0,0.0,0.0,0.0,1.0,0.0,0.0,0.0,1.0,-0.675164868164,0.0335188255255,10.2423947021,1.0,0.0,0.0,0.0,1.0,0.0,0.0,0.0,1.0
1481903022556790741,606,1481903022550725600,,7.908659935,-0.638438105583,147.123764038,0.000986999948509,1.0,0.0,0.0,0.0,1.0,0.0,0.0,0.0,1.0,0.0609756112099,3.41463422775,-0.548780500889,1.0,0.0,0.0,0.0,1.0,0.0,0.0,0.0,1.0,-0.512359155273,-0.15801730957,10.2184526855,1.0,0.0,0.0,0.0,1.0,0.0,0.0,0.0,1.0
1481903022576656368,607,1481903022571435808,,7.92673158646,-0.640548408031,147.107467651,0.000977999996394,1.0,0.0,0.0,0.0,1.0,0.0,0.0,0.0,1.0,-0.243902444839,3.17073178291,-0.304878056049,1.0,0.0,0.0,0.0,1.0,0.0,0.0,0.0,1.0,-0.517147558594,-0.205901342773,10.2088758789,1.0,0.0,0.0,0.0,1.0,0.0,0.0,0.0,1.0
1481903022597284232,608,1481903022592939035,,7.93921613693,-0.64306306839,147.089538574,0.000972000008915,1.0,0.0,0.0,0.0,1.0,0.0,0.0,0.0,1.0,0.12195122242,3.10975623131,-0.365853667259,1.0,0.0,0.0,0.0,1.0,0.0,0.0,0.0,1.0,-0.512359155273,-0.138863696289,9.95030209961,1.0,0.0,0.0,0.0,1.0,0.0,0.0,0.0,1.0
1481903022616488507,609,1481903022613444608,,7.96115112305,-0.637902736664,147.078414917,0.00101899995934,1.0,0.0,0.0,0.0,1.0,0.0,0.0,0.0,1.0,0.243902444839,3.04878044128,0.12195122242,1.0,0.0,0.0,0.0,1.0,0.0,0.0,0.0,1.0,-0.320823022461,-0.105344873047,10.3046439453,1.0,0.0,0.0,0.0,1.0,0.0,0.0,0.0,1.0
1481903022636291061,610,1481903022634122577,,7.97465181351,-0.637357473373,147.060348511,0.000968999986071,1.0,0.0,0.0,0.0,1.0,0.0,0.0,0.0,1.0,-0.0609756112099,3.23170733452,-0.548780500889,1.0,0.0,0.0,0.0,1.0,0.0,0.0,0.0,1.0,-0.330399829102,-0.138863696289,10.4674496582,1.0,0.0,0.0,0.0,1.0,0.0,0.0,0.0,1.0
1481903022658881473,611,1481903022655335284,,7.99546098709,-0.637976944447,147.043838501,0.00106100004632,1.0,0.0,0.0,0.0,1.0,0.0,0.0,0.0,1.0,0.0,3.96341490746,-0.18292683363,1.0,0.0,0.0,0.0,1.0,0.0,0.0,0.0,1.0,-0.555454785156,0.0,10.2567599121,1.0,0.0,0.0,0.0,1.0,0.0,0.0,0.0,1.0
1481903022680169284,612,1481903022677162156,,8.02471828461,-0.638807535172,147.022460938,0.00112000002991,1.0,0.0,0.0,0.0,1.0,0.0,0.0,0.0,1.0,-0.304878056049,3.35365867615,-0.731707334518,1.0,0.0,0.0,0.0,1.0,0.0,0.0,0.0,1.0,-0.555454785156,-0.124498486328,10.2376062988,1.0,0.0,0.0,0.0,1.0,0.0,0.0,0.0,1.0
1481903022701588188,613,1481903022698406946,,8.04993152618,-0.642693579197,146.999984741,0.00114099995699,1.0,0.0,0.0,0.0,1.0,0.0,0.0,0.0,1.0,0.12195122242,3.04878044128,-0.487804889679,1.0,0.0,0.0,0.0,1.0,0.0,0.0,0.0,1.0,-0.76614453125,-0.110133276367,10.0652237793,1.0,0.0,0.0,0.0,1.0,0.0,0.0,0.0,1.0
1481903022721258503,614,1481903022719085696,,8.06832313538,-0.645041882992,146.981109619,0.00196100003086,1.0,0.0,0.0,0.0,1.0,0.0,0.0,0.0,1.0,-0.304878056049,2.25609779358,-0.304878056049,1.0,0.0,0.0,0.0,1.0,0.0,0.0,0.0,1.0,-0.656011254883,-0.186747729492,10.1609918457,1.0,0.0,0.0,0.0,1.0,0.0,0.0,0.0,1.0
1481903022743379021,615,1481903022740212466,,8.06919670105,-0.641410887241,146.969085693,0.00205600005575,1.0,0.0,0.0,0.0,1.0,0.0,0.0,0.0,1.0,0.304878056049,1.8902438879,-0.18292683363,1.0,0.0,0.0,0.0,1.0,0.0,0.0,0.0,1.0,-0.565031591797,-0.0718260498047,10.2328178955,1.0,0.0,0.0,0.0,1.0,0.0,0.0,0.0,1.0
1481903022763600636,616,1481903022760994758,,8.05453300476,-0.638041675091,146.959564209,0.00115899997763,1.0,0.0,0.0,0.0,1.0,0.0,0.0,0.0,1.0,-0.0609756112099,1.64634156227,-0.304878056049,1.0,0.0,0.0,0.0,1.0,0.0,0.0,0.0,1.0,-0.488417138672,-0.124498486328,10.2471831055,1.0,0.0,0.0,0.0,1.0,0.0,0.0,0.0,1.0
1481903022785213186,617,1481903022782435120,,8.03075695038,-0.636593818665,146.94203186,0.00130100001115,1.0,0.0,0.0,0.0,1.0,0.0,0.0,0.0,1.0,0.0,1.52439022064,-0.365853667259,1.0,0.0,0.0,0.0,1.0,0.0,0.0,0.0,1.0,-0.488417138672,-0.143652099609,10.285490332,1.0,0.0,0.0,0.0,1.0,0.0,0.0,0.0,1.0
1481903022806402195,618,1481903022803556421,,8.0179901123,-0.637410581112,146.926223755,0.00107200001366,1.0,0.0,0.0,0.0,1.0,0.0,0.0,0.0,1.0,-0.365853667259,2.07317066193,-0.548780500889,1.0,0.0,0.0,0.0,1.0,0.0,0.0,0.0,1.0,-0.493205541992,-0.167594116211,10.2807019287,1.0,0.0,0.0,0.0,1.0,0.0,0.0,0.0,1.0
1481903022826610894,619,1481903022824103401,,8.00929927826,-0.639758110046,146.904891968,0.00180299999192,1.0,0.0,0.0,0.0,1.0,0.0,0.0,0.0,1.0,0.0,2.01219511032,-0.365853667259,1.0,0.0,0.0,0.0,1.0,0.0,0.0,0.0,1.0,-0.493205541992,-0.0861912597656,10.1274730225,1.0,0.0,0.0,0.0,1.0,0.0,0.0,0.0,1.0
1481903022848273548,620,1481903022845451680,,8.00072669983,-0.641040146351,146.889541626,0.00118699995801,1.0,0.0,0.0,0.0,1.0,0.0,0.0,0.0,1.0,0.18292683363,2.31707310677,-0.18292683363,1.0,0.0,0.0,0.0,1.0,0.0,0.0,0.0,1.0,-0.478840332031,-0.067037651051,10.165780249,1.0,0.0,0.0,0.0,1.0,0.0,0.0,0.0,1.0
1481903022869714796,621,1481903022866562460,,7.99711799622,-0.638543426991,146.878433228,0.00119400001131,1.0,0.0,0.0,0.0,1.0,0.0,0.0,0.0,1.0,0.0609756112099,3.04878044128,-0.12195122242,1.0,0.0,0.0,0.0,1.0,0.0,0.0,0.0,1.0,-0.392649072266,-0.0622492431641,10.3285859619,1.0,0.0,0.0,0.0,1.0,0.0,0.0,0.0,1.0
1481903022891295419,622,1481903022887009388,,8.00127029419,-0.634510338306,146.865814209,0.0010529999854,1.0,0.0,0.0,0.0,1.0,0.0,0.0,0.0,1.0,0.0609756112099,3.90243911743,-0.243902444839,1.0,0.0,0.0,0.0,1.0,0.0,0.0,0.0,1.0,-0.411802685547,-0.00478840332031,10.2232410889,1.0,0.0,0.0,0.0,1.0,0.0,0.0,0.0,1.0
1481903022911464952,623,1481903022907604961,,8.0162153244,-0.637451350689,146.848312378,0.00108800001908,1.0,0.0,0.0,0.0,1.0,0.0,0.0,0.0,1.0,-0.426829278469,4.32926845551,-0.609756112099,1.0,0.0,0.0,0.0,1.0,0.0,0.0,0.0,1.0,-0.339976635742,-0.177170922852,10.1322614258,1.0,0.0,0.0,0.0,1.0,0.0,0.0,0.0,1.0
1481903022940910034,624,1481903022931392505,,8.05410575867,-0.644262135029,146.82208252,0.00103399995714,1.0,0.0,0.0,0.0,1.0,0.0,0.0,0.0,1.0,-0.12195122242,4.51219558716,-1.09756100178,1.0,0.0,0.0,0.0,1.0,0.0,0.0,0.0,1.0,-0.483628735352,-0.234631762695,10.3621047852,1.0,0.0,0.0,0.0,1.0,0.0,0.0,0.0,1.0
1481903022953064482,625,1481903022950234125,,8.10279750824,-0.649244248867,146.796157837,0.00170100003015,1.0,0.0,0.0,0.0,1.0,0.0,0.0,0.0,1.0,-0.304878056049,4.39024400711,-0.609756112099,1.0,0.0,0.0,0.0,1.0,0.0,0.0,0.0,1.0,-0.794874951172,0.0239420166016,10.0412817627,1.0,0.0,0.0,0.0,1.0,0.0,0.0,0.0,1.0
1481903022976337184,626,1481903022971658446,,8.14803409576,-0.656685292721,146.774490356,0.00126000004821,1.0,0.0,0.0,0.0,1.0,0.0,0.0,0.0,1.0,-0.243902444839,3.47560977936,-0.487804889679,1.0,0.0,0.0,0.0,1.0,0.0,0.0,0.0,1.0,-0.756567724609,-0.067037651051,10.2136642822,1.0,0.0,0.0,0.0,1.0,0.0,0.0,0.0,1.0
1481903022996596560,627,1481903022993017767,,8.17306613922,-0.654986083508,146.758178711,0.00116800004616,1.0,0.0,0.0,0.0,1.0,0.0,0.0,0.0,1.0,-0.18292683363,1.76829278469,-0.548780500889,1.0,0.0,0.0,0.0,1.0,0.0,0.0,0.0,1.0,-0.866701000977,-0.148440512063,9.99818613281,1.0,0.0,0.0,0.0,1.0,0.0,0.0,0.0,1.0
1481903023020236865,628,1481903023014144224,,8.168592453,-0.654055714607,146.742904663,0.00118200003635,1.0,0.0,0.0,0.0,1.0,0.0,0.0,0.0,1.0,-0.243902444839,0.853658556938,-0.18292683363,1.0,0.0,0.0,0.0,1.0,0.0,0.0,0.0,1.0,-0.708683691406,-0.138863696289,10.3860468018,1.0,0.0,0.0,0.0,1.0,0.0,0.0,0.0,1.0
1481903023039027599,629,1481903023035768180,,8.14608192444,-0.648531556129,146.739852905,0.00120599998627,1.0,0.0,0.0,0.0,1.0,0.0,0.0,0.0,1.0,0.18292683363,0.670731723309,0.0609756112099,1.0,0.0,0.0,0.0,1.0,0.0,0.0,0.0,1.0,-0.670376464844,-0.0814028564453,10.1322614258,1.0,0.0,0.0,0.0,1.0,0.0,0.0,0.0,1.0
1481903023058913174,630,1481903023056825627,,8.09939098358,-0.648400783539,146.72428894,0.0025490000844,1.0,0.0,0.0,0.0,1.0,0.0,0.0,0.0,1.0,-0.18292683363,-0.12195122242,-0.304878056049,1.0,0.0,0.0,0.0,1.0,0.0,0.0,0.0,1.0,-0.622492431641,-0.162805712891,10.1705686523,1.0,0.0,0.0,0.0,1.0,0.0,0.0,0.0,1.0
1481903023079961246,631,1481903023078129480,,8.04484367371,-0.64878308773,146.713104248,0.00132899999153,1.0,0.0,0.0,0.0,1.0,0.0,0.0,0.0,1.0,0.18292683363,0.365853667259,0.18292683363,1.0,0.0,0.0,0.0,1.0,0.0,0.0,0.0,1.0,-0.478840332031,-0.0478840332031,10.2376062988,1.0,0.0,0.0,0.0,1.0,0.0,0.0,0.0,1.0
1481903023105601233,632,1481903023098634949,,7.99150562286,-0.649505257607,146.703948975,0.0039140000008,1.0,0.0,0.0,0.0,1.0,0.0,0.0,0.0,1.0,-0.18292683363,0.426829278469,-0.12195122242,1.0,0.0,0.0,0.0,1.0,0.0,0.0,0.0,1.0,-0.368707055664,-0.0861912597656,10.1131078125,1.0,0.0,0.0,0.0,1.0,0.0,0.0,0.0,1.0
1481903023121577235,633,1481903023119521198,,7.94328594208,-0.656215548515,146.683013916,0.00576699990779,1.0,0.0,0.0,0.0,1.0,0.0,0.0,0.0,1.0,-0.304878056049,0.731707334518,-0.365853667259,1.0,0.0,0.0,0.0,1.0,0.0,0.0,0.0,1.0,-0.45968671875,-0.067037651051,10.2471831055,1.0,0.0,0.0,0.0,1.0,0.0,0.0,0.0,1.0
1481903023142803952,634,1481903023140741510,,7.91372728348,-0.657863974571,146.661758423,0.00167100003455,1.0,0.0,0.0,0.0,1.0,0.0,0.0,0.0,1.0,0.0,1.40243899822,-0.609756112099,1.0,0.0,0.0,0.0,1.0,0.0,0.0,0.0,1.0,-0.526724328702,-0.0574608398438,10.2088758789,1.0,0.0,0.0,0.0,1.0,0.0,0.0,0.0,1.0
1481903023165542020,635,1481903023162307809,,7.88889694214,-0.659651935101,146.639160156,0.00124699994922,1.0,0.0,0.0,0.0,1.0,0.0,0.0,0.0,1.0,-0.18292683363,1.2195122242,-0.426829278469,1.0,0.0,0.0,0.0,1.0,0.0,0.0,0.0,1.0,-0.550666381836,-0.201112939453,10.1945106689,1.0,0.0,0.0,0.0,1.0,0.0,0.0,0.0,1.0
1481903023186393895,636,1481903023183443694,,7.86440324783,-0.657782495022,146.625869751,0.00155799998902,1.0,0.0,0.0,0.0,1.0,0.0,0.0,0.0,1.0,0.12195122242,1.52439022064,0.0609756112099,1.0,0.0,0.0,0.0,1.0,0.0,0.0,0.0,1.0,-0.483628735352,-0.0430956298828,10.180145459,1.0,0.0,0.0,0.0,1.0,0.0,0.0,0.0,1.0
1481903023207282852,637,1481903023203964840,,7.83721351624,-0.652081429958,146.619094849,0.00116900005378,1.0,0.0,0.0,0.0,1.0,0.0,0.0,0.0,1.0,0.0,1.40243899822,0.243902444839,1.0,0.0,0.0,0.0,1.0,0.0,0.0,0.0,1.0,-0.373495458984,-0.0287304199219,10.180145459,1.0,0.0,0.0,0.0,1.0,0.0,0.0,0.0,1.0
1481903023227362541,638,1481903023224589944,,7.80731964111,-0.64859110117,146.608444214,0.000966000021435,1.0,0.0,0.0,0.0,1.0,0.0,0.0,0.0,1.0,0.0,1.64634156227,-0.12195122242,1.0,0.0,0.0,0.0,1.0,0.0,0.0,0.0,1.0,-0.383072265625,-0.124498486328,10.2232410889,1.0,0.0,0.0,0.0,1.0,0.0,0.0,0.0,1.0
1481903023248801602,639,1481903023245444735,,7.79027032852,-0.646754264832,146.595230103,0.00102500000503,1.0,0.0,0.0,0.0,1.0,0.0,0.0,0.0,1.0,-0.12195122242,2.68292689323,-0.18292683363,1.0,0.0,0.0,0.0,1.0,0.0,0.0,0.0,1.0,-0.368707055664,-0.0287304199219,10.2567599121,1.0,0.0,0.0,0.0,1.0,0.0,0.0,0.0,1.0
1481903023269260092,640,1481903023266798692,,7.79237556458,-0.647376716137,146.576568604,0.00115200004075,1.0,0.0,0.0,0.0,1.0,0.0,0.0,0.0,1.0,0.18292683363,3.41463422775,-0.609756112099,1.0,0.0,0.0,0.0,1.0,0.0,0.0,0.0,1.0,-0.354341845703,-0.067037651051,10.3237975586,1.0,0.0,0.0,0.0,1.0,0.0,0.0,0.0,1.0
1481903023291165141,641,1481903023288325305,,7.81179666519,-0.651219129562,146.552230835,0.00105600000825,1.0,0.0,0.0,0.0,1.0,0.0,0.0,0.0,1.0,-0.426829278469,3.84146332741,-0.975609779358,1.0,0.0,0.0,0.0,1.0,0.0,0.0,0.0,1.0,-0.3064578125,-0.248996972656,10.1609918457,1.0,0.0,0.0,0.0,1.0,0.0,0.0,0.0,1.0
1481903023312593889,642,1481903023309939365,,7.84596729279,-0.654714047909,146.528366089,0.00119900004938,1.0,0.0,0.0,0.0,1.0,0.0,0.0,0.0,1.0,0.0609756112099,4.02439022064,-0.548780500889,1.0,0.0,0.0,0.0,1.0,0.0,0.0,0.0,1.0,-0.689530078125,0.119710083008,10.2280294922,1.0,0.0,0.0,0.0,1.0,0.0,0.0,0.0,1.0
1481903023336562735,643,1481903023330853427,,7.88626623154,-0.657903194427,146.508407593,0.00187999999616,1.0,0.0,0.0,0.0,1.0,0.0,0.0,0.0,1.0,-0.0609756112099,3.90243911743,-0.487804889679,1.0,0.0,0.0,0.0,1.0,0.0,0.0,0.0,1.0,-0.656011254883,-0.148440512063,10.1322614258,1.0,0.0,0.0,0.0,1.0,0.0,0.0,0.0,1.0
1481903023358215910,644,1481903023351932071,,7.91298532486,-0.655717730522,146.491699219,0.00109899998643,1.0,0.0,0.0,0.0,1.0,0.0,0.0,0.0,1.0,0.12195122242,2.92682933807,-0.670731723309,1.0,0.0,0.0,0.0,1.0,0.0,0.0,0.0,1.0,-0.593762048251,-0.0574608398438,10.1322614258,1.0,0.0,0.0,0.0,1.0,0.0,0.0,0.0,1.0
1481903023378141641,645,1481903023373577121,,7.93113660812,-0.654192566872,146.477035522,0.00099400000181,1.0,0.0,0.0,0.0,1.0,0.0,0.0,0.0,1.0,0.243902444839,2.37804889679,-0.365853667259,1.0,0.0,0.0,0.0,1.0,0.0,0.0,0.0,1.0,-0.450109912109,-0.134075302102,10.2423947021,1.0,0.0,0.0,0.0,1.0,0.0,0.0,0.0,1.0
1481903023398941172,646,1481903023394438787,,7.93585443497,-0.64832931757,146.462600708,0.00111700000707,1.0,0.0,0.0,0.0,1.0,0.0,0.0,0.0,1.0,-0.12195122242,2.25609779358,0.0,1.0,0.0,0.0,0.0,1.0,0.0,0.0,0.0,1.0,-0.574608398438,-0.0718260498047,10.3716815918,1.0,0.0,0.0,0.0,1.0,0.0,0.0,0.0,1.0
1481903023419409193,647,1481903023416665242,,7.93430328369,-0.650303900242,146.444381714,0.00172199995723,1.0,0.0,0.0,0.0,1.0,0.0,0.0,0.0,1.0,0.0,2.07317066193,-0.487804889679,1.0,0.0,0.0,0.0,1.0,0.0,0.0,0.0,1.0,-0.526724328702,-0.114921679688,10.299855542,1.0,0.0,0.0,0.0,1.0,0.0,0.0,0.0,1.0
1481903023441073826,648,1481903023438183313,,7.92588567734,-0.652388691902,146.425079346,0.00131099997088,1.0,0.0,0.0,0.0,1.0,0.0,0.0,0.0,1.0,0.243902444839,2.19512200356,-0.548780500889,1.0,0.0,0.0,0.0,1.0,0.0,0.0,0.0,1.0,-0.526724328702,-0.0526724365234,10.1753570557,1.0,0.0,0.0,0.0,1.0,0.0,0.0,0.0,1.0
1481903023462107367,649,1481903023459339561,,7.91738319397,-0.648387730122,146.410812378,0.00185200001579,1.0,0.0,0.0,0.0,1.0,0.0,0.0,0.0,1.0,-0.18292683363,1.8902438879,-0.12195122242,1.0,0.0,0.0,0.0,1.0,0.0,0.0,0.0,1.0,-0.526724328702,-0.0287304199219,10.1753570557,1.0,0.0,0.0,0.0,1.0,0.0,0.0,0.0,1.0
1481903023482892887,650,1481903023480767684,,7.90342760086,-0.644648551941,146.397506714,0.00135100004263,1.0,0.0,0.0,0.0,1.0,0.0,0.0,0.0,1.0,-0.243902444839,1.76829278469,-0.243902444839,1.0,0.0,0.0,0.0,1.0,0.0,0.0,0.0,1.0,-0.469263525391,-0.0191536132812,10.1466266357,1.0,0.0,0.0,0.0,1.0,0.0,0.0,0.0,1.0
1481903023505398560,651,1481903023501391383,,7.88617086411,-0.643243968487,146.382965088,0.00118699995801,1.0,0.0,0.0,0.0,1.0,0.0,0.0,0.0,1.0,0.0609756112099,1.76829278469,-0.487804889679,1.0,0.0,0.0,0.0,1.0,0.0,0.0,0.0,1.0,-0.488417138672,-0.134075302102,10.1370498291,1.0,0.0,0.0,0.0,1.0,0.0,0.0,0.0,1.0
1481903023524184450,652,1481903023522082007,,7.87565088272,-0.64568644762,146.364227295,0.00105199997779,1.0,0.0,0.0,0.0,1.0,0.0,0.0,0.0,1.0,0.0,2.01219511032,-0.426829278469,1.0,0.0,0.0,0.0,1.0,0.0,0.0,0.0,1.0,-0.517147558594,-0.148440512063,10.1370498291,1.0,0.0,0.0,0.0,1.0,0.0,0.0,0.0,1.0
1481903023545556896,653,1481903023542630758,,7.8678278923,-0.648868441582,146.347488403,0.0012080000015,1.0,0.0,0.0,0.0,1.0,0.0,0.0,0.0,1.0,0.243902444839,1.8902438879,-0.426829278469,1.0,0.0,0.0,0.0,1.0,0.0,0.0,0.0,1.0,-0.560243188477,-0.205901342773,10.1418382324,1.0,0.0,0.0,0.0,1.0,0.0,0.0,0.0,1.0
1481903023566310177,654,1481903023563997839,,7.86134290695,-0.647156059742,146.33215332,0.00106299994513,1.0,0.0,0.0,0.0,1.0,0.0,0.0,0.0,1.0,0.0,2.25609779358,-0.304878056049,1.0,0.0,0.0,0.0,1.0,0.0,0.0,0.0,1.0,-0.450109912109,-0.0574608398438,10.2088758789,1.0,0.0,0.0,0.0,1.0,0.0,0.0,0.0,1.0
1481903023586872782,655,1481903023584421538,,7.8584856987,-0.646016418934,146.318664551,0.00103100005072,1.0,0.0,0.0,0.0,1.0,0.0,0.0,0.0,1.0,-0.18292683363,2.68292689323,-0.243902444839,1.0,0.0,0.0,0.0,1.0,0.0,0.0,0.0,1.0,-0.430956298828,-0.0478840332031,10.2759135254,1.0,0.0,0.0,0.0,1.0,0.0,0.0,0.0,1.0
1481903023607428876,656,1481903023605192527,,7.85941934586,-0.644239187241,146.301712036,0.0010229999898,1.0,0.0,0.0,0.0,1.0,0.0,0.0,0.0,1.0,-0.0609756112099,2.92682933807,-0.243902444839,1.0,0.0,0.0,0.0,1.0,0.0,0.0,0.0,1.0,-0.445321508789,-0.114921679688,10.2519715088,1.0,0.0,0.0,0.0,1.0,0.0,0.0,0.0,1.0
1481903023629218873,657,1481903023626564192,,7.86681318283,-0.643823742867,146.283554077,0.00102399999741,1.0,0.0,0.0,0.0,1.0,0.0,0.0,0.0,1.0,0.243902444839,2.98780488968,-0.487804889679,1.0,0.0,0.0,0.0,1.0,0.0,0.0,0.0,1.0,-0.378283862305,-0.0335188255255,10.2376062988,1.0,0.0,0.0,0.0,1.0,0.0,0.0,0.0,1.0
1481903023654958496,658,1481903023649244083,,7.88625621796,-0.647366523743,146.262008667,0.00124100001995,1.0,0.0,0.0,0.0,1.0,0.0,0.0,0.0,1.0,0.12195122242,3.23170733452,-0.548780500889,1.0,0.0,0.0,0.0,1.0,0.0,0.0,0.0,1.0,-0.775721337891,0.00478840332031,10.2040874756,1.0,0.0,0.0,0.0,1.0,0.0,0.0,0.0,1.0
1481903023671082986,659,1481903023669028200,,7.90687799454,-0.648820161819,146.241043091,0.00113600003533,1.0,0.0,0.0,0.0,1.0,0.0,0.0,0.0,1.0,0.0609756112099,2.98780488968,-0.243902444839,1.0,0.0,0.0,0.0,1.0,0.0,0.0,0.0,1.0,-0.675164868164,0.00478840332031,10.3190091553,1.0,0.0,0.0,0.0,1.0,0.0,0.0,0.0,1.0
1481903023691647101,660,1481903023689572940,,7.92390918732,-0.645898103714,146.228393555,0.00112999998964,1.0,0.0,0.0,0.0,1.0,0.0,0.0,0.0,1.0,0.0609756112099,3.04878044128,-0.12195122242,1.0,0.0,0.0,0.0,1.0,0.0,0.0,0.0,1.0,-0.660799658203,0.0239420166016,10.2328178955,1.0,0.0,0.0,0.0,1.0,0.0,0.0,0.0,1.0
1481903023712837360,661,1481903023710729970,,7.9349527359,-0.642068326473,146.213653564,0.000985000049695,1.0,0.0,0.0,0.0,1.0,0.0,0.0,0.0,1.0,-0.243902444839,3.04878044128,-0.609756112099,1.0,0.0,0.0,0.0,1.0,0.0,0.0,0.0,1.0,-0.440533105469,-0.00478840332031,10.1418382324,1.0,0.0,0.0,0.0,1.0,0.0,0.0,0.0,1.0
1481903023733970016,662,1481903023731462991,,7.94036722183,-0.6401065588,146.197418213,0.000988999963738,1.0,0.0,0.0,0.0,1.0,0.0,0.0,0.0,1.0,0.0,2.98780488968,-0.304878056049,1.0,0.0,0.0,0.0,1.0,0.0,0.0,0.0,1.0,-0.402225878906,-0.0957680664062,10.405200415,1.0,0.0,0.0,0.0,1.0,0.0,0.0,0.0,1.0
1481903023757716518,663,1481903023752910801,,7.95104265213,-0.640559852123,146.179702759,0.00101600005291,1.0,0.0,0.0,0.0,1.0,0.0,0.0,0.0,1.0,0.12195122242,2.68292689323,-0.18292683363,1.0,0.0,0.0,0.0,1.0,0.0,0.0,0.0,1.0,-0.416591088867,-0.0861912597656,10.0652237793,1.0,0.0,0.0,0.0,1.0,0.0,0.0,0.0,1.0
1481903023777285948,664,1481903023774110331,,7.96327447891,-0.642450094223,146.159362793,0.00102199998219,1.0,0.0,0.0,0.0,1.0,0.0,0.0,0.0,1.0,-0.0609756112099,2.98780488968,-0.304878056049,1.0,0.0,0.0,0.0,1.0,0.0,0.0,0.0,1.0,-0.416591088867,-0.0814028564453,10.3046439453,1.0,0.0,0.0,0.0,1.0,0.0,0.0,0.0,1.0
1481903023799670527,665,1481903023796540900,,7.97648286819,-0.641102612019,146.143325806,0.00111099996138,1.0,0.0,0.0,0.0,1.0,0.0,0.0,0.0,1.0,0.0,2.92682933807,-0.243902444839,1.0,0.0,0.0,0.0,1.0,0.0,0.0,0.0,1.0,-0.483628735352,-0.076614453125,10.2759135254,1.0,0.0,0.0,0.0,1.0,0.0,0.0,0.0,1.0
1481903023821304379,666,1481903023818899802,,7.98871469498,-0.640696287155,146.129669189,0.00288800010458,1.0,0.0,0.0,0.0,1.0,0.0,0.0,0.0,1.0,-0.12195122242,3.23170733452,0.0,1.0,0.0,0.0,0.0,1.0,0.0,0.0,0.0,1.0,-0.46447512207,-0.143652099609,10.1370498291,1.0,0.0,0.0,0.0,1.0,0.0,0.0,0.0,1.0
1481903023843019949,667,1481903023839978446,,8.00220775604,-0.638218164444,146.114471436,0.00443399976939,1.0,0.0,0.0,0.0,1.0,0.0,0.0,0.0,1.0,0.0609756112099,3.47560977936,-0.487804889679,1.0,0.0,0.0,0.0,1.0,0.0,0.0,0.0,1.0,-0.512359155273,-0.0191536132812,10.1992990723,1.0,0.0,0.0,0.0,1.0,0.0,0.0,0.0,1.0
1481903023863210055,668,1481903023860878915,,8.01650619507,-0.641258656979,146.094345093,0.00544499978423,1.0,0.0,0.0,0.0,1.0,0.0,0.0,0.0,1.0,-0.243902444839,3.7804877758,-0.609756112099,1.0,0.0,0.0,0.0,1.0,0.0,0.0,0.0,1.0,-0.45968671875,-0.110133276367,10.2711251221,1.0,0.0,0.0,0.0,1.0,0.0,0.0,0.0,1.0
1481903023884656980,669,1481903023881486311,,8.03977584839,-0.641804873943,146.077911377,0.00105399999302,1.0,0.0,0.0,0.0,1.0,0.0,0.0,0.0,1.0,-0.0609756112099,3.71951246262,-0.365853667259,1.0,0.0,0.0,0.0,1.0,0.0,0.0,0.0,1.0,-0.497993945312,-0.181959326172,10.2471831055,1.0,0.0,0.0,0.0,1.0,0.0,0.0,0.0,1.0
1481903023904101358,670,1481903023902019384,,8.06633663177,-0.644560694695,146.057952881,0.00112999998964,1.0,0.0,0.0,0.0,1.0,0.0,0.0,0.0,1.0,-0.12195122242,3.84146332741,-0.487804889679,1.0,0.0,0.0,0.0,1.0,0.0,0.0,0.0,1.0,-0.526724328702,-0.15322890625,10.1418382324,1.0,0.0,0.0,0.0,1.0,0.0,0.0,0.0,1.0
1481903023925422710,671,1481903023922493551,,8.09731388092,-0.644494950771,146.04045105,0.0010450000409,1.0,0.0,0.0,0.0,1.0,0.0,0.0,0.0,1.0,0.0,3.53658556938,-0.365853667259,1.0,0.0,0.0,0.0,1.0,0.0,0.0,0.0,1.0,-0.560243188477,-0.0191536132812,10.2376062988,1.0,0.0,0.0,0.0,1.0,0.0,0.0,0.0,1.0
1481903023945395941,672,1481903023943250895,,8.12586212158,-0.644422233105,146.020965576,0.0011340000201,1.0,0.0,0.0,0.0,1.0,0.0,0.0,0.0,1.0,-0.18292683363,3.53658556938,-0.670731723309,1.0,0.0,0.0,0.0,1.0,0.0,0.0,0.0,1.0,-0.521935925381,-0.076614453125,10.165780249,1.0,0.0,0.0,0.0,1.0,0.0,0.0,0.0,1.0
1481903023967638125,673,1481903023964661362,,8.1498298645,-0.647877991199,145.996902466,0.00102700002026,1.0,0.0,0.0,0.0,1.0,0.0,0.0,0.0,1.0,-0.0609756112099,2.62195134163,-0.670731723309,1.0,0.0,0.0,0.0,1.0,0.0,0.0,0.0,1.0,-0.656011254883,-0.119710083008,10.2759135254,1.0,0.0,0.0,0.0,1.0,0.0,0.0,0.0,1.0
1481903023988521562,674,1481903023985789486,,8.16436862946,-0.6488250494,145.978469849,0.00104899995495,1.0,0.0,0.0,0.0,1.0,0.0,0.0,0.0,1.0,0.0609756112099,2.13414645195,-0.18292683363,1.0,0.0,0.0,0.0,1.0,0.0,0.0,0.0,1.0,-0.60812722168,-0.0957680664062,10.2088758789,1.0,0.0,0.0,0.0,1.0,0.0,0.0,0.0,1.0
1481903024009810779,675,1481903024006602662,,8.16525268555,-0.646480441093,145.967010498,0.000976999988779,1.0,0.0,0.0,0.0,1.0,0.0,0.0,0.0,1.0,-0.0609756112099,1.46341466904,-0.12195122242,1.0,0.0,0.0,0.0,1.0,0.0,0.0,0.0,1.0,-0.512359155273,-0.067037651051,10.3285859619,1.0,0.0,0.0,0.0,1.0,0.0,0.0,0.0,1.0
1481903024030520519,676,1481903024027648547,,8.14845657349,-0.643316149712,145.958068848,0.000983000034466,1.0,0.0,0.0,0.0,1.0,0.0,0.0,0.0,1.0,0.0,1.52439022064,-0.12195122242,1.0,0.0,0.0,0.0,1.0,0.0,0.0,0.0,1.0,-0.435744702148,-0.244208569336,10.0843773926,1.0,0.0,0.0,0.0,1.0,0.0,0.0,0.0,1.0
1481903024051644736,677,1481903024048493703,,8.12690925598,-0.642960548401,145.945404053,0.00102700002026,1.0,0.0,0.0,0.0,1.0,0.0,0.0,0.0,1.0,0.0,1.46341466904,-0.0609756112099,1.0,0.0,0.0,0.0,1.0,0.0,0.0,0.0,1.0,-0.469263525391,-0.177170922852,10.2759135254,1.0,0.0,0.0,0.0,1.0,0.0,0.0,0.0,1.0
1481903024072203695,678,1481903024069126828,,8.10415744781,-0.645769715309,145.927642822,0.00111800001469,1.0,0.0,0.0,0.0,1.0,0.0,0.0,0.0,1.0,0.0,1.52439022064,-0.18292683363,1.0,0.0,0.0,0.0,1.0,0.0,0.0,0.0,1.0,-0.732625708008,-0.0430956298828,10.1514150391,1.0,0.0,0.0,0.0,1.0,0.0,0.0,0.0,1.0
1481903024092658748,679,1481903024090109327,,8.08573722839,-0.650434315205,145.911315918,0.000996000017039,1.0,0.0,0.0,0.0,1.0,0.0,0.0,0.0,1.0,-0.243902444839,2.01219511032,-0.426829278469,1.0,0.0,0.0,0.0,1.0,0.0,0.0,0.0,1.0,-0.560243188477,-0.0478840332031,10.1035310059,1.0,0.0,0.0,0.0,1.0,0.0,0.0,0.0,1.0
1481903024118633318,680,1481903024110940004,,8.07066345215,-0.651451408863,145.89805603,0.0010379999876,1.0,0.0,0.0,0.0,1.0,0.0,0.0,0.0,1.0,0.0,2.19512200356,-0.12195122242,1.0,0.0,0.0,0.0,1.0,0.0,0.0,0.0,1.0,-0.469263525391,-0.134075302102,10.2376062988,1.0,0.0,0.0,0.0,1.0,0.0,0.0,0.0,1.0
1481903024137538270,681,1481903024132230002,,8.06135654449,-0.651048362255,145.88583374,0.00102500000503,1.0,0.0,0.0,0.0,1.0,0.0,0.0,0.0,1.0,0.12195122242,2.25609779358,0.0609756112099,1.0,0.0,0.0,0.0,1.0,0.0,0.0,0.0,1.0,-0.512359155273,-0.0909796630859,10.0364933594,1.0,0.0,0.0,0.0,1.0,0.0,0.0,0.0,1.0
1481903024158813269,682,1481903024153693281,,8.05963802338,-0.6515147686,145.867599487,0.00106499996036,1.0,0.0,0.0,0.0,1.0,0.0,0.0,0.0,1.0,-0.0609756112099,3.17073178291,-0.365853667259,1.0,0.0,0.0,0.0,1.0,0.0,0.0,0.0,1.0,-0.450109912109,-0.0574608398438,10.1705686523,1.0,0.0,0.0,0.0,1.0,0.0,0.0,0.0,1.0
1481903024178148949,683,1481903024174871978,,8.06822109222,-0.654391348362,145.847091675,0.0010379999876,1.0,0.0,0.0,0.0,1.0,0.0,0.0,0.0,1.0,-0.18292683363,3.29268312454,-0.304878056049,1.0,0.0,0.0,0.0,1.0,0.0,0.0,0.0,1.0,-0.488417138672,-0.0143652099609,10.2376062988,1.0,0.0,0.0,0.0,1.0,0.0,0.0,0.0,1.0
1481903024199922175,684,1481903024195341666,,8.08474826813,-0.658553898335,145.829330444,0.0010890000267,1.0,0.0,0.0,0.0,1.0,0.0,0.0,0.0,1.0,0.0609756112099,3.59756112099,-0.243902444839,1.0,0.0,0.0,0.0,1.0,0.0,0.0,0.0,1.0,-0.555454785156,-0.0909796630859,10.2376062988,1.0,0.0,0.0,0.0,1.0,0.0,0.0,0.0,1.0
1481903024220535353,685,1481903024217295309,,8.10849666595,-0.661145508289,145.813156128,0.00109000003431,1.0,0.0,0.0,0.0,1.0,0.0,0.0,0.0,1.0,-0.304878056049,3.59756112099,-0.548780500889,1.0,0.0,0.0,0.0,1.0,0.0,0.0,0.0,1.0,-0.541089611728,-0.138863696289,10.2519715088,1.0,0.0,0.0,0.0,1.0,0.0,0.0,0.0,1.0
1481903024240680719,686,1481903024237470987,,8.13312339783,-0.662502288818,145.794570923,0.00110200000927,1.0,0.0,0.0,0.0,1.0,0.0,0.0,0.0,1.0,-0.0609756112099,3.59756112099,-0.426829278469,1.0,0.0,0.0,0.0,1.0,0.0,0.0,0.0,1.0,-0.541089611728,0.0,10.1514150391,1.0,0.0,0.0,0.0,1.0,0.0,0.0,0.0,1.0
1481903024263152797,687,1481903024259187443,,8.1581287384,-0.661128878593,145.778167725,0.00111599999946,1.0,0.0,0.0,0.0,1.0,0.0,0.0,0.0,1.0,0.0,3.90243911743,-0.18292683363,1.0,0.0,0.0,0.0,1.0,0.0,0.0,0.0,1.0,-0.512359155273,-0.143652099609,10.1274730225,1.0,0.0,0.0,0.0,1.0,0.0,0.0,0.0,1.0
1481903024283785245,688,1481903024279703537,,8.18528556824,-0.662032604218,145.75894165,0.00126499996986,1.0,0.0,0.0,0.0,1.0,0.0,0.0,0.0,1.0,-0.0609756112099,3.41463422775,-0.609756112099,1.0,0.0,0.0,0.0,1.0,0.0,0.0,0.0,1.0,-0.550666381836,-0.0574608398438,10.0891657959,1.0,0.0,0.0,0.0,1.0,0.0,0.0,0.0,1.0
1481903024305173473,689,1481903024301334993,,8.21268081665,-0.666368842125,145.741226196,0.0013419999741,1.0,0.0,0.0,0.0,1.0,0.0,0.0,0.0,1.0,-0.243902444839,4.08536577225,-0.243902444839,1.0,0.0,0.0,0.0,1.0,0.0,0.0,0.0,1.0,-0.536301208408,-0.124498486328,10.0891657959,1.0,0.0,0.0,0.0,1.0,0.0,0.0,0.0,1.0
1481903024324278529,690,1481903024321733535,,8.245429039,-0.668071806431,145.729431152,0.00122099998407,1.0,0.0,0.0,0.0,1.0,0.0,0.0,0.0,1.0,-0.243902444839,4.14634132385,-0.243902444839,1.0,0.0,0.0,0.0,1.0,0.0,0.0,0.0,1.0,-0.579396801758,-0.0718260498047,10.3046439453,1.0,0.0,0.0,0.0,1.0,0.0,0.0,0.0,1.0
1481903024345041654,691,1481903024342472702,,8.27772140503,-0.668890416622,145.707138062,0.00123399996664,1.0,0.0,0.0,0.0,1.0,0.0,0.0,0.0,1.0,-0.18292683363,4.39024400711,-0.670731723309,1.0,0.0,0.0,0.0,1.0,0.0,0.0,0.0,1.0,-0.521935925381,-0.0239420166016,10.180145459,1.0,0.0,0.0,0.0,1.0,0.0,0.0,0.0,1.0
1481903024365717383,692,1481903024363237545,,8.31864643097,-0.670595765114,145.687011719,0.00104600004852,1.0,0.0,0.0,0.0,1.0,0.0,0.0,0.0,1.0,-0.12195122242,4.63414621353,-0.365853667259,1.0,0.0,0.0,0.0,1.0,0.0,0.0,0.0,1.0,-0.603338854892,-0.0622492431641,10.2950671387,1.0,0.0,0.0,0.0,1.0,0.0,0.0,0.0,1.0
1481903024387149569,693,1481903024384696137,,8.36153030396,-0.674895465374,145.66255188,0.00107799994294,1.0,0.0,0.0,0.0,1.0,0.0,0.0,0.0,1.0,-0.12195122242,3.65853667259,-0.975609779358,1.0,0.0,0.0,0.0,1.0,0.0,0.0,0.0,1.0,-0.541089611728,-0.124498486328,10.2040874756,1.0,0.0,0.0,0.0,1.0,0.0,0.0,0.0,1.0
1481903024412005600,694,1481903024405151398,,8.39913749695,-0.678340375423,145.642776489,0.00117599999066,1.0,0.0,0.0,0.0,1.0,0.0,0.0,0.0,1.0,-0.243902444839,3.47560977936,-0.243902444839,1.0,0.0,0.0,0.0,1.0,0.0,0.0,0.0,1.0,-0.718260498047,-0.138863696289,10.2759135254,1.0,0.0,0.0,0.0,1.0,0.0,0.0,0.0,1.0
1481903024430307533,695,1481903024426193064,,8.42430877686,-0.678437888622,145.627059937,0.000999000039883,1.0,0.0,0.0,0.0,1.0,0.0,0.0,0.0,1.0,0.0609756112099,2.86585378647,-0.426829278469,1.0,0.0,0.0,0.0,1.0,0.0,0.0,0.0,1.0,-0.660799658203,-0.181959326172,10.1609918457,1.0,0.0,0.0,0.0,1.0,0.0,0.0,0.0,1.0
1481903024451895030,696,1481903024447384469,,8.43644237518,-0.679830372334,145.611679077,0.00116999994498,1.0,0.0,0.0,0.0,1.0,0.0,0.0,0.0,1.0,0.0,2.31707310677,0.0,1.0,0.0,0.0,0.0,1.0,0.0,0.0,0.0,1.0,-0.627280834961,-0.0478840332031,10.1466266357,1.0,0.0,0.0,0.0,1.0,0.0,0.0,0.0,1.0
1481903024471415763,697,1481903024468023115,,8.43569564819,-0.678117215633,145.60319519,0.00104700005613,1.0,0.0,0.0,0.0,1.0,0.0,0.0,0.0,1.0,0.18292683363,3.10975623131,0.12195122242,1.0,0.0,0.0,0.0,1.0,0.0,0.0,0.0,1.0,-0.488417138672,-0.067037651051,10.3429511719,1.0,0.0,0.0,0.0,1.0,0.0,0.0,0.0,1.0
1481903024492597115,698,1481903024489529311,,8.43618869781,-0.6753911376,145.591888428,0.00115200004075,1.0,0.0,0.0,0.0,1.0,0.0,0.0,0.0,1.0,0.0609756112099,2.92682933807,-0.487804889679,1.0,0.0,0.0,0.0,1.0,0.0,0.0,0.0,1.0,-0.493205541992,-0.248996972656,10.3046439453,1.0,0.0,0.0,0.0,1.0,0.0,0.0,0.0,1.0
1481903024513876229,699,1481903024510916444,,8.44224262238,-0.675936996937,145.566009521,0.00164799997583,1.0,0.0,0.0,0.0,1.0,0.0,0.0,0.0,1.0,-0.0609756112099,3.17073178291,-1.15853655338,1.0,0.0,0.0,0.0,1.0,0.0,0.0,0.0,1.0,-0.569819995117,-0.0383072265625,10.2280294922,1.0,0.0,0.0,0.0,1.0,0.0,0.0,0.0,1.0
1481903024534843363,700,1481903024531573007,,8.46553325653,-0.678353190422,145.538574219,0.00128600001335,1.0,0.0,0.0,0.0,1.0,0.0,0.0,0.0,1.0,0.0609756112099,2.92682933807,-0.731707334518,1.0,0.0,0.0,0.0,1.0,0.0,0.0,0.0,1.0,-0.718260498047,-0.129286889648,10.2423947021,1.0,0.0,0.0,0.0,1.0,0.0,0.0,0.0,1.0
1481903024556110601,701,1481903024552625871,,8.48689842224,-0.68012881279,145.520385742,0.00126900000032,1.0,0.0,0.0,0.0,1.0,0.0,0.0,0.0,1.0,0.0,2.62195134163,-0.12195122242,1.0,0.0,0.0,0.0,1.0,0.0,0.0,0.0,1.0,-0.76614453125,-0.15322890625,10.1466266357,1.0,0.0,0.0,0.0,1.0,0.0,0.0,0.0,1.0
1481903024578080234,702,1481903024573378787,,8.49136924744,-0.680229663849,145.506668091,0.00105099997018,1.0,0.0,0.0,0.0,1.0,0.0,0.0,0.0,1.0,0.0,2.01219511032,-0.18292683363,1.0,0.0,0.0,0.0,1.0,0.0,0.0,0.0,1.0,-0.699106884766,-0.110133276367,10.1897222656,1.0,0.0,0.0,0.0,1.0,0.0,0.0,0.0,1.0
1481903024600015439,703,1481903024595500085,,8.4767742157,-0.683193564415,145.493133545,0.00176300003659,1.0,0.0,0.0,0.0,1.0,0.0,0.0,0.0,1.0,0.0609756112099,0.914634168148,-0.12195122242,1.0,0.0,0.0,0.0,1.0,0.0,0.0,0.0,1.0,-0.612915625,-0.143652099609,10.3285859619,1.0,0.0,0.0,0.0,1.0,0.0,0.0,0.0,1.0
1481903024620187211,704,1481903024617134041,,8.44659519196,-0.683852016926,145.481384277,0.00151600001846,1.0,0.0,0.0,0.0,1.0,0.0,0.0,0.0,1.0,-0.0609756112099,0.975609779358,-0.12195122242,1.0,0.0,0.0,0.0,1.0,0.0,0.0,0.0,1.0,-0.555454785156,-0.0861912597656,10.3190091553,1.0,0.0,0.0,0.0,1.0,0.0,0.0,0.0,1.0
1481903024645626313,705,1481903024637670604,,8.41359615326,-0.68954128027,145.472442627,0.00127600005362,1.0,0.0,0.0,0.0,1.0,0.0,0.0,0.0,1.0,-0.609756112099,1.03658533096,-0.0609756112099,1.0,0.0,0.0,0.0,1.0,0.0,0.0,0.0,1.0,-0.474051928711,-0.0574608398438,10.2184526855,1.0,0.0,0.0,0.0,1.0,0.0,0.0,0.0,1.0
1481903024663361685,706,1481903024660605286,,8.38247680664,-0.693808913231,145.458709717,0.00183600001037,1.0,0.0,0.0,0.0,1.0,0.0,0.0,0.0,1.0,-0.365853667259,1.8902438879,-0.548780500889,1.0,0.0,0.0,0.0,1.0,0.0,0.0,0.0,1.0,-0.497993945312,-0.0814028564453,10.2519715088,1.0,0.0,0.0,0.0,1.0,0.0,0.0,0.0,1.0
1481903024682799241,707,1481903024680382059,,8.36207008362,-0.698605597019,145.444732666,0.00597900012508,1.0,0.0,0.0,0.0,1.0,0.0,0.0,0.0,1.0,-0.243902444839,2.74390244484,-0.18292683363,1.0,0.0,0.0,0.0,1.0,0.0,0.0,0.0,1.0,-0.378283862305,-0.114921679688,10.2519715088,1.0,0.0,0.0,0.0,1.0,0.0,0.0,0.0,1.0
1481903024703715646,708,1481903024701588881,,8.3604888916,-0.698524832726,145.43196106,0.00120299996343,1.0,0.0,0.0,0.0,1.0,0.0,0.0,0.0,1.0,-0.426829278469,3.96341490746,-0.243902444839,1.0,0.0,0.0,0.0,1.0,0.0,0.0,0.0,1.0,-0.45968671875,-0.0287304199219,10.3046439453,1.0,0.0,0.0,0.0,1.0,0.0,0.0,0.0,1.0
1481903024724571063,709,1481903024722204506,,8.38096523285,-0.704745292664,145.410888672,0.00135799997952,1.0,0.0,0.0,0.0,1.0,0.0,0.0,0.0,1.0,0.0,4.69512224197,-0.609756112099,1.0,0.0,0.0,0.0,1.0,0.0,0.0,0.0,1.0,-0.474051928711,-0.15801730957,10.2519715088,1.0,0.0,0.0,0.0,1.0,0.0,0.0,0.0,1.0
1481903024745329656,710,1481903024743678671,,8.42843151093,-0.706971347332,145.390106201,0.00121100002434,1.0,0.0,0.0,0.0,1.0,0.0,0.0,0.0,1.0,0.0,5.85365867615,-0.731707334518,1.0,0.0,0.0,0.0,1.0,0.0,0.0,0.0,1.0,-0.555454785156,-0.0574608398438,10.2232410889,1.0,0.0,0.0,0.0,1.0,0.0,0.0,0.0,1.0
1481903024766970591,711,1481903024765035544,,8.50022125244,-0.712998867035,145.364379883,0.00121999997646,1.0,0.0,0.0,0.0,1.0,0.0,0.0,0.0,1.0,-0.18292683363,6.09756088257,-0.609756112099,1.0,0.0,0.0,0.0,1.0,0.0,0.0,0.0,1.0,-0.641646044922,-0.0383072265625,10.1083194092,1.0,0.0,0.0,0.0,1.0,0.0,0.0,0.0,1.0
1481903024788325954,712,1481903024785823721,,8.57709598541,-0.71704685688,145.337997437,0.00104400003329,1.0,0.0,0.0,0.0,1.0,0.0,0.0,0.0,1.0,-0.304878056049,5.54878091812,-0.853658556938,1.0,0.0,0.0,0.0,1.0,0.0,0.0,0.0,1.0,-0.684741674805,-0.114921679688,10.060435376,1.0,0.0,0.0,0.0,1.0,0.0,0.0,0.0,1.0
1481903024809835535,713,1481903024806382211,,8.64760303497,-0.722945272923,145.316207886,0.00100399996154,1.0,0.0,0.0,0.0,1.0,0.0,0.0,0.0,1.0,-0.0609756112099,5.54878091812,-0.487804889679,1.0,0.0,0.0,0.0,1.0,0.0,0.0,0.0,1.0,-0.656011254883,-0.248996972656,10.2184526855,1.0,0.0,0.0,0.0,1.0,0.0,0.0,0.0,1.0
1481903024830266578,714,1481903024827047940,,8.71621990204,-0.728002786636,145.296585083,0.00136999995448,1.0,0.0,0.0,0.0,1.0,0.0,0.0,0.0,1.0,-0.243902444839,5.06097555161,-0.12195122242,1.0,0.0,0.0,0.0,1.0,0.0,0.0,0.0,1.0,-0.708683691406,-0.0430956298828,10.1992990723,1.0,0.0,0.0,0.0,1.0,0.0,0.0,0.0,1.0
1481903024854331569,715,1481903024849970122,,8.77726745605,-0.732564806938,145.277557373,0.0031429999508,1.0,0.0,0.0,0.0,1.0,0.0,0.0,0.0,1.0,-0.243902444839,4.69512224197,-0.426829278469,1.0,0.0,0.0,0.0,1.0,0.0,0.0,0.0,1.0,-0.636857641602,-0.0526724365234,10.2328178955,1.0,0.0,0.0,0.0,1.0,0.0,0.0,0.0,1.0
1481903024872422357,716,1481903024869633249,,8.8242931366,-0.738065183163,145.258270264,0.00121300003957,1.0,0.0,0.0,0.0,1.0,0.0,0.0,0.0,1.0,-0.426829278469,3.96341490746,-0.792682945728,1.0,0.0,0.0,0.0,1.0,0.0,0.0,0.0,1.0,-0.61770402832,-0.191536132812,10.2328178955,1.0,0.0,0.0,0.0,1.0,0.0,0.0,0.0,1.0
1481903024893525272,717,1481903024890907623,,8.85607242584,-0.739022433758,145.229690552,0.000982000026852,1.0,0.0,0.0,0.0,1.0,0.0,0.0,0.0,1.0,-0.304878056049,2.62195134163,-1.34146344662,1.0,0.0,0.0,0.0,1.0,0.0,0.0,0.0,1.0,-0.708683691406,-0.110133276367,10.2423947021,1.0,0.0,0.0,0.0,1.0,0.0,0.0,0.0,1.0
1481903024914656105,718,1481903024911455904,,8.87752246857,-0.744855701923,145.208572388,0.00101799995173,1.0,0.0,0.0,0.0,1.0,0.0,0.0,0.0,1.0,-0.18292683363,3.29268312454,-0.18292683363,1.0,0.0,0.0,0.0,1.0,0.0,0.0,0.0,1.0,-0.679953271484,-0.0718260498047,10.2328178955,1.0,0.0,0.0,0.0,1.0,0.0,0.0,0.0,1.0
1481903024935921155,719,1481903024932810903,,8.90026283264,-0.75064098835,145.194335938,0.00115999998525,1.0,0.0,0.0,0.0,1.0,0.0,0.0,0.0,1.0,-0.0609756112099,2.19512200356,-0.487804889679,1.0,0.0,0.0,0.0,1.0,0.0,0.0,0.0,1.0,-0.76614453125,-0.181959326172,10.2088758789,1.0,0.0,0.0,0.0,1.0,0.0,0.0,0.0,1.0
1481903024956742249,720,1481903024953722725,,8.89513778687,-0.756316304207,145.172073364,0.00101300003007,1.0,0.0,0.0,0.0,1.0,0.0,0.0,0.0,1.0,-0.243902444839,1.64634156227,-0.731707334518,1.0,0.0,0.0,0.0,1.0,0.0,0.0,0.0,1.0,-0.814028564453,-0.15322890625,10.2902787354,1.0,0.0,0.0,0.0,1.0,0.0,0.0,0.0,1.0
1481903024979410889,721,1481903024975158140,,8.88155269623,-0.757014989853,145.15953064,0.00107700005174,1.0,0.0,0.0,0.0,1.0,0.0,0.0,0.0,1.0,0.0,1.52439022064,0.18292683363,1.0,0.0,0.0,0.0,1.0,0.0,0.0,0.0,1.0,-0.732625708008,-0.148440512063,10.1945106689,1.0,0.0,0.0,0.0,1.0,0.0,0.0,0.0,1.0
1481903025000201879,722,1481903024996112931,,8.86050891876,-0.754526853561,145.145492554,0.00113800005056,1.0,0.0,0.0,0.0,1.0,0.0,0.0,0.0,1.0,-0.0609756112099,0.670731723309,-0.243902444839,1.0,0.0,0.0,0.0,1.0,0.0,0.0,0.0,1.0,-0.718260498047,-0.0814028564453,10.2471831055,1.0,0.0,0.0,0.0,1.0,0.0,0.0,0.0,1.0
1481903025020622036,723,1481903025018104490,,8.82713508606,-0.754198551178,145.131210327,0.00126100005582,1.0,0.0,0.0,0.0,1.0,0.0,0.0,0.0,1.0,-0.18292683363,1.40243899822,-0.12195122242,1.0,0.0,0.0,0.0,1.0,0.0,0.0,0.0,1.0,-0.670376464844,-0.114921679688,10.2376062988,1.0,0.0,0.0,0.0,1.0,0.0,0.0,0.0,1.0
1481903025042449689,724,1481903025039707769,,8.79351425171,-0.755795121193,145.119369507,0.00199200003408,1.0,0.0,0.0,0.0,1.0,0.0,0.0,0.0,1.0,-0.12195122242,1.2804877758,-0.365853667259,1.0,0.0,0.0,0.0,1.0,0.0,0.0,0.0,1.0,-0.727837304687,-0.148440512063,10.1705686523,1.0,0.0,0.0,0.0,1.0,0.0,0.0,0.0,1.0
1481903025063529167,725,1481903025060712508,,8.75885677338,-0.751168251038,145.102706909,0.00140900001861,1.0,0.0,0.0,0.0,1.0,0.0,0.0,0.0,1.0,-0.18292683363,1.40243899822,-0.487804889679,1.0,0.0,0.0,0.0,1.0,0.0,0.0,0.0,1.0,-0.517147558594,-0.124498486328,10.1992990723,1.0,0.0,0.0,0.0,1.0,0.0,0.0,0.0,1.0
1481903025084994790,726,1481903025081944225,,8.73514175415,-0.748915791512,145.089401245,0.00144799996633,1.0,0.0,0.0,0.0,1.0,0.0,0.0,0.0,1.0,-0.12195122242,1.76829278469,-0.18292683363,1.0,0.0,0.0,0.0,1.0,0.0,0.0,0.0,1.0,-0.565031591797,-0.105344873047,10.2902787354,1.0,0.0,0.0,0.0,1.0,0.0,0.0,0.0,1.0
1481903025105481145,727,1481903025102606673,,8.71733283997,-0.747069895267,145.075302124,0.000975999981165,1.0,0.0,0.0,0.0,1.0,0.0,0.0,0.0,1.0,-0.243902444839,2.13414645195,-0.426829278469,1.0,0.0,0.0,0.0,1.0,0.0,0.0,0.0,1.0,-0.593762048251,-0.167594116211,10.3094323486,1.0,0.0,0.0,0.0,1.0,0.0,0.0,0.0,1.0
1481903025126442342,728,1481903025123576360,,8.71051311493,-0.748920142651,145.057266235,0.00100199994631,1.0,0.0,0.0,0.0,1.0,0.0,0.0,0.0,1.0,-0.304878056049,2.80487799644,-0.18292683363,1.0,0.0,0.0,0.0,1.0,0.0,0.0,0.0,1.0,-0.574608398438,-0.0861912597656,10.2711251221,1.0,0.0,0.0,0.0,1.0,0.0,0.0,0.0,1.0
1481903025147659320,729,1481903025144870108,,8.7180223465,-0.746941506863,145.040557861,0.00106699997559,1.0,0.0,0.0,0.0,1.0,0.0,0.0,0.0,1.0,0.0609756112099,3.10975623131,-0.304878056049,1.0,0.0,0.0,0.0,1.0,0.0,0.0,0.0,1.0,-0.574608398438,-0.0814028564453,10.2950671387,1.0,0.0,0.0,0.0,1.0,0.0,0.0,0.0,1.0
1481903025168738954,730,1481903025166187763,,8.72560787201,-0.748012363911,145.02003479,0.00101200002246,1.0,0.0,0.0,0.0,1.0,0.0,0.0,0.0,1.0,0.12195122242,3.29268312454,-0.365853667259,1.0,0.0,0.0,0.0,1.0,0.0,0.0,0.0,1.0,-0.612915625,-0.124498486328,10.0652237793,1.0,0.0,0.0,0.0,1.0,0.0,0.0,0.0,1.0
1481903025188993174,731,1481903025186426097,,8.74469566345,-0.746700048447,145.002960205,0.00101400003769,1.0,0.0,0.0,0.0,1.0,0.0,0.0,0.0,1.0,-0.12195122242,3.53658556938,-0.365853667259,1.0,0.0,0.0,0.0,1.0,0.0,0.0,0.0,1.0,-0.684741674805,-0.0957680664062,10.2136642822,1.0,0.0,0.0,0.0,1.0,0.0,0.0,0.0,1.0
1481903025210581401,732,1481903025207592294,,8.76994800568,-0.746510326862,144.982070923,0.00103199994192,1.0,0.0,0.0,0.0,1.0,0.0,0.0,0.0,1.0,-0.365853667259,3.59756112099,-0.731707334518,1.0,0.0,0.0,0.0,1.0,0.0,0.0,0.0,1.0,-0.612915625,-0.124498486328,10.2711251221,1.0,0.0,0.0,0.0,1.0,0.0,0.0,0.0,1.0
1481903025238295238,733,1481903025228952553,,8.79567241669,-0.748382806778,144.962631226,0.00100199994631,1.0,0.0,0.0,0.0,1.0,0.0,0.0,0.0,1.0,-0.304878056049,3.04878044128,-0.304878056049,1.0,0.0,0.0,0.0,1.0,0.0,0.0,0.0,1.0,-0.689530078125,-0.143652099609,10.2519715088,1.0,0.0,0.0,0.0,1.0,0.0,0.0,0.0,1.0
1481903025254759363,734,1481903025250993591,,8.82464981079,-0.749829232693,144.944595337,0.00132599996869,1.0,0.0,0.0,0.0,1.0,0.0,0.0,0.0,1.0,-0.243902444839,3.17073178291,-0.426829278469,1.0,0.0,0.0,0.0,1.0,0.0,0.0,0.0,1.0,-0.76135612793,-0.105344873047,10.1274730225,1.0,0.0,0.0,0.0,1.0,0.0,0.0,0.0,1.0
1481903025273830096,735,1481903025271253904,,8.83858394623,-0.751004397869,144.926803589,0.00120399997104,1.0,0.0,0.0,0.0,1.0,0.0,0.0,0.0,1.0,-0.12195122242,2.68292689323,-0.304878056049,1.0,0.0,0.0,0.0,1.0,0.0,0.0,0.0,1.0,-0.689530078125,-0.0239420166016,10.2232410889,1.0,0.0,0.0,0.0,1.0,0.0,0.0,0.0,1.0
1481903025296198685,736,1481903025292520830,,8.84414768219,-0.75325936079,144.911087036,0.00136899994686,1.0,0.0,0.0,0.0,1.0,0.0,0.0,0.0,1.0,0.304878056049,2.37804889679,-0.304878056049,1.0,0.0,0.0,0.0,1.0,0.0,0.0,0.0,1.0,-0.660799658203,-0.148440512063,10.3094323486,1.0,0.0,0.0,0.0,1.0,0.0,0.0,0.0,1.0
1481903025315626657,737,1481903025312865206,,8.83383464813,-0.754882216454,144.890792847,0.00155000004452,1.0,0.0,0.0,0.0,1.0,0.0,0.0,0.0,1.0,0.0,1.64634156227,-0.365853667259,1.0,0.0,0.0,0.0,1.0,0.0,0.0,0.0,1.0,-0.651222851562,-0.124498486328,10.2423947021,1.0,0.0,0.0,0.0,1.0,0.0,0.0,0.0,1.0
1481903025337076291,738,1481903025333720310,,8.82259941101,-0.755924761295,144.873962402,0.000981000019237,1.0,0.0,0.0,0.0,1.0,0.0,0.0,0.0,1.0,0.0,1.8902438879,-0.12195122242,1.0,0.0,0.0,0.0,1.0,0.0,0.0,0.0,1.0,-0.689530078125,-0.162805712891,10.1992990723,1.0,0.0,0.0,0.0,1.0,0.0,0.0,0.0,1.0
1481903025358323789,739,1481903025355520463,,8.81433200836,-0.749946892262,144.860519409,0.00119600002654,1.0,0.0,0.0,0.0,1.0,0.0,0.0,0.0,1.0,0.0,1.58536589146,-0.0609756112099,1.0,0.0,0.0,0.0,1.0,0.0,0.0,0.0,1.0,-0.61770402832,-0.00478840332031,10.1322614258,1.0,0.0,0.0,0.0,1.0,0.0,0.0,0.0,1.0
1481903025378408322,740,1481903025376076349,,8.79604148865,-0.75041103363,144.844024658,0.00135300005786,1.0,0.0,0.0,0.0,1.0,0.0,0.0,0.0,1.0,-0.0609756112099,1.58536589146,-0.243902444839,1.0,0.0,0.0,0.0,1.0,0.0,0.0,0.0,1.0,-0.61770402832,-0.167594116211,10.3381627686,1.0,0.0,0.0,0.0,1.0,0.0,0.0,0.0,1.0
1481903025400552798,741,1481903025397544576,,8.78328609467,-0.750744760036,144.830368042,0.00185999996029,1.0,0.0,0.0,0.0,1.0,0.0,0.0,0.0,1.0,-0.18292683363,1.95121955872,0.0,1.0,0.0,0.0,0.0,1.0,0.0,0.0,0.0,1.0,-0.660799658203,-0.076614453125,10.2423947021,1.0,0.0,0.0,0.0,1.0,0.0,0.0,0.0,1.0
1481903025421171027,742,1481903025418624940,,8.77165317535,-0.747491598129,144.813095093,0.00130700005684,1.0,0.0,0.0,0.0,1.0,0.0,0.0,0.0,1.0,0.12195122242,1.8902438879,-0.304878056049,1.0,0.0,0.0,0.0,1.0,0.0,0.0,0.0,1.0,-0.622492431641,-0.076614453125,10.1418382324,1.0,0.0,0.0,0.0,1.0,0.0,0.0,0.0,1.0
1481903025442791285,743,1481903025439886969,,8.76192474365,-0.744846105576,144.797821045,0.00124300003517,1.0,0.0,0.0,0.0,1.0,0.0,0.0,0.0,1.0,0.0,2.56097555161,-0.304878056049,1.0,0.0,0.0,0.0,1.0,0.0,0.0,0.0,1.0,-0.636857641602,-0.15322890625,10.1466266357,1.0,0.0,0.0,0.0,1.0,0.0,0.0,0.0,1.0
1481903025463608785,744,1481903025459636138,,8.76261806488,-0.744164764881,144.780685425,0.00147799996193,1.0,0.0,0.0,0.0,1.0,0.0,0.0,0.0,1.0,0.12195122242,2.56097555161,-0.426829278469,1.0,0.0,0.0,0.0,1.0,0.0,0.0,0.0,1.0,-0.61770402832,-0.0622492431641,10.2376062988,1.0,0.0,0.0,0.0,1.0,0.0,0.0,0.0,1.0
1481903025483786807,745,1481903025481279730,,8.7602558136,-0.746847808361,144.761489868,0.00152199994773,1.0,0.0,0.0,0.0,1.0,0.0,0.0,0.0,1.0,-0.243902444839,2.86585378647,-0.426829278469,1.0,0.0,0.0,0.0,1.0,0.0,0.0,0.0,1.0,-0.565031591797,-0.15322890625,10.1897222656,1.0,0.0,0.0,0.0,1.0,0.0,0.0,0.0,1.0
1481903025509274555,746,1481903025502336708,,8.76944541931,-0.744320809841,144.7474823,0.00119600002654,1.0,0.0,0.0,0.0,1.0,0.0,0.0,0.0,1.0,-0.12195122242,2.98780488968,-0.304878056049,1.0,0.0,0.0,0.0,1.0,0.0,0.0,0.0,1.0,-0.627280834961,-0.076614453125,10.2711251221,1.0,0.0,0.0,0.0,1.0,0.0,0.0,0.0,1.0
1481903025525728524,747,1481903025522757646,,8.77817726135,-0.745822966099,144.730987549,0.00110500003211,1.0,0.0,0.0,0.0,1.0,0.0,0.0,0.0,1.0,-0.304878056049,3.10975623131,-0.670731723309,1.0,0.0,0.0,0.0,1.0,0.0,0.0,0.0,1.0,-0.622492431641,-0.0622492431641,10.165780249,1.0,0.0,0.0,0.0,1.0,0.0,0.0,0.0,1.0
1481903025545922067,748,1481903025543222542,,8.78897476196,-0.74590998888,144.714111328,0.0012309999438,1.0,0.0,0.0,0.0,1.0,0.0,0.0,0.0,1.0,0.0609756112099,2.98780488968,-0.12195122242,1.0,0.0,0.0,0.0,1.0,0.0,0.0,0.0,1.0,-0.713472094727,-0.162805712891,10.1945106689,1.0,0.0,0.0,0.0,1.0,0.0,0.0,0.0,1.0
1481903025567158316,749,1481903025564565666,,8.80159091949,-0.744973599911,144.697601318,0.00103499996476,1.0,0.0,0.0,0.0,1.0,0.0,0.0,0.0,1.0,0.0,2.68292689323,-0.548780500889,1.0,0.0,0.0,0.0,1.0,0.0,0.0,0.0,1.0,-0.708683691406,-0.134075302102,10.1322614258,1.0,0.0,0.0,0.0,1.0,0.0,0.0,0.0,1.0
1481903025588767272,750,1481903025585860143,,8.81004428864,-0.748049080372,144.679016113,0.0011190000223,1.0,0.0,0.0,0.0,1.0,0.0,0.0,0.0,1.0,-0.18292683363,2.80487799644,-0.426829278469,1.0,0.0,0.0,0.0,1.0,0.0,0.0,0.0,1.0,-0.718260498047,-0.0957680664062,10.2088758789,1.0,0.0,0.0,0.0,1.0,0.0,0.0,0.0,1.0
1481903025609011075,751,1481903025606306811,,8.81742954254,-0.749412715435,144.661895752,0.0013419999741,1.0,0.0,0.0,0.0,1.0,0.0,0.0,0.0,1.0,0.0609756112099,2.56097555161,-0.304878056049,1.0,0.0,0.0,0.0,1.0,0.0,0.0,0.0,1.0,-0.775721337891,-0.0814028564453,10.1562034424,1.0,0.0,0.0,0.0,1.0,0.0,0.0,0.0,1.0
1481903025630439719,752,1481903025627389987,,8.82034301758,-0.749234616756,144.644973755,0.00125800003298,1.0,0.0,0.0,0.0,1.0,0.0,0.0,0.0,1.0,-0.18292683363,2.19512200356,-0.609756112099,1.0,0.0,0.0,0.0,1.0,0.0,0.0,0.0,1.0,-0.670376464844,-0.076614453125,10.3094323486,1.0,0.0,0.0,0.0,1.0,0.0,0.0,0.0,1.0
1481903025653977524,753,1481903025651571593,,8.82051563263,-0.750966370106,144.627502441,0.00557099981233,1.0,0.0,0.0,0.0,1.0,0.0,0.0,0.0,1.0,-0.426829278469,2.5,-0.18292683363,1.0,0.0,0.0,0.0,1.0,0.0,0.0,0.0,1.0,-0.694318481445,-0.0957680664062,10.2280294922,1.0,0.0,0.0,0.0,1.0,0.0,0.0,0.0,1.0
1481903025674396014,754,1481903025672133937,,8.8111076355,-0.754220306873,144.611053467,0.00136100000236,1.0,0.0,0.0,0.0,1.0,0.0,0.0,0.0,1.0,0.0,2.13414645195,-0.365853667259,1.0,0.0,0.0,0.0,1.0,0.0,0.0,0.0,1.0,-0.713472094727,-0.162805712891,10.2232410889,1.0,0.0,0.0,0.0,1.0,0.0,0.0,0.0,1.0
1481903025696623615,755,1481903025693329508,,8.79909610748,-0.752856731415,144.596847534,0.00121200003196,1.0,0.0,0.0,0.0,1.0,0.0,0.0,0.0,1.0,-0.0609756112099,2.07317066193,-0.426829278469,1.0,0.0,0.0,0.0,1.0,0.0,0.0,0.0,1.0,-0.756567724609,-0.124498486328,10.2471831055,1.0,0.0,0.0,0.0,1.0,0.0,0.0,0.0,1.0
1481903025717141011,756,1481903025714452788,,8.78228282928,-0.754713118076,144.574188232,0.00106299994513,1.0,0.0,0.0,0.0,1.0,0.0,0.0,0.0,1.0,0.0609756112099,1.76829278469,-0.670731723309,1.0,0.0,0.0,0.0,1.0,0.0,0.0,0.0,1.0,-0.603338854892,-0.0622492431641,10.3573163818,1.0,0.0,0.0,0.0,1.0,0.0,0.0,0.0,1.0
1481903025736931065,757,1481903025735205913,,8.76613807678,-0.752992630005,144.55809021,0.00110200000927,1.0,0.0,0.0,0.0,1.0,0.0,0.0,0.0,1.0,0.0609756112099,2.37804889679,-0.18292683363,1.0,0.0,0.0,0.0,1.0,0.0,0.0,0.0,1.0,-0.598550451572,-0.138863696289,10.3285859619,1.0,0.0,0.0,0.0,1.0,0.0,0.0,0.0,1.0
1481903025759800435,758,1481903025756648047,,8.76139259338,-0.751715481281,144.544067383,0.00135499995667,1.0,0.0,0.0,0.0,1.0,0.0,0.0,0.0,1.0,-0.0609756112099,2.5,-0.18292683363,1.0,0.0,0.0,0.0,1.0,0.0,0.0,0.0,1.0,-0.603338854892,-0.129286889648,10.3190091553,1.0,0.0,0.0,0.0,1.0,0.0,0.0,0.0,1.0
1481903025779665593,759,1481903025777146849,,8.75330257416,-0.754319190979,144.523406982,0.00122400000691,1.0,0.0,0.0,0.0,1.0,0.0,0.0,0.0,1.0,-0.243902444839,2.37804889679,-0.609756112099,1.0,0.0,0.0,0.0,1.0,0.0,0.0,0.0,1.0,-0.660799658203,-0.15801730957,10.180145459,1.0,0.0,0.0,0.0,1.0,0.0,0.0,0.0,1.0
1481903025801629704,760,1481903025799396324,,8.75650215149,-0.754362046719,144.505813599,0.00156999996398,1.0,0.0,0.0,0.0,1.0,0.0,0.0,0.0,1.0,0.12195122242,2.68292689323,-0.365853667259,1.0,0.0,0.0,0.0,1.0,0.0,0.0,0.0,1.0,-0.751779321289,-0.0287304199219,10.1945106689,1.0,0.0,0.0,0.0,1.0,0.0,0.0,0.0,1.0
1481903025821826060,761,1481903025819057369,,8.76259040833,-0.754282832146,144.486022949,0.00175199995283,1.0,0.0,0.0,0.0,1.0,0.0,0.0,0.0,1.0,-0.426829278469,2.62195134163,-0.548780500889,1.0,0.0,0.0,0.0,1.0,0.0,0.0,0.0,1.0,-0.574608398438,-0.134075302102,10.165780249,1.0,0.0,0.0,0.0,1.0,0.0,0.0,0.0,1.0
1481903025842638247,762,1481903025840682054,,8.76827716827,-0.757758975029,144.468292236,0.00200299988501,1.0,0.0,0.0,0.0,1.0,0.0,0.0,0.0,1.0,-0.12195122242,2.98780488968,-0.243902444839,1.0,0.0,0.0,0.0,1.0,0.0,0.0,0.0,1.0,-0.60812722168,-0.162805712891,10.2280294922,1.0,0.0,0.0,0.0,1.0,0.0,0.0,0.0,1.0
1481903025864083714,763,1481903025862041896,,8.78133201599,-0.758149683475,144.451797485,0.00131800002418,1.0,0.0,0.0,0.0,1.0,0.0,0.0,0.0,1.0,-0.0609756112099,2.92682933807,-0.304878056049,1.0,0.0,0.0,0.0,1.0,0.0,0.0,0.0,1.0,-0.689530078125,-0.0861912597656,10.2711251221,1.0,0.0,0.0,0.0,1.0,0.0,0.0,0.0,1.0
1481903025884673297,764,1481903025882574813,,8.78976726532,-0.759668469429,144.432952881,0.00110100000165,1.0,0.0,0.0,0.0,1.0,0.0,0.0,0.0,1.0,0.0,2.86585378647,-0.365853667259,1.0,0.0,0.0,0.0,1.0,0.0,0.0,0.0,1.0,-0.579396801758,-0.0239420166016,10.2232410889,1.0,0.0,0.0,0.0,1.0,0.0,0.0,0.0,1.0
1481903025905928087,765,1481903025903949082,,8.79715442657,-0.760513365269,144.415481567,0.00127100001555,1.0,0.0,0.0,0.0,1.0,0.0,0.0,0.0,1.0,0.0,2.5,-0.304878056049,1.0,0.0,0.0,0.0,1.0,0.0,0.0,0.0,1.0,-0.646434448242,-0.067037651051,10.2519715088,1.0,0.0,0.0,0.0,1.0,0.0,0.0,0.0,1.0
1481903025927427981,766,1481903025925079185,,8.80111503601,-0.763364732265,144.398010254,0.00113500002772,1.0,0.0,0.0,0.0,1.0,0.0,0.0,0.0,1.0,-0.0609756112099,2.37804889679,-0.670731723309,1.0,0.0,0.0,0.0,1.0,0.0,0.0,0.0,1.0,-0.660799658203,-0.0622492431641,10.1753570557,1.0,0.0,0.0,0.0,1.0,0.0,0.0,0.0,1.0
1481903025948282512,767,1481903025945665123,,8.80046653748,-0.76366430521,144.381958008,0.00159899995197,1.0,0.0,0.0,0.0,1.0,0.0,0.0,0.0,1.0,-0.18292683363,2.25609779358,-0.426829278469,1.0,0.0,0.0,0.0,1.0,0.0,0.0,0.0,1.0,-0.679953271484,-0.129286889648,10.2423947021,1.0,0.0,0.0,0.0,1.0,0.0,0.0,0.0,1.0
1481903025969347563,768,1481903025966978923,,8.79770851135,-0.763376712799,144.365020752,0.00110100000165,1.0,0.0,0.0,0.0,1.0,0.0,0.0,0.0,1.0,0.18292683363,2.13414645195,-0.426829278469,1.0,0.0,0.0,0.0,1.0,0.0,0.0,0.0,1.0,-0.660799658203,-0.076614453125,10.2807019287,1.0,0.0,0.0,0.0,1.0,0.0,0.0,0.0,1.0
1481903025991056936,769,1481903025988953451,,8.7934961319,-0.763982534409,144.348709106,0.00153300003149,1.0,0.0,0.0,0.0,1.0,0.0,0.0,0.0,1.0,-0.18292683363,2.25609779358,-0.365853667259,1.0,0.0,0.0,0.0,1.0,0.0,0.0,0.0,1.0,-0.746990917969,-0.181959326172,10.3764699951,1.0,0.0,0.0,0.0,1.0,0.0,0.0,0.0,1.0
1481903026012508340,770,1481903026010483657,,8.78319644928,-0.766639471054,144.332214355,0.00161399994977,1.0,0.0,0.0,0.0,1.0,0.0,0.0,0.0,1.0,-0.12195122242,1.95121955872,-0.243902444839,1.0,0.0,0.0,0.0,1.0,0.0,0.0,0.0,1.0,-0.679953271484,-0.0526724365234,10.2519715088,1.0,0.0,0.0,0.0,1.0,0.0,0.0,0.0,1.0
1481903026034647815,771,1481903026031633500,,8.77587032318,-0.767451107502,144.316558838,0.00114800001029,1.0,0.0,0.0,0.0,1.0,0.0,0.0,0.0,1.0,0.0,2.25609779358,-0.426829278469,1.0,0.0,0.0,0.0,1.0,0.0,0.0,0.0,1.0,-0.593762048251,-0.105344873047,10.2184526855,1.0,0.0,0.0,0.0,1.0,0.0,0.0,0.0,1.0
1481903026056393854,772,1481903026052880946,,8.76825618744,-0.768087863922,144.300567627,0.00390099990182,1.0,0.0,0.0,0.0,1.0,0.0,0.0,0.0,1.0,-0.243902444839,2.31707310677,-0.365853667259,1.0,0.0,0.0,0.0,1.0,0.0,0.0,0.0,1.0,-0.61770402832,-0.0861912597656,10.1945106689,1.0,0.0,0.0,0.0,1.0,0.0,0.0,0.0,1.0
1481903026075236880,773,1481903026073419593,,8.76357841492,-0.766877472401,144.284606934,0.00107700005174,1.0,0.0,0.0,0.0,1.0,0.0,0.0,0.0,1.0,0.12195122242,2.37804889679,-0.304878056049,1.0,0.0,0.0,0.0,1.0,0.0,0.0,0.0,1.0,-0.622492431641,-0.143652099609,10.2950671387,1.0,0.0,0.0,0.0,1.0,0.0,0.0,0.0,1.0
1481903026096354952,774,1481903026093946051,,8.75804901123,-0.76936930418,144.268157959,0.00102500000503,1.0,0.0,0.0,0.0,1.0,0.0,0.0,0.0,1.0,-0.548780500889,2.25609779358,-0.304878056049,1.0,0.0,0.0,0.0,1.0,0.0,0.0,0.0,1.0,-0.713472094727,-0.067037651051,10.1609918457,1.0,0.0,0.0,0.0,1.0,0.0,0.0,0.0,1.0
1481903026118309844,775,1481903026114867978,,8.74083614349,-0.769783735275,144.240936279,0.00104700005613,1.0,0.0,0.0,0.0,1.0,0.0,0.0,0.0,1.0,-0.12195122242,2.07317066193,-1.09756100178,1.0,0.0,0.0,0.0,1.0,0.0,0.0,0.0,1.0,-0.651222851562,-0.0526724365234,10.1370498291,1.0,0.0,0.0,0.0,1.0,0.0,0.0,0.0,1.0
1481903026138359429,776,1481903026135840217,,8.73821926117,-0.769365131855,144.219665527,0.00116800004616,1.0,0.0,0.0,0.0,1.0,0.0,0.0,0.0,1.0,0.304878056049,3.04878044128,-0.18292683363,1.0,0.0,0.0,0.0,1.0,0.0,0.0,0.0,1.0,-0.651222851562,0.00957680664062,10.1753570557,1.0,0.0,0.0,0.0,1.0,0.0,0.0,0.0,1.0
1481903026159747240,777,1481903026157252090,,8.74880123138,-0.766886174679,144.206069946,0.00116800004616,1.0,0.0,0.0,0.0,1.0,0.0,0.0,0.0,1.0,-0.365853667259,2.80487799644,-0.548780500889,1.0,0.0,0.0,0.0,1.0,0.0,0.0,0.0,1.0,-0.636857641602,-0.105344873047,10.1418382324,1.0,0.0,0.0,0.0,1.0,0.0,0.0,0.0,1.0
1481903026181412654,778,1481903026178545786,,8.75849914551,-0.772032737732,144.185760498,0.00135899998713,1.0,0.0,0.0,0.0,1.0,0.0,0.0,0.0,1.0,0.0609756112099,3.10975623131,-0.365853667259,1.0,0.0,0.0,0.0,1.0,0.0,0.0,0.0,1.0,-0.646434448242,-0.134075302102,10.1178962158,1.0,0.0,0.0,0.0,1.0,0.0,0.0,0.0,1.0
1481903026202403799,779,1481903026199805108,,8.77459526062,-0.777919054031,144.169158936,0.00115999998525,1.0,0.0,0.0,0.0,1.0,0.0,0.0,0.0,1.0,-0.304878056049,3.10975623131,-0.304878056049,1.0,0.0,0.0,0.0,1.0,0.0,0.0,0.0,1.0,-0.660799658203,-0.129286889648,10.2040874756,1.0,0.0,0.0,0.0,1.0,0.0,0.0,0.0,1.0
1481903026223722339,780,1481903026221499064,,8.78851127625,-0.775446534157,144.148574829,0.00166199996602,1.0,0.0,0.0,0.0,1.0,0.0,0.0,0.0,1.0,0.0,2.92682933807,-0.609756112099,1.0,0.0,0.0,0.0,1.0,0.0,0.0,0.0,1.0,-0.675164868164,-0.138863696289,10.1370498291,1.0,0.0,0.0,0.0,1.0,0.0,0.0,0.0,1.0
1481903026244392652,781,1481903026242334480,,8.79894733429,-0.777444541454,144.130630493,0.00142600003164,1.0,0.0,0.0,0.0,1.0,0.0,0.0,0.0,1.0,0.304878056049,2.86585378647,-0.304878056049,1.0,0.0,0.0,0.0,1.0,0.0,0.0,0.0,1.0,-0.742202514648,-0.119710083008,10.2519715088,1.0,0.0,0.0,0.0,1.0,0.0,0.0,0.0,1.0
1481903026266166816,782,1481903026263256250,,8.80584526062,-0.780488550663,144.113540649,0.00117800000589,1.0,0.0,0.0,0.0,1.0,0.0,0.0,0.0,1.0,-0.12195122242,2.43902444839,-0.304878056049,1.0,0.0,0.0,0.0,1.0,0.0,0.0,0.0,1.0,-0.699106884766,-0.129286889648,10.2759135254,1.0,0.0,0.0,0.0,1.0,0.0,0.0,0.0,1.0
1481903026286573223,783,1481903026284097864,,8.80647087097,-0.78319311142,144.095413208,0.00101100001484,1.0,0.0,0.0,0.0,1.0,0.0,0.0,0.0,1.0,-0.18292683363,2.25609779358,-0.426829278469,1.0,0.0,0.0,0.0,1.0,0.0,0.0,0.0,1.0,-0.670376464844,-0.148440512063,10.180145459,1.0,0.0,0.0,0.0,1.0,0.0,0.0,0.0,1.0
1481903026308279105,784,1481903026305054374,,8.80617046356,-0.781455516815,144.079238892,0.00101999996696,1.0,0.0,0.0,0.0,1.0,0.0,0.0,0.0,1.0,0.0609756112099,2.13414645195,-0.426829278469,1.0,0.0,0.0,0.0,1.0,0.0,0.0,0.0,1.0,-0.703895288086,-0.067037651051,10.1514150391,1.0,0.0,0.0,0.0,1.0,0.0,0.0,0.0,1.0
1481903026330733945,785,1481903026325713020,,8.79980278015,-0.779791235924,144.06362915,0.00110300001688,1.0,0.0,0.0,0.0,1.0,0.0,0.0,0.0,1.0,-0.0609756112099,1.8902438879,-0.426829278469,1.0,0.0,0.0,0.0,1.0,0.0,0.0,0.0,1.0,-0.727837304687,-0.129286889648,10.3477395752,1.0,0.0,0.0,0.0,1.0,0.0,0.0,0.0,1.0
1481903026350456864,786,1481903026346150260,,8.78862571716,-0.778936624527,144.049301147,0.000973000016529,1.0,0.0,0.0,0.0,1.0,0.0,0.0,0.0,1.0,0.12195122242,2.07317066193,-0.487804889679,1.0,0.0,0.0,0.0,1.0,0.0,0.0,0.0,1.0,-0.694318481445,-0.076614453125,10.165780249,1.0,0.0,0.0,0.0,1.0,0.0,0.0,0.0,1.0
1481903026371364051,787,1481903026367322759,,8.77883815765,-0.777301371098,144.033233643,0.000968999986071,1.0,0.0,0.0,0.0,1.0,0.0,0.0,0.0,1.0,-0.12195122242,2.01219511032,-0.365853667259,1.0,0.0,0.0,0.0,1.0,0.0,0.0,0.0,1.0,-0.656011254883,-0.15322890625,10.0891657959,1.0,0.0,0.0,0.0,1.0,0.0,0.0,0.0,1.0
1481903026392330352,788,1481903026388081144,,8.76881504059,-0.775923192501,144.017944336,0.000999000039883,1.0,0.0,0.0,0.0,1.0,0.0,0.0,0.0,1.0,0.12195122242,2.07317066193,-0.18292683363,1.0,0.0,0.0,0.0,1.0,0.0,0.0,0.0,1.0,-0.679953271484,-0.0814028564453,10.2088758789,1.0,0.0,0.0,0.0,1.0,0.0,0.0,0.0,1.0
1481903026412897331,789,1481903026408643280,,8.76230335236,-0.776258826256,144.003509521,0.00102900003549,1.0,0.0,0.0,0.0,1.0,0.0,0.0,0.0,1.0,0.0,2.01219511032,-0.426829278469,1.0,0.0,0.0,0.0,1.0,0.0,0.0,0.0,1.0,-0.627280834961,-0.0718260498047,10.1131078125,1.0,0.0,0.0,0.0,1.0,0.0,0.0,0.0,1.0
1481903026433167645,790,1481903026429388488,,8.75604438782,-0.775730550289,143.987091064,0.00109399994835,1.0,0.0,0.0,0.0,1.0,0.0,0.0,0.0,1.0,-0.0609756112099,2.37804889679,-0.18292683363,1.0,0.0,0.0,0.0,1.0,0.0,0.0,0.0,1.0,-0.612915625,-0.15322890625,10.2376062988,1.0,0.0,0.0,0.0,1.0,0.0,0.0,0.0,1.0
1481903026452389107,791,1481903026450206456,,8.75158977509,-0.775615870953,143.970123291,0.00126799999271,1.0,0.0,0.0,0.0,1.0,0.0,0.0,0.0,1.0,-0.0609756112099,2.56097555161,-0.487804889679,1.0,0.0,0.0,0.0,1.0,0.0,0.0,0.0,1.0,-0.689530078125,-0.0909796630859,10.2902787354,1.0,0.0,0.0,0.0,1.0,0.0,0.0,0.0,1.0
1481903026472673014,792,1481903026470729165,,8.75158596039,-0.776638746262,143.952911377,0.00120199995581,1.0,0.0,0.0,0.0,1.0,0.0,0.0,0.0,1.0,0.18292683363,2.56097555161,-0.548780500889,1.0,0.0,0.0,0.0,1.0,0.0,0.0,0.0,1.0,-0.675164868164,-0.0909796630859,10.2136642822,1.0,0.0,0.0,0.0,1.0,0.0,0.0,0.0,1.0
1481903026493709628,793,1481903026491319530,,8.75860786438,-0.775824069977,143.93522644,0.00126199994702,1.0,0.0,0.0,0.0,1.0,0.0,0.0,0.0,1.0,0.18292683363,2.92682933807,-0.365853667259,1.0,0.0,0.0,0.0,1.0,0.0,0.0,0.0,1.0,-0.646434448242,-0.076614453125,10.1274730225,1.0,0.0,0.0,0.0,1.0,0.0,0.0,0.0,1.0
1481903026514299993,794,1481903026512474685,,8.76929283142,-0.777918696404,143.917282104,0.00140199996531,1.0,0.0,0.0,0.0,1.0,0.0,0.0,0.0,1.0,0.18292683363,2.80487799644,-0.12195122242,1.0,0.0,0.0,0.0,1.0,0.0,0.0,0.0,1.0,-0.708683691406,-0.15322890625,10.2615483154,1.0,0.0,0.0,0.0,1.0,0.0,0.0,0.0,1.0
1481903026537193268,795,1481903026533943537,,8.78129577637,-0.775612652302,143.900039673,0.00124999997206,1.0,0.0,0.0,0.0,1.0,0.0,0.0,0.0,1.0,0.0609756112099,2.86585378647,-0.304878056049,1.0,0.0,0.0,0.0,1.0,0.0,0.0,0.0,1.0,-0.60812722168,-0.148440512063,10.1992990723,1.0,0.0,0.0,0.0,1.0,0.0,0.0,0.0,1.0
1481903026559060036,796,1481903026556670719,,8.79051113129,-0.773156344891,143.883880615,0.00102099997457,1.0,0.0,0.0,0.0,1.0,0.0,0.0,0.0,1.0,0.18292683363,2.43902444839,-0.243902444839,1.0,0.0,0.0,0.0,1.0,0.0,0.0,0.0,1.0,-0.593762048251,-0.0909796630859,10.2328178955,1.0,0.0,0.0,0.0,1.0,0.0,0.0,0.0,1.0
1481903026581982947,797,1481903026578872747,,8.79853534698,-0.774011015892,143.865570068,0.00368799990974,1.0,0.0,0.0,0.0,1.0,0.0,0.0,0.0,1.0,-0.0609756112099,2.5,-0.304878056049,1.0,0.0,0.0,0.0,1.0,0.0,0.0,0.0,1.0,-0.713472094727,-0.0574608398438,10.2423947021,1.0,0.0,0.0,0.0,1.0,0.0,0.0,0.0,1.0
1481903026605160910,798,1481903026599505820,,8.80198955536,-0.773691833019,143.848632812,0.00147200003266,1.0,0.0,0.0,0.0,1.0,0.0,0.0,0.0,1.0,-0.0609756112099,2.68292689323,-0.426829278469,1.0,0.0,0.0,0.0,1.0,0.0,0.0,0.0,1.0,-0.703895288086,-0.0718260498047,10.1322614258,1.0,0.0,0.0,0.0,1.0,0.0,0.0,0.0,1.0
1481903026626095440,799,1481903026620823110,,8.80350494385,-0.776046395302,143.832366943,0.001111999969,1.0,0.0,0.0,0.0,1.0,0.0,0.0,0.0,1.0,-0.18292683363,2.19512200356,-0.304878056049,1.0,0.0,0.0,0.0,1.0,0.0,0.0,0.0,1.0,-0.723048901367,-0.148440512063,10.2088758789,1.0,0.0,0.0,0.0,1.0,0.0,0.0,0.0,1.0
1481903026644762841,800,1481903026641681495,,8.8036737442,-0.774038434029,143.816101074,0.00109899998643,1.0,0.0,0.0,0.0,1.0,0.0,0.0,0.0,1.0,-0.243902444839,2.19512200356,-0.609756112099,1.0,0.0,0.0,0.0,1.0,0.0,0.0,0.0,1.0,-0.689530078125,-0.0909796630859,10.2376062988,1.0,0.0,0.0,0.0,1.0,0.0,0.0,0.0,1.0
1481903026665962267,801,1481903026663233472,,8.79638385773,-0.774910509586,143.80027771,0.00164499995299,1.0,0.0,0.0,0.0,1.0,0.0,0.0,0.0,1.0,0.12195122242,2.25609779358,-0.304878056049,1.0,0.0,0.0,0.0,1.0,0.0,0.0,0.0,1.0,-0.660799658203,-0.076614453125,10.0939541992,1.0,0.0,0.0,0.0,1.0,0.0,0.0,0.0,1.0
1481903026687760181,802,1481903026684438627,,8.7865562439,-0.776849746704,143.785202026,0.00110899994615,1.0,0.0,0.0,0.0,1.0,0.0,0.0,0.0,1.0,-0.0609756112099,2.13414645195,-0.243902444839,1.0,0.0,0.0,0.0,1.0,0.0,0.0,0.0,1.0,-0.612915625,-0.143652099609,10.2950671387,1.0,0.0,0.0,0.0,1.0,0.0,0.0,0.0,1.0
1481903026707393152,803,1481903026705026908,,8.77862167358,-0.775675058365,143.769088745,0.000979000004008,1.0,0.0,0.0,0.0,1.0,0.0,0.0,0.0,1.0,-0.243902444839,2.01219511032,-0.18292683363,1.0,0.0,0.0,0.0,1.0,0.0,0.0,0.0,1.0,-0.636857641602,-0.0909796630859,10.1705686523,1.0,0.0,0.0,0.0,1.0,0.0,0.0,0.0,1.0
1481903026729952158,804,1481903026725876752,,8.77393913269,-0.776804149151,143.753356934,0.000990999978967,1.0,0.0,0.0,0.0,1.0,0.0,0.0,0.0,1.0,0.0609756112099,2.37804889679,-0.243902444839,1.0,0.0,0.0,0.0,1.0,0.0,0.0,0.0,1.0,-0.60812722168,-0.181959326172,10.2328178955,1.0,0.0,0.0,0.0,1.0,0.0,0.0,0.0,1.0
1481903026748976693,805,1481903026746530137,,8.77067279816,-0.77813911438,143.7368927,0.00112100003753,1.0,0.0,0.0,0.0,1.0,0.0,0.0,0.0,1.0,-0.12195122242,2.25609779358,-0.18292683363,1.0,0.0,0.0,0.0,1.0,0.0,0.0,0.0,1.0,-0.684741674805,-0.114921679688,10.1226846191,1.0,0.0,0.0,0.0,1.0,0.0,0.0,0.0,1.0
1481903026770228567,806,1481903026767354355,,8.76505470276,-0.777958810329,143.721038818,0.000997000024654,1.0,0.0,0.0,0.0,1.0,0.0,0.0,0.0,1.0,-0.12195122242,2.5,-0.304878056049,1.0,0.0,0.0,0.0,1.0,0.0,0.0,0.0,1.0,-0.636857641602,-0.134075302102,10.1370498291,1.0,0.0,0.0,0.0,1.0,0.0,0.0,0.0,1.0
1481903026791329868,807,1481903026788830499,,8.76324176788,-0.776505291462,143.705154419,0.000986999948509,1.0,0.0,0.0,0.0,1.0,0.0,0.0,0.0,1.0,0.0609756112099,2.56097555161,-0.365853667259,1.0,0.0,0.0,0.0,1.0,0.0,0.0,0.0,1.0,-0.612915625,-0.0526724365234,10.2184526855,1.0,0.0,0.0,0.0,1.0,0.0,0.0,0.0,1.0
1481903026812469502,808,1481903026809183208,,8.76879119873,-0.778551399708,143.687393188,0.00116600003093,1.0,0.0,0.0,0.0,1.0,0.0,0.0,0.0,1.0,-0.12195122242,2.56097555161,-0.487804889679,1.0,0.0,0.0,0.0,1.0,0.0,0.0,0.0,1.0,-0.703895288086,-0.0909796630859,10.1514150391,1.0,0.0,0.0,0.0,1.0,0.0,0.0,0.0,1.0
1481903026832332109,809,1481903026829733625,,8.77290439606,-0.778628706932,143.672317505,0.00115000002552,1.0,0.0,0.0,0.0,1.0,0.0,0.0,0.0,1.0,0.18292683363,2.92682933807,-0.487804889679,1.0,0.0,0.0,0.0,1.0,0.0,0.0,0.0,1.0,-0.76614453125,-0.15801730957,10.1753570557,1.0,0.0,0.0,0.0,1.0,0.0,0.0,0.0,1.0
1481903026855875226,810,1481903026852137423,,8.78162956238,-0.780797421932,143.654663086,0.00329799996689,1.0,0.0,0.0,0.0,1.0,0.0,0.0,0.0,1.0,-0.12195122242,2.68292689323,-0.548780500889,1.0,0.0,0.0,0.0,1.0,0.0,0.0,0.0,1.0,-0.703895288086,-0.124498486328,10.1705686523,1.0,0.0,0.0,0.0,1.0,0.0,0.0,0.0,1.0
1481903026874523877,811,1481903026871903155,,8.78906345367,-0.778978526592,143.636642456,0.00102099997457,1.0,0.0,0.0,0.0,1.0,0.0,0.0,0.0,1.0,-0.0609756112099,2.62195134163,-0.243902444839,1.0,0.0,0.0,0.0,1.0,0.0,0.0,0.0,1.0,-0.636857641602,-0.138863696289,10.1609918457,1.0,0.0,0.0,0.0,1.0,0.0,0.0,0.0,1.0
1481903026897024654,812,1481903026892912581,,8.79761791229,-0.77688139677,143.621688843,0.00103100005072,1.0,0.0,0.0,0.0,1.0,0.0,0.0,0.0,1.0,0.0,2.68292689323,-0.304878056049,1.0,0.0,0.0,0.0,1.0,0.0,0.0,0.0,1.0,-0.627280834961,-0.119710083008,10.285490332,1.0,0.0,0.0,0.0,1.0,0.0,0.0,0.0,1.0
1481903026918791526,813,1481903026916115491,,8.80355644226,-0.775687277317,143.604507446,0.00099400000181,1.0,0.0,0.0,0.0,1.0,0.0,0.0,0.0,1.0,0.0,2.68292689323,-0.548780500889,1.0,0.0,0.0,0.0,1.0,0.0,0.0,0.0,1.0,-0.689530078125,-0.119710083008,10.2184526855,1.0,0.0,0.0,0.0,1.0,0.0,0.0,0.0,1.0
1481903026937136272,814,1481903026935476953,,8.80284976959,-0.774279296398,143.589675903,0.00104700005613,1.0,0.0,0.0,0.0,1.0,0.0,0.0,0.0,1.0,-0.0609756112099,2.43902444839,-0.365853667259,1.0,0.0,0.0,0.0,1.0,0.0,0.0,0.0,1.0,-0.622492431641,-0.0718260498047,10.2807019287,1.0,0.0,0.0,0.0,1.0,0.0,0.0,0.0,1.0
1481903026959467830,815,1481903026956937993,,8.80366611481,-0.773854553699,143.57220459,0.00116900005378,1.0,0.0,0.0,0.0,1.0,0.0,0.0,0.0,1.0,-0.243902444839,2.31707310677,-0.243902444839,1.0,0.0,0.0,0.0,1.0,0.0,0.0,0.0,1.0,-0.684741674805,-0.138863696289,10.2280294922,1.0,0.0,0.0,0.0,1.0,0.0,0.0,0.0,1.0
1481903026980856162,816,1481903026978357939,,8.80182743073,-0.774975538254,143.556762695,0.00147400004789,1.0,0.0,0.0,0.0,1.0,0.0,0.0,0.0,1.0,-0.18292683363,2.31707310677,-0.243902444839,1.0,0.0,0.0,0.0,1.0,0.0,0.0,0.0,1.0,-0.646434448242,-0.0814028564453,10.1753570557,1.0,0.0,0.0,0.0,1.0,0.0,0.0,0.0,1.0
1481903027002031889,817,1481903026999816322,,8.79596328735,-0.774687349796,143.540679932,0.00115200004075,1.0,0.0,0.0,0.0,1.0,0.0,0.0,0.0,1.0,-0.18292683363,2.13414645195,-0.243902444839,1.0,0.0,0.0,0.0,1.0,0.0,0.0,0.0,1.0,-0.684741674805,-0.0574608398438,10.1178962158,1.0,0.0,0.0,0.0,1.0,0.0,0.0,0.0,1.0
1481903027024075532,818,1481903027021107050,,8.79302692413,-0.775116860867,143.52532959,0.00106000003871,1.0,0.0,0.0,0.0,1.0,0.0,0.0,0.0,1.0,-0.0609756112099,2.25609779358,-0.426829278469,1.0,0.0,0.0,0.0,1.0,0.0,0.0,0.0,1.0,-0.751779321289,-0.0861912597656,10.1945106689,1.0,0.0,0.0,0.0,1.0,0.0,0.0,0.0,1.0
1481903027044545585,819,1481903027042469392,,8.78622245789,-0.775753200054,143.509521484,0.0010450000409,1.0,0.0,0.0,0.0,1.0,0.0,0.0,0.0,1.0,-0.243902444839,2.31707310677,-0.12195122242,1.0,0.0,0.0,0.0,1.0,0.0,0.0,0.0,1.0,-0.646434448242,-0.0574608398438,10.3333743652,1.0,0.0,0.0,0.0,1.0,0.0,0.0,0.0,1.0
1481903027065769594,820,1481903027063355589,,8.78141975403,-0.778276026249,143.491470337,0.0010000000475,1.0,0.0,0.0,0.0,1.0,0.0,0.0,0.0,1.0,0.0,2.43902444839,-0.304878056049,1.0,0.0,0.0,0.0,1.0,0.0,0.0,0.0,1.0,-0.588973571866,-0.148440512063,10.2423947021,1.0,0.0,0.0,0.0,1.0,0.0,0.0,0.0,1.0
1481903027086015011,821,1481903027083964131,,8.77891159058,-0.777965724468,143.475296021,0.000989999971353,1.0,0.0,0.0,0.0,1.0,0.0,0.0,0.0,1.0,0.18292683363,2.43902444839,-0.365853667259,1.0,0.0,0.0,0.0,1.0,0.0,0.0,0.0,1.0,-0.641646044922,-0.143652099609,10.1897222656,1.0,0.0,0.0,0.0,1.0,0.0,0.0,0.0,1.0
1481903027106842094,822,1481903027104428455,,8.7780714035,-0.776628196239,143.459060669,0.000986999948509,1.0,0.0,0.0,0.0,1.0,0.0,0.0,0.0,1.0,0.0609756112099,2.5,-0.304878056049,1.0,0.0,0.0,0.0,1.0,0.0,0.0,0.0,1.0,-0.675164868164,-0.138863696289,10.165780249,1.0,0.0,0.0,0.0,1.0,0.0,0.0,0.0,1.0
1481903027127292303,823,1481903027125225225,,8.77831935883,-0.772872447968,143.44241333,0.000974000024144,1.0,0.0,0.0,0.0,1.0,0.0,0.0,0.0,1.0,-0.304878056049,2.43902444839,-0.548780500889,1.0,0.0,0.0,0.0,1.0,0.0,0.0,0.0,1.0,-0.684741674805,-0.134075302102,10.2088758789,1.0,0.0,0.0,0.0,1.0,0.0,0.0,0.0,1.0
1481903027151231201,824,1481903027146478661,,8.77896499634,-0.769669830799,143.425674438,0.00098600005731,1.0,0.0,0.0,0.0,1.0,0.0,0.0,0.0,1.0,-0.0609756112099,2.80487799644,-0.365853667259,1.0,0.0,0.0,0.0,1.0,0.0,0.0,0.0,1.0,-0.713472094727,-0.0478840332031,10.299855542,1.0,0.0,0.0,0.0,1.0,0.0,0.0,0.0,1.0
1481903027171564640,825,1481903027166994339,,8.78359222412,-0.768739402294,143.409912109,0.000968999986071,1.0,0.0,0.0,0.0,1.0,0.0,0.0,0.0,1.0,-0.0609756112099,2.62195134163,-0.426829278469,1.0,0.0,0.0,0.0,1.0,0.0,0.0,0.0,1.0,-0.684741674805,-0.0957680664062,10.2759135254,1.0,0.0,0.0,0.0,1.0,0.0,0.0,0.0,1.0
1481903027197601189,826,1481903027188441993,,8.79158210754,-0.768659293652,143.393981934,0.0009710000013,1.0,0.0,0.0,0.0,1.0,0.0,0.0,0.0,1.0,0.0,3.10975623131,-0.304878056049,1.0,0.0,0.0,0.0,1.0,0.0,0.0,0.0,1.0,-0.574608398438,-0.138863696289,10.2184526855,1.0,0.0,0.0,0.0,1.0,0.0,0.0,0.0,1.0
1481903027216273485,827,1481903027209718346,,8.79817295074,-0.765997707844,143.377105713,0.00108700001147,1.0,0.0,0.0,0.0,1.0,0.0,0.0,0.0,1.0,-0.304878056049,2.68292689323,-0.304878056049,1.0,0.0,0.0,0.0,1.0,0.0,0.0,0.0,1.0,-0.756567724609,-0.0622492431641,10.2088758789,1.0,0.0,0.0,0.0,1.0,0.0,0.0,0.0,1.0
1481903027233322088,828,1481903027230538397,,8.80275154114,-0.765573859215,143.360107422,0.00101100001484,1.0,0.0,0.0,0.0,1.0,0.0,0.0,0.0,1.0,-0.12195122242,2.43902444839,-0.426829278469,1.0,0.0,0.0,0.0,1.0,0.0,0.0,0.0,1.0,-0.646434448242,-0.0718260498047,10.1945106689,1.0,0.0,0.0,0.0,1.0,0.0,0.0,0.0,1.0
1481903027254175942,829,1481903027251877458,,8.80361843109,-0.765327870846,143.341751099,0.000973000016529,1.0,0.0,0.0,0.0,1.0,0.0,0.0,0.0,1.0,0.243902444839,2.31707310677,-0.243902444839,1.0,0.0,0.0,0.0,1.0,0.0,0.0,0.0,1.0,-0.703895288086,-0.15801730957,10.2807019287,1.0,0.0,0.0,0.0,1.0,0.0,0.0,0.0,1.0
1481903027275771096,830,1481903027273126623,,8.8070192337,-0.765286803246,143.324462891,0.000981000019237,1.0,0.0,0.0,0.0,1.0,0.0,0.0,0.0,1.0,-0.0609756112099,2.37804889679,-0.365853667259,1.0,0.0,0.0,0.0,1.0,0.0,0.0,0.0,1.0,-0.699106884766,-0.0335188255255,10.2328178955,1.0,0.0,0.0,0.0,1.0,0.0,0.0,0.0,1.0
1481903027298501403,831,1481903027294331049,,8.80558013916,-0.767871677876,143.307495117,0.000975999981165,1.0,0.0,0.0,0.0,1.0,0.0,0.0,0.0,1.0,-0.304878056049,2.13414645195,-0.18292683363,1.0,0.0,0.0,0.0,1.0,0.0,0.0,0.0,1.0,-0.622492431641,-0.0622492431641,10.1466266357,1.0,0.0,0.0,0.0,1.0,0.0,0.0,0.0,1.0
1481903027318784113,832,1481903027314885425,,8.80184841156,-0.767500162125,143.29133606,0.00101200002246,1.0,0.0,0.0,0.0,1.0,0.0,0.0,0.0,1.0,-0.0609756112099,2.31707310677,-0.18292683363,1.0,0.0,0.0,0.0,1.0,0.0,0.0,0.0,1.0,-0.689530078125,-0.076614453125,10.2423947021,1.0,0.0,0.0,0.0,1.0,0.0,0.0,0.0,1.0
1481903027341539784,833,1481903027336346777,,8.79767990112,-0.768504977226,143.27255249,0.00112300005276,1.0,0.0,0.0,0.0,1.0,0.0,0.0,0.0,1.0,0.12195122242,2.25609779358,-0.487804889679,1.0,0.0,0.0,0.0,1.0,0.0,0.0,0.0,1.0,-0.569819995117,-0.124498486328,10.3573163818,1.0,0.0,0.0,0.0,1.0,0.0,0.0,0.0,1.0
1481903027359395573,834,1481903027357191724,,8.79297828674,-0.770566940308,143.254592896,0.00112200004514,1.0,0.0,0.0,0.0,1.0,0.0,0.0,0.0,1.0,-0.12195122242,2.19512200356,-0.609756112099,1.0,0.0,0.0,0.0,1.0,0.0,0.0,0.0,1.0,-0.651222851562,-0.124498486328,10.2280294922,1.0,0.0,0.0,0.0,1.0,0.0,0.0,0.0,1.0
1481903027381993797,835,1481903027378217557,,8.78701877594,-0.768694698811,143.238601685,0.00102500000503,1.0,0.0,0.0,0.0,1.0,0.0,0.0,0.0,1.0,-0.0609756112099,2.13414645195,-0.243902444839,1.0,0.0,0.0,0.0,1.0,0.0,0.0,0.0,1.0,-0.670376464844,-0.186747729492,10.1514150391,1.0,0.0,0.0,0.0,1.0,0.0,0.0,0.0,1.0
1481903027408958625,836,1481903027399239952,,8.7839641571,-0.766985833645,143.220214844,0.00121400004718,1.0,0.0,0.0,0.0,1.0,0.0,0.0,0.0,1.0,-0.18292683363,2.43902444839,-0.426829278469,1.0,0.0,0.0,0.0,1.0,0.0,0.0,0.0,1.0,-0.656011254883,-0.0909796630859,10.2759135254,1.0,0.0,0.0,0.0,1.0,0.0,0.0,0.0,1.0
1481903027422926923,837,1481903027420414065,,8.78306865692,-0.765527188778,143.205062866,0.00155599997379,1.0,0.0,0.0,0.0,1.0,0.0,0.0,0.0,1.0,0.18292683363,2.5,-0.609756112099,1.0,0.0,0.0,0.0,1.0,0.0,0.0,0.0,1.0,-0.627280834961,-0.129286889648,10.2184526855,1.0,0.0,0.0,0.0,1.0,0.0,0.0,0.0,1.0
1481903027443113175,838,1481903027440522973,,8.78625392914,-0.764983654022,143.188369751,0.00145800004248,1.0,0.0,0.0,0.0,1.0,0.0,0.0,0.0,1.0,-0.12195122242,2.37804889679,-0.426829278469,1.0,0.0,0.0,0.0,1.0,0.0,0.0,0.0,1.0,-0.660799658203,-0.105344873047,10.1466266357,1.0,0.0,0.0,0.0,1.0,0.0,0.0,0.0,1.0
