%time,field.header.seq,field.header.stamp,field.header.frame_id,field.orientation.x,field.orientation.y,field.orientation.z,field.orientation.w,field.orientation_covariance0,field.orientation_covariance1,field.orientation_covariance2,field.orientation_covariance3,field.orientation_covariance4,field.orientation_covariance5,field.orientation_covariance6,field.orientation_covariance7,field.orientation_covariance8,field.angular_velocity.x,field.angular_velocity.y,field.angular_velocity.z,field.angular_velocity_covariance0,field.angular_velocity_covariance1,field.angular_velocity_covariance2,field.angular_velocity_covariance3,field.angular_velocity_covariance4,field.angular_velocity_covariance5,field.angular_velocity_covariance6,field.angular_velocity_covariance7,field.angular_velocity_covariance8,field.linear_acceleration.x,field.linear_acceleration.y,field.linear_acceleration.z,field.linear_acceleration_covariance0,field.linear_acceleration_covariance1,field.linear_acceleration_covariance2,field.linear_acceleration_covariance3,field.linear_acceleration_covariance4,field.linear_acceleration_covariance5,field.linear_acceleration_covariance6,field.linear_acceleration_covariance7,field.linear_acceleration_covariance8
1463081130924163847,372,1463081130749533927,,7.2692656517,-16.908449173,-154.742050171,0.0106769995764,1.0,0.0,0.0,0.0,1.0,0.0,0.0,0.0,1.0,-1.95121955872,-16.341463089,-4.87804889679,1.0,0.0,0.0,0.0,1.0,0.0,0.0,0.0,1.0,-2.13083962367,-0.134075302102,-9.89762966309,1.0,0.0,0.0,0.0,1.0,0.0,0.0,0.0,1.0
1463081130924333274,373,1463081130758520940,,7.31814336777,-17.0124187469,-154.876876831,0.00927400030196,1.0,0.0,0.0,0.0,1.0,0.0,0.0,0.0,1.0,-0.975609779358,-15.3048791885,-6.21951246262,1.0,0.0,0.0,0.0,1.0,0.0,0.0,0.0,1.0,-2.16435844691,-0.0383072265625,-9.94551369629,1.0,0.0,0.0,0.0,1.0,0.0,0.0,0.0,1.0
1463081130924373794,374,1463081130768460036,,7.39060401917,-17.1101512909,-155.033737183,0.00999999977648,1.0,0.0,0.0,0.0,1.0,0.0,0.0,0.0,1.0,-0.670731723309,-14.4512205124,-7.01219511032,1.0,0.0,0.0,0.0,1.0,0.0,0.0,0.0,1.0,-2.11647412145,-0.296881024126,-9.99818613281,1.0,0.0,0.0,0.0,1.0,0.0,0.0,0.0,1.0
1463081130924416971,375,1463081130778511110,,7.49819087982,-17.1901264191,-155.212844849,0.00999299995601,1.0,0.0,0.0,0.0,1.0,0.0,0.0,0.0,1.0,1.40243899822,-12.9878053665,-9.08536529541,1.0,0.0,0.0,0.0,1.0,0.0,0.0,0.0,1.0,-2.09253210485,-0.445321508789,-9.80186159668,1.0,0.0,0.0,0.0,1.0,0.0,0.0,0.0,1.0
1463081130924453326,376,1463081130788375622,,7.63974189758,-17.2502632141,-155.432144165,0.0100079998374,1.0,0.0,0.0,0.0,1.0,0.0,0.0,0.0,1.0,1.09756100178,-11.341463089,-12.3170728683,1.0,0.0,0.0,0.0,1.0,0.0,0.0,0.0,1.0,-2.1691467041,-0.938527050781,-9.92636008301,1.0,0.0,0.0,0.0,1.0,0.0,0.0,0.0,1.0
1463081130924517805,377,1463081130798329300,,7.73216199875,-17.3132972717,-155.654190063,0.00998799968511,1.0,0.0,0.0,0.0,1.0,0.0,0.0,0.0,1.0,-1.2804877758,-11.4024391174,-13.4146347046,1.0,0.0,0.0,0.0,1.0,0.0,0.0,0.0,1.0,-2.31279880371,-0.478840332031,-10.2328178955,1.0,0.0,0.0,0.0,1.0,0.0,0.0,0.0,1.0
1463081130924558638,378,1463081130808335635,,7.78477811813,-17.3495521545,-155.860321045,0.0100079998374,1.0,0.0,0.0,0.0,1.0,0.0,0.0,0.0,1.0,-3.59756112099,-10.6707315445,-12.3170728683,1.0,0.0,0.0,0.0,1.0,0.0,0.0,0.0,1.0,-1.92972653809,-0.268150604204,-10.2759135254,1.0,0.0,0.0,0.0,1.0,0.0,0.0,0.0,1.0
1463081130924593169,379,1463081130818301657,,7.79070138931,-17.3807258606,-156.051361084,0.00999199971557,1.0,0.0,0.0,0.0,1.0,0.0,0.0,0.0,1.0,-5.91463422775,-10.9756097794,-11.4634151459,1.0,0.0,0.0,0.0,1.0,0.0,0.0,0.0,1.0,-1.70945998535,0.0909796630859,-10.0412817627,1.0,0.0,0.0,0.0,1.0,0.0,0.0,0.0,1.0
1463081130924628690,380,1463081130828363825,,7.76426887512,-17.4214000702,-156.212417603,0.00999699998647,1.0,0.0,0.0,0.0,1.0,0.0,0.0,0.0,1.0,-7.50000047684,-11.7682924271,-8.71951198578,1.0,0.0,0.0,0.0,1.0,0.0,0.0,0.0,1.0,-1.73819040527,0.244208569336,-10.4482960449,1.0,0.0,0.0,0.0,1.0,0.0,0.0,0.0,1.0
1463081130924663898,381,1463081130839293856,,7.73106193542,-17.4623527527,-156.360137939,0.0100229997188,1.0,0.0,0.0,0.0,1.0,0.0,0.0,0.0,1.0,-7.19512224197,-12.5,-7.50000047684,1.0,0.0,0.0,0.0,1.0,0.0,0.0,0.0,1.0,-1.50355864258,0.344765039063,-9.99818613281,1.0,0.0,0.0,0.0,1.0,0.0,0.0,0.0,1.0
1463081130924698638,382,1463081130848430817,,7.73536682129,-17.5214767456,-156.525360107,0.00998600013554,1.0,0.0,0.0,0.0,1.0,0.0,0.0,0.0,1.0,-6.70731735229,-13.5365858078,-8.23170757294,1.0,0.0,0.0,0.0,1.0,0.0,0.0,0.0,1.0,-1.75734401855,-0.162805712891,-10.3429511719,1.0,0.0,0.0,0.0,1.0,0.0,0.0,0.0,1.0
1463081130924741762,383,1463081130858365433,,7.73791217804,-17.59815979,-156.687133789,0.0100020002574,1.0,0.0,0.0,0.0,1.0,0.0,0.0,0.0,1.0,-5.97560977936,-15.548781395,-7.86585378647,1.0,0.0,0.0,0.0,1.0,0.0,0.0,0.0,1.0,-1.69988317871,-0.00478840332031,-10.3046439453,1.0,0.0,0.0,0.0,1.0,0.0,0.0,0.0,1.0
1463081130924833741,384,1463081130874201757,,7.75242233276,-17.6730442047,-156.870269775,0.010006999597,1.0,0.0,0.0,0.0,1.0,0.0,0.0,0.0,1.0,-5.24390268326,-15.7317075729,-9.93902492523,1.0,0.0,0.0,0.0,1.0,0.0,0.0,0.0,1.0,-1.64242233887,0.0335188255255,-9.97903251953,1.0,0.0,0.0,0.0,1.0,0.0,0.0,0.0,1.0
1463081130924903950,385,1463081130879871902,,7.78697872162,-17.7627601624,-157.063735962,0.00998099986464,1.0,0.0,0.0,0.0,1.0,0.0,0.0,0.0,1.0,-4.57317066193,-16.0365848541,-10.6097564697,1.0,0.0,0.0,0.0,1.0,0.0,0.0,0.0,1.0,-1.93930334473,-0.15322890625,-10.1705686523,1.0,0.0,0.0,0.0,1.0,0.0,0.0,0.0,1.0
1463081130925019418,386,1463081130888745166,,7.80991506577,-17.8687973022,-157.255966187,0.0103259999305,1.0,0.0,0.0,0.0,1.0,0.0,0.0,0.0,1.0,-4.45121955872,-16.9512195587,-10.1219511032,1.0,0.0,0.0,0.0,1.0,0.0,0.0,0.0,1.0,-1.98718737793,0.067037651051,-10.0748005859,1.0,0.0,0.0,0.0,1.0,0.0,0.0,0.0,1.0
1463081130925100251,387,1463081130898256189,,7.85949468613,-17.9684944153,-157.458694458,0.00967799965292,1.0,0.0,0.0,0.0,1.0,0.0,0.0,0.0,1.0,-3.53658556938,-16.4024391174,-12.0121955872,1.0,0.0,0.0,0.0,1.0,0.0,0.0,0.0,1.0,-2.14520483363,-0.167594116211,-9.94072529297,1.0,0.0,0.0,0.0,1.0,0.0,0.0,0.0,1.0
1463081130925166970,388,1463081130908258513,,7.94520187378,-18.0566978455,-157.69682312,0.0100029995665,1.0,0.0,0.0,0.0,1.0,0.0,0.0,0.0,1.0,-2.56097555161,-15.975610733,-14.2682924271,1.0,0.0,0.0,0.0,1.0,0.0,0.0,0.0,1.0,-2.04464821777,-0.474051928711,-9.95509050293,1.0,0.0,0.0,0.0,1.0,0.0,0.0,0.0,1.0
1463081130925236293,389,1463081130918263390,,8.01758480072,-18.1455459595,-157.942260742,0.00999800022691,1.0,0.0,0.0,0.0,1.0,0.0,0.0,0.0,1.0,-3.84146332741,-17.2560977936,-14.8780498505,1.0,0.0,0.0,0.0,1.0,0.0,0.0,0.0,1.0,-1.79565124512,-0.416591088867,-9.61990285503,1.0,0.0,0.0,0.0,1.0,0.0,0.0,0.0,1.0
1463081130929994929,390,1463081130928405557,,8.04276371002,-18.2144680023,-158.16506958,0.0100029995665,1.0,0.0,0.0,0.0,1.0,0.0,0.0,0.0,1.0,-4.63414621353,-16.7682933807,-13.841463089,1.0,0.0,0.0,0.0,1.0,0.0,0.0,0.0,1.0,-1.46525141602,0.15801730957,-9.42357714985,1.0,0.0,0.0,0.0,1.0,0.0,0.0,0.0,1.0
1463081130939833973,391,1463081130938251840,,8.06702041626,-18.3047657013,-158.396743774,0.00998899992555,1.0,0.0,0.0,0.0,1.0,0.0,0.0,0.0,1.0,-5.30487823486,-19.2682914734,-14.2682924271,1.0,0.0,0.0,0.0,1.0,0.0,0.0,0.0,1.0,-1.5083470459,0.110133276367,-9.89284125977,1.0,0.0,0.0,0.0,1.0,0.0,0.0,0.0,1.0
1463081130949793120,392,1463081130948204113,,8.06434345245,-18.4181365967,-158.606903076,0.00999699998647,1.0,0.0,0.0,0.0,1.0,0.0,0.0,0.0,1.0,-6.15853643417,-20.8536586761,-12.3780488968,1.0,0.0,0.0,0.0,1.0,0.0,0.0,0.0,1.0,-1.56580788574,0.330399829102,-9.69651672363,1.0,0.0,0.0,0.0,1.0,0.0,0.0,0.0,1.0
1463081130959839038,393,1463081130958265499,,8.05966186523,-18.5332489014,-158.814193726,0.0100010000169,1.0,0.0,0.0,0.0,1.0,0.0,0.0,0.0,1.0,-7.50000047684,-20.3658542633,-11.7682924271,1.0,0.0,0.0,0.0,1.0,0.0,0.0,0.0,1.0,-1.73340200195,0.114921679688,-9.89762966309,1.0,0.0,0.0,0.0,1.0,0.0,0.0,0.0,1.0
1463081130969851154,394,1463081130968255532,,8.06300354004,-18.6765365601,-159.016815186,0.00999899953604,1.0,0.0,0.0,0.0,1.0,0.0,0.0,0.0,1.0,-8.90243911743,-22.0731716156,-10.3048782349,1.0,0.0,0.0,0.0,1.0,0.0,0.0,0.0,1.0,-2.00634099121,-0.325611425781,-10.2184526855,1.0,0.0,0.0,0.0,1.0,0.0,0.0,0.0,1.0
1463081130980137957,395,1463081130978307127,,7.96778392792,-18.8088169098,-159.164764404,0.0100090000778,1.0,0.0,0.0,0.0,1.0,0.0,0.0,0.0,1.0,-12.2560977936,-21.5243911743,-6.82926845551,1.0,0.0,0.0,0.0,1.0,0.0,0.0,0.0,1.0,-1.77170922852,0.603338854892,-10.1418382324,1.0,0.0,0.0,0.0,1.0,0.0,0.0,0.0,1.0
1463081130994170117,396,1463081130988859658,,7.86193609238,-18.9406757355,-159.286331177,0.0100130001083,1.0,0.0,0.0,0.0,1.0,0.0,0.0,0.0,1.0,-12.0731716156,-20.7317085266,-4.63414621353,1.0,0.0,0.0,0.0,1.0,0.0,0.0,0.0,1.0,-1.86747729492,0.708683691406,-10.1466266357,1.0,0.0,0.0,0.0,1.0,0.0,0.0,0.0,1.0
1463081130999781304,397,1463081130998242609,,7.77536964417,-19.088716507,-159.399810791,0.00997999962419,1.0,0.0,0.0,0.0,1.0,0.0,0.0,0.0,1.0,-10.6097564697,-21.7073173523,-3.59756112099,1.0,0.0,0.0,0.0,1.0,0.0,0.0,0.0,1.0,-1.97761057129,0.598550451572,-10.0412817627,1.0,0.0,0.0,0.0,1.0,0.0,0.0,0.0,1.0
1463081131009728420,398,1463081131008185246,,7.71070051193,-19.231464386,-159.527587891,0.0099950004369,1.0,0.0,0.0,0.0,1.0,0.0,0.0,0.0,1.0,-9.32926845551,-21.4024391174,-4.87804889679,1.0,0.0,0.0,0.0,1.0,0.0,0.0,0.0,1.0,-1.99197578125,0.531512805087,-10.046070166,1.0,0.0,0.0,0.0,1.0,0.0,0.0,0.0,1.0
1463081131019870171,399,1463081131018294549,,7.66910171509,-19.3717250824,-159.663269043,0.0100149996579,1.0,0.0,0.0,0.0,1.0,0.0,0.0,0.0,1.0,-6.58536624908,-22.5609760284,-5.73170757294,1.0,0.0,0.0,0.0,1.0,0.0,0.0,0.0,1.0,-1.73819040527,0.665588061523,-9.90241806641,1.0,0.0,0.0,0.0,1.0,0.0,0.0,0.0,1.0
1463081131029788902,400,1463081131028274373,,7.67508411407,-19.5043907166,-159.81401062,0.00999599974602,1.0,0.0,0.0,0.0,1.0,0.0,0.0,0.0,1.0,-3.59756112099,-22.1341457367,-6.82926845551,1.0,0.0,0.0,0.0,1.0,0.0,0.0,0.0,1.0,-1.75255561523,0.440533105469,-9.94551369629,1.0,0.0,0.0,0.0,1.0,0.0,0.0,0.0,1.0
1463081131039959090,401,1463081131038371697,,7.70212221146,-19.6475448608,-159.966690063,0.0099950004369,1.0,0.0,0.0,0.0,1.0,0.0,0.0,0.0,1.0,-1.09756100178,-23.0487823486,-7.07317113876,1.0,0.0,0.0,0.0,1.0,0.0,0.0,0.0,1.0,-1.81959326172,0.541089611728,-10.0269165527,1.0,0.0,0.0,0.0,1.0,0.0,0.0,0.0,1.0
1463081131049893654,402,1463081131048309230,,7.75181722641,-19.7892189026,-160.129776001,0.00999400019646,1.0,0.0,0.0,0.0,1.0,0.0,0.0,0.0,1.0,0.365853667259,-23.3536586761,-7.86585378647,1.0,0.0,0.0,0.0,1.0,0.0,0.0,0.0,1.0,-1.69988317871,0.435744702148,-9.5432884019,1.0,0.0,0.0,0.0,1.0,0.0,0.0,0.0,1.0
1463081131059783583,403,1463081131058303481,,7.8158493042,-19.9381465912,-160.284072876,0.0100010000169,1.0,0.0,0.0,0.0,1.0,0.0,0.0,0.0,1.0,1.64634156227,-23.1707324982,-6.89024400711,1.0,0.0,0.0,0.0,1.0,0.0,0.0,0.0,1.0,-1.93451494141,0.368707055664,-9.88326445312,1.0,0.0,0.0,0.0,1.0,0.0,0.0,0.0,1.0
1463081131069776480,404,1463081131068284556,,7.88474369049,-20.0920352936,-160.438873291,0.00999999977648,1.0,0.0,0.0,0.0,1.0,0.0,0.0,0.0,1.0,1.58536589146,-22.9878044128,-6.7682929039,1.0,0.0,0.0,0.0,1.0,0.0,0.0,0.0,1.0,-2.12126281703,0.272938989258,-10.0221281494,1.0,0.0,0.0,0.0,1.0,0.0,0.0,0.0,1.0
1463081131079869169,405,1463081131078299224,,7.94794368744,-20.2376594543,-160.583740234,0.0100010000169,1.0,0.0,0.0,0.0,1.0,0.0,0.0,0.0,1.0,2.01219511032,-21.9512195587,-6.21951246262,1.0,0.0,0.0,0.0,1.0,0.0,0.0,0.0,1.0,-2.06380183105,0.383072265625,-9.54807680523,1.0,0.0,0.0,0.0,1.0,0.0,0.0,0.0,1.0
1463081131089965399,406,1463081131088283683,,8.02111148834,-20.3701877594,-160.725036621,0.00999899953604,1.0,0.0,0.0,0.0,1.0,0.0,0.0,0.0,1.0,2.37804889679,-21.4634151459,-5.67073154449,1.0,0.0,0.0,0.0,1.0,0.0,0.0,0.0,1.0,-1.98718737793,0.239420166016,-9.77791958008,1.0,0.0,0.0,0.0,1.0,0.0,0.0,0.0,1.0
1463081131101055794,407,1463081131098688611,,8.12304019928,-20.4828624725,-160.887374878,0.0100859999657,1.0,0.0,0.0,0.0,1.0,0.0,0.0,0.0,1.0,2.86585378647,-21.5243911743,-6.89024400711,1.0,0.0,0.0,0.0,1.0,0.0,0.0,0.0,1.0,-1.74776721191,-0.0861912597656,-10.2040874756,1.0,0.0,0.0,0.0,1.0,0.0,0.0,0.0,1.0
1463081131110261349,408,1463081131108376509,,8.21073818207,-20.592124939,-161.045761108,0.00993499998003,1.0,0.0,0.0,0.0,1.0,0.0,0.0,0.0,1.0,2.92682933807,-20.3658542633,-7.37804937363,1.0,0.0,0.0,0.0,1.0,0.0,0.0,0.0,1.0,-1.90578452148,0.15801730957,-9.94072529297,1.0,0.0,0.0,0.0,1.0,0.0,0.0,0.0,1.0
1463081131120159455,409,1463081131118506541,,8.28427696228,-20.7123661041,-161.200286865,0.00999199971557,1.0,0.0,0.0,0.0,1.0,0.0,0.0,0.0,1.0,2.25609779358,-20.1219520569,-7.19512224197,1.0,0.0,0.0,0.0,1.0,0.0,0.0,0.0,1.0,-2.17872351074,0.282515795898,-10.0508585693,1.0,0.0,0.0,0.0,1.0,0.0,0.0,0.0,1.0
1463081131130291414,410,1463081131128434178,,8.33351707458,-20.8145484924,-161.338439941,0.0100189996883,1.0,0.0,0.0,0.0,1.0,0.0,0.0,0.0,1.0,0.792682945728,-18.7195110321,-5.97560977936,1.0,0.0,0.0,0.0,1.0,0.0,0.0,0.0,1.0,-2.01112939453,0.339976635742,-9.71567033691,1.0,0.0,0.0,0.0,1.0,0.0,0.0,0.0,1.0
1463081131140860300,411,1463081131138406763,,8.36014080048,-20.915014267,-161.452606201,0.00993300043046,1.0,0.0,0.0,0.0,1.0,0.0,0.0,0.0,1.0,-1.03658533096,-17.134147644,-3.90243911743,1.0,0.0,0.0,0.0,1.0,0.0,0.0,0.0,1.0,-2.30322199707,0.272938989258,-9.94072529297,1.0,0.0,0.0,0.0,1.0,0.0,0.0,0.0,1.0
1463081131150364396,412,1463081131148442785,,8.32016277313,-21.0104122162,-161.513870239,0.0100739998743,1.0,0.0,0.0,0.0,1.0,0.0,0.0,0.0,1.0,-4.63414621353,-16.4024391174,0.609756112099,1.0,0.0,0.0,0.0,1.0,0.0,0.0,0.0,1.0,-2.1691467041,0.483628735352,-9.80186159668,1.0,0.0,0.0,0.0,1.0,0.0,0.0,0.0,1.0
1463081131160358335,413,1463081131158472870,,8.25063610077,-21.0842838287,-161.544036865,0.00998300034553,1.0,0.0,0.0,0.0,1.0,0.0,0.0,0.0,1.0,-5.73170757294,-13.3536586761,2.68292689323,1.0,0.0,0.0,0.0,1.0,0.0,0.0,0.0,1.0,-2.33195227086,0.665588061523,-9.96466730957,1.0,0.0,0.0,0.0,1.0,0.0,0.0,0.0,1.0
1463081131169981389,414,1463081131168374725,,8.2048034668,-21.1589412689,-161.581481934,0.0100090000778,1.0,0.0,0.0,0.0,1.0,0.0,0.0,0.0,1.0,-4.63414621353,-12.5,2.25609779358,1.0,0.0,0.0,0.0,1.0,0.0,0.0,0.0,1.0,-2.53306535645,0.483628735352,-9.94551369629,1.0,0.0,0.0,0.0,1.0,0.0,0.0,0.0,1.0
1463081131180369129,415,1463081131178490435,,8.14740467072,-21.201417923,-161.604919434,0.00997599959373,1.0,0.0,0.0,0.0,1.0,0.0,0.0,0.0,1.0,-4.14634132385,-10.6097564697,2.80487799644,1.0,0.0,0.0,0.0,1.0,0.0,0.0,0.0,1.0,-2.24097275391,0.703895288086,-9.83538041992,1.0,0.0,0.0,0.0,1.0,0.0,0.0,0.0,1.0
1463081131190770359,416,1463081131188560155,,8.11044502258,-21.2234344482,-161.639450073,0.0100250001997,1.0,0.0,0.0,0.0,1.0,0.0,0.0,0.0,1.0,-3.23170733452,-7.74390268326,1.64634156227,1.0,0.0,0.0,0.0,1.0,0.0,0.0,0.0,1.0,-2.36068269078,0.560243188477,-9.55765361187,1.0,0.0,0.0,0.0,1.0,0.0,0.0,0.0,1.0
1463081131200870495,417,1463081131198626229,,8.09590339661,-21.2522945404,-161.679733276,0.00998300034553,1.0,0.0,0.0,0.0,1.0,0.0,0.0,0.0,1.0,-2.68292689323,-7.19512224197,1.58536589146,1.0,0.0,0.0,0.0,1.0,0.0,0.0,0.0,1.0,-2.74375510254,0.31124621582,-10.0556469727,1.0,0.0,0.0,0.0,1.0,0.0,0.0,0.0,1.0
1463081131210234435,418,1463081131208321262,,8.07269191742,-21.2456970215,-161.715682983,0.0100149996579,1.0,0.0,0.0,0.0,1.0,0.0,0.0,0.0,1.0,-3.90243911743,-4.57317066193,1.8292683363,1.0,0.0,0.0,0.0,1.0,0.0,0.0,0.0,1.0,-2.45645090332,0.196324536133,-9.63426806499,1.0,0.0,0.0,0.0,1.0,0.0,0.0,0.0,1.0
1463081131220390301,419,1463081131218377649,,8.02043056488,-21.2114810944,-161.733718872,0.00997000001371,1.0,0.0,0.0,0.0,1.0,0.0,0.0,0.0,1.0,-4.32926845551,-1.8902438879,2.37804889679,1.0,0.0,0.0,0.0,1.0,0.0,0.0,0.0,1.0,-2.45645090332,0.565031591797,-9.86411083984,1.0,0.0,0.0,0.0,1.0,0.0,0.0,0.0,1.0
1463081131230783614,420,1463081131228364817,,7.9830160141,-21.1723232269,-161.755554199,0.0100039998069,1.0,0.0,0.0,0.0,1.0,0.0,0.0,0.0,1.0,-3.41463422775,-2.19512200356,2.25609779358,1.0,0.0,0.0,0.0,1.0,0.0,0.0,0.0,1.0,-2.3415290775,0.483628735352,-9.98860932617,1.0,0.0,0.0,0.0,1.0,0.0,0.0,0.0,1.0
1463081131240416408,421,1463081131238345891,,7.95152235031,-21.1150894165,-161.773696899,0.0100010000169,1.0,0.0,0.0,0.0,1.0,0.0,0.0,0.0,1.0,-3.04878044128,0.0,2.43902444839,1.0,0.0,0.0,0.0,1.0,0.0,0.0,0.0,1.0,-2.40377861293,0.421379492187,-9.99818613281,1.0,0.0,0.0,0.0,1.0,0.0,0.0,0.0,1.0
1463081131250448367,422,1463081131248347486,,7.91943407059,-21.0494327545,-161.788009644,0.0100050000474,1.0,0.0,0.0,0.0,1.0,0.0,0.0,0.0,1.0,-3.04878044128,0.670731723309,2.74390244484,1.0,0.0,0.0,0.0,1.0,0.0,0.0,0.0,1.0,-2.40377861293,0.416591088867,-10.2136642822,1.0,0.0,0.0,0.0,1.0,0.0,0.0,0.0,1.0
1463081131260416942,423,1463081131258451477,,7.89306592941,-20.9886016846,-161.799514771,0.0100050000474,1.0,0.0,0.0,0.0,1.0,0.0,0.0,0.0,1.0,-2.62195134163,1.15853655338,3.04878044128,1.0,0.0,0.0,0.0,1.0,0.0,0.0,0.0,1.0,-2.57137258301,0.378283862305,-10.2136642822,1.0,0.0,0.0,0.0,1.0,0.0,0.0,0.0,1.0
1463081131270820776,424,1463081131268304843,,7.87128210068,-20.9157543182,-161.810470581,0.0100050000474,1.0,0.0,0.0,0.0,1.0,0.0,0.0,0.0,1.0,-3.04878044128,2.80487799644,3.23170733452,1.0,0.0,0.0,0.0,1.0,0.0,0.0,0.0,1.0,-2.62883342285,0.201112939453,-10.1418382324,1.0,0.0,0.0,0.0,1.0,0.0,0.0,0.0,1.0
1463081131280954975,425,1463081131278414355,,7.83064985275,-20.8399429321,-161.811859131,0.00999299995601,1.0,0.0,0.0,0.0,1.0,0.0,0.0,0.0,1.0,-4.14634132385,3.71951246262,3.84146332741,1.0,0.0,0.0,0.0,1.0,0.0,0.0,0.0,1.0,-2.74375510254,0.301669427446,-10.2711251221,1.0,0.0,0.0,0.0,1.0,0.0,0.0,0.0,1.0
1463081131290766622,426,1463081131288476158,,7.78251171112,-20.7514972687,-161.805648804,0.0100100003183,1.0,0.0,0.0,0.0,1.0,0.0,0.0,0.0,1.0,-4.51219558716,4.69512224197,4.39024400711,1.0,0.0,0.0,0.0,1.0,0.0,0.0,0.0,1.0,-2.64798703613,0.325611425781,-10.2328178955,1.0,0.0,0.0,0.0,1.0,0.0,0.0,0.0,1.0
1463081131300471291,427,1463081131298472128,,7.73111343384,-20.6554107666,-161.799804688,0.00999100040644,1.0,0.0,0.0,0.0,1.0,0.0,0.0,0.0,1.0,-4.39024400711,5.06097555161,4.14634132385,1.0,0.0,0.0,0.0,1.0,0.0,0.0,0.0,1.0,-2.59052619629,0.430956298828,-10.3908352051,1.0,0.0,0.0,0.0,1.0,0.0,0.0,0.0,1.0
1463081131310218980,428,1463081131308287265,,7.68748998642,-20.5533351898,-161.798416138,0.00998099986464,1.0,0.0,0.0,0.0,1.0,0.0,0.0,0.0,1.0,-3.17073178291,5.36585378647,3.47560977936,1.0,0.0,0.0,0.0,1.0,0.0,0.0,0.0,1.0,-2.5234885498,0.560243188477,-10.3956236084,1.0,0.0,0.0,0.0,1.0,0.0,0.0,0.0,1.0
1463081131320479950,429,1463081131318442193,,7.65372467041,-20.453212738,-161.7996521,0.0100159998983,1.0,0.0,0.0,0.0,1.0,0.0,0.0,0.0,1.0,-2.13414645195,4.69512224197,3.29268312454,1.0,0.0,0.0,0.0,1.0,0.0,0.0,0.0,1.0,-2.46123930664,0.598550451572,-10.5632177246,1.0,0.0,0.0,0.0,1.0,0.0,0.0,0.0,1.0
1463081131330214670,430,1463081131328285716,,7.63671207428,-20.3471298218,-161.804748535,0.00999999977648,1.0,0.0,0.0,0.0,1.0,0.0,0.0,0.0,1.0,-1.64634156227,4.20731735229,3.41463422775,1.0,0.0,0.0,0.0,1.0,0.0,0.0,0.0,1.0,-2.26970317383,0.383072265625,-10.7308118408,1.0,0.0,0.0,0.0,1.0,0.0,0.0,0.0,1.0
1463081131340404234,431,1463081131338284967,,7.63749551773,-20.2600479126,-161.818069458,0.00999800022691,1.0,0.0,0.0,0.0,1.0,0.0,0.0,0.0,1.0,-1.15853655338,3.23170733452,3.17073178291,1.0,0.0,0.0,0.0,1.0,0.0,0.0,0.0,1.0,-2.35589428746,0.172382519531,-10.3046439453,1.0,0.0,0.0,0.0,1.0,0.0,0.0,0.0,1.0
1463081131350148277,432,1463081131348229219,,7.62755393982,-20.1791744232,-161.836181641,0.0100180003792,1.0,0.0,0.0,0.0,1.0,0.0,0.0,0.0,1.0,-2.56097555161,1.8292683363,2.98780488968,1.0,0.0,0.0,0.0,1.0,0.0,0.0,0.0,1.0,-2.29843359375,0.138863696289,-10.7595422607,1.0,0.0,0.0,0.0,1.0,0.0,0.0,0.0,1.0
1463081131360382841,433,1463081131358423938,,7.63022756577,-20.1272411346,-161.866043091,0.00999699998647,1.0,0.0,0.0,0.0,1.0,0.0,0.0,0.0,1.0,-3.96341490746,-0.0609756112099,2.98780488968,1.0,0.0,0.0,0.0,1.0,0.0,0.0,0.0,1.0,-2.46123930664,-0.320823022461,-10.5632177246,1.0,0.0,0.0,0.0,1.0,0.0,0.0,0.0,1.0
1463081131370095634,434,1463081131368196003,,7.623960495,-20.0773429871,-161.90196228,0.00997400004417,1.0,0.0,0.0,0.0,1.0,0.0,0.0,0.0,1.0,-5.36585378647,-0.792682945728,2.62195134163,1.0,0.0,0.0,0.0,1.0,0.0,0.0,0.0,1.0,-2.28885678711,-0.373495458984,-10.2519715088,1.0,0.0,0.0,0.0,1.0,0.0,0.0,0.0,1.0
1463081131380619780,435,1463081131378430514,,7.56064462662,-20.0586719513,-161.914733887,0.0100349998102,1.0,0.0,0.0,0.0,1.0,0.0,0.0,0.0,1.0,-8.10975551605,-2.62195134163,4.2682929039,1.0,0.0,0.0,0.0,1.0,0.0,0.0,0.0,1.0,-2.39899020961,0.0574608398438,-9.94551369629,1.0,0.0,0.0,0.0,1.0,0.0,0.0,0.0,1.0
1463081131391024135,436,1463081131388452057,,7.37945604324,-20.0488185883,-161.859603882,0.0100079998374,1.0,0.0,0.0,0.0,1.0,0.0,0.0,0.0,1.0,-12.8048782349,-5.12195110321,9.20731735229,1.0,0.0,0.0,0.0,1.0,0.0,0.0,0.0,1.0,-2.05422502441,1.04866025408,-10.5967365479,1.0,0.0,0.0,0.0,1.0,0.0,0.0,0.0,1.0
1463081131400348232,437,1463081131398444433,,7.22735357285,-20.0732803345,-161.796951294,0.00997900031507,1.0,0.0,0.0,0.0,1.0,0.0,0.0,0.0,1.0,-11.9512195587,-7.37804937363,11.0365858078,1.0,0.0,0.0,0.0,1.0,0.0,0.0,0.0,1.0,-2.27449157715,0.61770402832,-10.6111017578,1.0,0.0,0.0,0.0,1.0,0.0,0.0,0.0,1.0
1463081131410513889,438,1463081131408586132,,7.1296672821,-20.1140632629,-161.743850708,0.0100410003215,1.0,0.0,0.0,0.0,1.0,0.0,0.0,0.0,1.0,-10.9146347046,-9.08536529541,11.8292684555,1.0,0.0,0.0,0.0,1.0,0.0,0.0,0.0,1.0,-2.31279880371,-0.210689746094,-10.7403886475,1.0,0.0,0.0,0.0,1.0,0.0,0.0,0.0,1.0
1463081131420502724,439,1463081131418466217,,7.03151082993,-20.1927528381,-161.682983398,0.00995799992234,1.0,0.0,0.0,0.0,1.0,0.0,0.0,0.0,1.0,-9.63414573669,-12.3170728683,12.5609760284,1.0,0.0,0.0,0.0,1.0,0.0,0.0,0.0,1.0,-2.38462499965,0.0430956298828,-10.5775829346,1.0,0.0,0.0,0.0,1.0,0.0,0.0,0.0,1.0
1463081131430467913,440,1463081131428496354,,6.9283952713,-20.2601413727,-161.629623413,0.0100490003824,1.0,0.0,0.0,0.0,1.0,0.0,0.0,0.0,1.0,-8.84146404266,-13.7804880142,11.4024391174,1.0,0.0,0.0,0.0,1.0,0.0,0.0,0.0,1.0,-1.87226569824,0.344765039063,-10.4530844482,1.0,0.0,0.0,0.0,1.0,0.0,0.0,0.0,1.0
1463081131440679559,441,1463081131438458053,,6.87379550934,-20.3680992126,-161.600234985,0.00997199956328,1.0,0.0,0.0,0.0,1.0,0.0,0.0,0.0,1.0,-6.7682929039,-18.475610733,10.4268293381,1.0,0.0,0.0,0.0,1.0,0.0,0.0,0.0,1.0,-1.73340200195,-0.0191536132812,-9.95030209961,1.0,0.0,0.0,0.0,1.0,0.0,0.0,0.0,1.0
1463081131450257770,442,1463081131448306576,,6.77437067032,-20.5069084167,-161.558242798,0.00994999986142,1.0,0.0,0.0,0.0,1.0,0.0,0.0,0.0,1.0,-8.65853691101,-22.3170719147,11.2195119858,1.0,0.0,0.0,0.0,1.0,0.0,0.0,0.0,1.0,-1.54665427246,0.397437475586,-9.69172832031,1.0,0.0,0.0,0.0,1.0,0.0,0.0,0.0,1.0
1463081131460338011,443,1463081131458348848,,6.67252540588,-20.7162227631,-161.498291016,0.0100159998983,1.0,0.0,0.0,0.0,1.0,0.0,0.0,0.0,1.0,-9.02439117432,-30.5487804413,14.0853662491,1.0,0.0,0.0,0.0,1.0,0.0,0.0,0.0,1.0,-1.22583125,0.239420166016,-9.11233151855,1.0,0.0,0.0,0.0,1.0,0.0,0.0,0.0,1.0
1463081131470201064,444,1463081131468258672,,6.48437976837,-20.9809303284,-161.364776611,0.0100079998374,1.0,0.0,0.0,0.0,1.0,0.0,0.0,0.0,1.0,-11.4634151459,-34.0853691101,19.8780498505,1.0,0.0,0.0,0.0,1.0,0.0,0.0,0.0,1.0,-1.56101948242,0.962469067383,-9.76834277344,1.0,0.0,0.0,0.0,1.0,0.0,0.0,0.0,1.0
1463081131482892342,445,1463081131478614433,,6.34007263184,-21.3072376251,-161.225830078,0.00996300019324,1.0,0.0,0.0,0.0,1.0,0.0,0.0,0.0,1.0,-9.75609779358,-40.3658561707,22.0731716156,1.0,0.0,0.0,0.0,1.0,0.0,0.0,0.0,1.0,-1.58496149902,0.440533105469,-9.61990285503,1.0,0.0,0.0,0.0,1.0,0.0,0.0,0.0,1.0
1463081131490339671,446,1463081131488284467,,6.20548820496,-21.6917457581,-161.073989868,0.00999999977648,1.0,0.0,0.0,0.0,1.0,0.0,0.0,0.0,1.0,-8.04878044128,-43.9024391174,23.3536586761,1.0,0.0,0.0,0.0,1.0,0.0,0.0,0.0,1.0,-1.98718737793,0.502782348633,-9.50498117534,1.0,0.0,0.0,0.0,1.0,0.0,0.0,0.0,1.0
1463081131502306523,447,1463081131498570071,,6.12647008896,-22.1196918488,-160.937576294,0.0100360000506,1.0,0.0,0.0,0.0,1.0,0.0,0.0,0.0,1.0,-4.87804889679,-48.2926864624,22.9268302917,1.0,0.0,0.0,0.0,1.0,0.0,0.0,0.0,1.0,-2.06380183105,0.172382519531,-9.55765361187,1.0,0.0,0.0,0.0,1.0,0.0,0.0,0.0,1.0
1463081131512245670,448,1463081131508494740,,6.09832000732,-22.561662674,-160.835342407,0.0100079998374,1.0,0.0,0.0,0.0,1.0,0.0,0.0,0.0,1.0,-1.2804877758,-50.9756088257,20.0609760284,1.0,0.0,0.0,0.0,1.0,0.0,0.0,0.0,1.0,-1.98718737793,0.134075302102,-9.53371159526,1.0,0.0,0.0,0.0,1.0,0.0,0.0,0.0,1.0
1463081131520195394,449,1463081131518370450,,6.08364772797,-23.0456466675,-160.744995117,0.00997599959373,1.0,0.0,0.0,0.0,1.0,0.0,0.0,0.0,1.0,0.609756112099,-55.365852356,18.9634151459,1.0,0.0,0.0,0.0,1.0,0.0,0.0,0.0,1.0,-2.09732050817,0.320823022461,-9.62947966167,1.0,0.0,0.0,0.0,1.0,0.0,0.0,0.0,1.0
1463081131532938807,450,1463081131528438190,,6.09514665604,-23.5511283875,-160.660766602,0.0100609995425,1.0,0.0,0.0,0.0,1.0,0.0,0.0,0.0,1.0,2.25609779358,-56.2804870605,18.658536911,1.0,0.0,0.0,0.0,1.0,0.0,0.0,0.0,1.0,-2.26970317383,0.181959326172,-9.32302068013,1.0,0.0,0.0,0.0,1.0,0.0,0.0,0.0,1.0
1463081131542229518,451,1463081131538384838,,6.11669397354,-24.0880470276,-160.585144043,0.00994300004095,1.0,0.0,0.0,0.0,1.0,0.0,0.0,0.0,1.0,2.86585378647,-58.9024391174,18.2317085266,1.0,0.0,0.0,0.0,1.0,0.0,0.0,0.0,1.0,-2.60010300293,0.162805712891,-9.42357714985,1.0,0.0,0.0,0.0,1.0,0.0,0.0,0.0,1.0
1463081131550361950,452,1463081131548337318,,6.14762496948,-24.6194858551,-160.498352051,0.0100170001388,1.0,0.0,0.0,0.0,1.0,0.0,0.0,0.0,1.0,2.56097555161,-58.6585388184,19.8780498505,1.0,0.0,0.0,0.0,1.0,0.0,0.0,0.0,1.0,-2.58094938965,-0.167594116211,-9.53371159526,1.0,0.0,0.0,0.0,1.0,0.0,0.0,0.0,1.0
1463081131560359222,453,1463081131558333288,,6.14887428284,-25.1710948944,-160.394134521,0.00999599974602,1.0,0.0,0.0,0.0,1.0,0.0,0.0,0.0,1.0,1.58536589146,-58.5975608826,20.8536586761,1.0,0.0,0.0,0.0,1.0,0.0,0.0,0.0,1.0,-3.02627089844,0.0718260498047,-9.45230756977,1.0,0.0,0.0,0.0,1.0,0.0,0.0,0.0,1.0
1463081131570002016,454,1463081131568398060,,6.11060285568,-25.7189655304,-160.2631073,0.0100020002574,1.0,0.0,0.0,0.0,1.0,0.0,0.0,0.0,1.0,1.58536589146,-58.4756126404,21.8292694092,1.0,0.0,0.0,0.0,1.0,0.0,0.0,0.0,1.0,-2.94486804199,0.593762048251,-9.19852277832,1.0,0.0,0.0,0.0,1.0,0.0,0.0,0.0,1.0
1463081131580325121,455,1463081131578376114,,6.11732053757,-26.2432765961,-160.158737183,0.00998200010508,1.0,0.0,0.0,0.0,1.0,0.0,0.0,0.0,1.0,1.8292683363,-55.6707344055,20.5487823486,1.0,0.0,0.0,0.0,1.0,0.0,0.0,0.0,1.0,-3.18428820801,0.0,-9.16021555176,1.0,0.0,0.0,0.0,1.0,0.0,0.0,0.0,1.0
1463081131590628538,456,1463081131588538073,,6.12215709686,-26.7642555237,-160.055206299,0.0100279999897,1.0,0.0,0.0,0.0,1.0,0.0,0.0,0.0,1.0,1.64634156227,-54.7560997009,20.2439022064,1.0,0.0,0.0,0.0,1.0,0.0,0.0,0.0,1.0,-3.45243879395,0.00478840332031,-9.44751916645,1.0,0.0,0.0,0.0,1.0,0.0,0.0,0.0,1.0
1463081131600728727,457,1463081131598669876,,6.11262273788,-27.2512245178,-159.955184937,0.0100649995729,1.0,0.0,0.0,0.0,1.0,0.0,0.0,0.0,1.0,0.914634168148,-50.7317085266,18.9634151459,1.0,0.0,0.0,0.0,1.0,0.0,0.0,0.0,1.0,-3.46201560059,0.167594116211,-8.96389101563,1.0,0.0,0.0,0.0,1.0,0.0,0.0,0.0,1.0
1463081131612706985,458,1463081131608740274,,6.13241863251,-27.689491272,-159.881347656,0.00995500013232,1.0,0.0,0.0,0.0,1.0,0.0,0.0,0.0,1.0,0.18292683363,-46.2804908752,17.5000019073,1.0,0.0,0.0,0.0,1.0,0.0,0.0,0.0,1.0,-3.7014357666,-0.325611425781,-9.17458076172,1.0,0.0,0.0,0.0,1.0,0.0,0.0,0.0,1.0
1463081131620801969,459,1463081131618457077,,6.085313797,-28.1086425781,-159.777664185,0.00996499974281,1.0,0.0,0.0,0.0,1.0,0.0,0.0,0.0,1.0,-3.10975623131,-42.9878044128,18.658536911,1.0,0.0,0.0,0.0,1.0,0.0,0.0,0.0,1.0,-3.80199223633,0.076614453125,-8.74362446289,1.0,0.0,0.0,0.0,1.0,0.0,0.0,0.0,1.0
1463081131632718560,460,1463081131628403152,,5.99023628235,-28.476732254,-159.657272339,0.0100039998069,1.0,0.0,0.0,0.0,1.0,0.0,0.0,0.0,1.0,-5.79268312454,-38.9634132385,18.841463089,1.0,0.0,0.0,0.0,1.0,0.0,0.0,0.0,1.0,-3.41413156738,0.301669427446,-8.22168850098,1.0,0.0,0.0,0.0,1.0,0.0,0.0,0.0,1.0
1463081131640008025,461,1463081131638432611,,5.88222122192,-28.7891197205,-159.530151367,0.0100079998374,1.0,0.0,0.0,0.0,1.0,0.0,0.0,0.0,1.0,-8.04878044128,-34.817073822,19.5731716156,1.0,0.0,0.0,0.0,1.0,0.0,0.0,0.0,1.0,-3.33751711426,0.0718260498047,-8.49462807476,1.0,0.0,0.0,0.0,1.0,0.0,0.0,0.0,1.0
1463081131650398838,462,1463081131648279571,,5.75486183167,-29.0601444244,-159.406204224,0.00998600013554,1.0,0.0,0.0,0.0,1.0,0.0,0.0,0.0,1.0,-7.80487823486,-32.0731697083,17.6219520569,1.0,0.0,0.0,0.0,1.0,0.0,0.0,0.0,1.0,-3.08373173828,0.493205541992,-8.26478413086,1.0,0.0,0.0,0.0,1.0,0.0,0.0,0.0,1.0
1463081131660231944,463,1463081131658412364,,5.72601318359,-29.3088932037,-159.357955933,0.0100029995665,1.0,0.0,0.0,0.0,1.0,0.0,0.0,0.0,1.0,-4.14634132385,-30.6707305908,12.1951217651,1.0,0.0,0.0,0.0,1.0,0.0,0.0,0.0,1.0,-3.18428820801,0.0526724365234,-8.48983967144,1.0,0.0,0.0,0.0,1.0,0.0,0.0,0.0,1.0
1463081131669935623,464,1463081131668278908,,5.75655269623,-29.528421402,-159.354019165,0.00998799968511,1.0,0.0,0.0,0.0,1.0,0.0,0.0,0.0,1.0,-1.52439022064,-26.9512195587,8.59756088257,1.0,0.0,0.0,0.0,1.0,0.0,0.0,0.0,1.0,-3.19386501465,-0.138863696289,-7.88171186523,1.0,0.0,0.0,0.0,1.0,0.0,0.0,0.0,1.0
1463081131680127739,465,1463081131678460606,,5.78919458389,-29.7274417877,-159.368133545,0.00999899953604,1.0,0.0,0.0,0.0,1.0,0.0,0.0,0.0,1.0,-0.487804889679,-26.2804889679,5.97560977936,1.0,0.0,0.0,0.0,1.0,0.0,0.0,0.0,1.0,-3.21780703125,0.15801730957,-8.3749168227,1.0,0.0,0.0,0.0,1.0,0.0,0.0,0.0,1.0
1463081131690812666,466,1463081131688397202,,5.84968757629,-29.8767948151,-159.391693115,0.0100149996579,1.0,0.0,0.0,0.0,1.0,0.0,0.0,0.0,1.0,0.12195122242,-24.6341457367,5.97560977936,1.0,0.0,0.0,0.0,1.0,0.0,0.0,0.0,1.0,-2.37504819301,-0.148440512063,-7.37414111328,1.0,0.0,0.0,0.0,1.0,0.0,0.0,0.0,1.0
1463081131701072958,467,1463081131698395307,,5.89958381653,-29.9996356964,-159.430877686,0.00999599974602,1.0,0.0,0.0,0.0,1.0,0.0,0.0,0.0,1.0,-3.17073178291,-22.2560977936,5.24390268326,1.0,0.0,0.0,0.0,1.0,0.0,0.0,0.0,1.0,-2.44687409668,-0.397437475586,-7.58004245605,1.0,0.0,0.0,0.0,1.0,0.0,0.0,0.0,1.0
1463081131710714033,468,1463081131708284194,,5.9317317009,-30.1338119507,-159.467666626,0.00998600013554,1.0,0.0,0.0,0.0,1.0,0.0,0.0,0.0,1.0,-5.24390268326,-24.8780498505,5.97560977936,1.0,0.0,0.0,0.0,1.0,0.0,0.0,0.0,1.0,-2.19787712402,-0.46447512207,-7.44596716309,1.0,0.0,0.0,0.0,1.0,0.0,0.0,0.0,1.0
1463081131720933961,469,1463081131718537247,,5.93389797211,-30.251499176,-159.502059937,0.0100640002638,1.0,0.0,0.0,0.0,1.0,0.0,0.0,0.0,1.0,-9.5731716156,-23.1707324982,6.89024400711,1.0,0.0,0.0,0.0,1.0,0.0,0.0,0.0,1.0,-2.06859023437,-0.656011254883,-6.98149204102,1.0,0.0,0.0,0.0,1.0,0.0,0.0,0.0,1.0
1463081131730128266,470,1463081131728422957,,5.91494035721,-30.370634079,-159.544891357,0.00995399989188,1.0,0.0,0.0,0.0,1.0,0.0,0.0,0.0,1.0,-12.6219520569,-24.2682933807,6.52439069748,1.0,0.0,0.0,0.0,1.0,0.0,0.0,0.0,1.0,-2.12126281703,-0.780509741211,-7.48906279297,1.0,0.0,0.0,0.0,1.0,0.0,0.0,0.0,1.0
1463081131741024026,471,1463081131738410281,,5.84192848206,-30.496635437,-159.581817627,0.00999899953604,1.0,0.0,0.0,0.0,1.0,0.0,0.0,0.0,1.0,-15.2439022064,-25.3048782349,5.67073154449,1.0,0.0,0.0,0.0,1.0,0.0,0.0,0.0,1.0,-2.01591779785,-0.368707055664,-7.26400783691,1.0,0.0,0.0,0.0,1.0,0.0,0.0,0.0,1.0
1463081131750775361,472,1463081131748284272,,5.74959182739,-30.6185321808,-159.621063232,0.0099849998951,1.0,0.0,0.0,0.0,1.0,0.0,0.0,0.0,1.0,-14.7560987473,-25.3658542633,3.90243911743,1.0,0.0,0.0,0.0,1.0,0.0,0.0,0.0,1.0,-1.98718737793,0.0383072265625,-7.31668027344,1.0,0.0,0.0,0.0,1.0,0.0,0.0,0.0,1.0
1463081131761083258,473,1463081131758457221,,5.69780731201,-30.7511787415,-159.696380615,0.00999999977648,1.0,0.0,0.0,0.0,1.0,0.0,0.0,0.0,1.0,-13.9024391174,-27.1341457367,1.76829278469,1.0,0.0,0.0,0.0,1.0,0.0,0.0,0.0,1.0,-1.96803376465,-0.167594116211,-7.40765993652,1.0,0.0,0.0,0.0,1.0,0.0,0.0,0.0,1.0
1463081131770335584,474,1463081131768420848,,5.65267181396,-30.8919029236,-159.779769897,0.0100320000201,1.0,0.0,0.0,0.0,1.0,0.0,0.0,0.0,1.0,-13.5365858078,-27.3780498505,1.03658533096,1.0,0.0,0.0,0.0,1.0,0.0,0.0,0.0,1.0,-2.09253210485,-0.143652099609,-7.48427438965,1.0,0.0,0.0,0.0,1.0,0.0,0.0,0.0,1.0
1463081131780533168,475,1463081131778433953,,5.61213779449,-31.0205211639,-159.877166748,0.0099950004369,1.0,0.0,0.0,0.0,1.0,0.0,0.0,0.0,1.0,-15.0000009537,-27.3780498505,0.487804889679,1.0,0.0,0.0,0.0,1.0,0.0,0.0,0.0,1.0,-1.90578452148,-0.316034619141,-7.28794985352,1.0,0.0,0.0,0.0,1.0,0.0,0.0,0.0,1.0
1463081131790609034,476,1463081131788343413,,5.57955789566,-31.1462192535,-159.989303589,0.00999800022691,1.0,0.0,0.0,0.0,1.0,0.0,0.0,0.0,1.0,-17.134147644,-27.5609760284,0.548780500889,1.0,0.0,0.0,0.0,1.0,0.0,0.0,0.0,1.0,-1.95845695801,-0.679953271484,-7.65665690918,1.0,0.0,0.0,0.0,1.0,0.0,0.0,0.0,1.0
1463081131800366098,477,1463081131798347300,,5.53471136093,-31.2827625275,-160.109985352,0.00999899953604,1.0,0.0,0.0,0.0,1.0,0.0,0.0,0.0,1.0,-20.8536586761,-26.7682933807,0.975609779358,1.0,0.0,0.0,0.0,1.0,0.0,0.0,0.0,1.0,-2.20266552734,-0.986411083984,-7.45554396973,1.0,0.0,0.0,0.0,1.0,0.0,0.0,0.0,1.0
1463081131810268423,478,1463081131808266031,,5.4635219574,-31.4223556519,-160.234054565,0.00998799968511,1.0,0.0,0.0,0.0,1.0,0.0,0.0,0.0,1.0,-22.1951236725,-27.5609760284,-0.18292683363,1.0,0.0,0.0,0.0,1.0,0.0,0.0,0.0,1.0,-2.25533796387,-0.76614453125,-7.77636699219,1.0,0.0,0.0,0.0,1.0,0.0,0.0,0.0,1.0
1463081131820435069,479,1463081131818334136,,5.33863115311,-31.5545711517,-160.354614258,0.0100060002878,1.0,0.0,0.0,0.0,1.0,0.0,0.0,0.0,1.0,-24.4512195587,-26.9512195587,-1.76829278469,1.0,0.0,0.0,0.0,1.0,0.0,0.0,0.0,1.0,-2.39420180629,-0.277727392578,-8.2504189209,1.0,0.0,0.0,0.0,1.0,0.0,0.0,0.0,1.0
1463081131830427446,480,1463081131828353335,,5.20836305618,-31.6885032654,-160.489822388,0.00999400019646,1.0,0.0,0.0,0.0,1.0,0.0,0.0,0.0,1.0,-23.7804889679,-26.4024391174,-4.39024400711,1.0,0.0,0.0,0.0,1.0,0.0,0.0,0.0,1.0,-2.82515795898,0.119710083008,-9.14106193848,1.0,0.0,0.0,0.0,1.0,0.0,0.0,0.0,1.0
1463081131840407374,481,1463081131838432691,,5.10558891296,-31.791557312,-160.659744263,0.0100940000266,1.0,0.0,0.0,0.0,1.0,0.0,0.0,0.0,1.0,-22.8658542633,-24.3902435303,-7.31707334518,1.0,0.0,0.0,0.0,1.0,0.0,0.0,0.0,1.0,-2.81558115234,0.105344873047,-9.61032604839,1.0,0.0,0.0,0.0,1.0,0.0,0.0,0.0,1.0
1463081131850353396,482,1463081131848276161,,5.05019235611,-31.8537788391,-160.858001709,0.00990299973637,1.0,0.0,0.0,0.0,1.0,0.0,0.0,0.0,1.0,-19.1463432312,-21.8292694092,-10.7926826477,1.0,0.0,0.0,0.0,1.0,0.0,0.0,0.0,1.0,-2.64319863281,0.292092584273,-9.71088193359,1.0,0.0,0.0,0.0,1.0,0.0,0.0,0.0,1.0
1463081131860325773,483,1463081131858275516,,5.09325695038,-31.8897018433,-161.128387451,0.00998899992555,1.0,0.0,0.0,0.0,1.0,0.0,0.0,0.0,1.0,-15.2439022064,-20.7317085266,-15.4268302917,1.0,0.0,0.0,0.0,1.0,0.0,0.0,0.0,1.0,-2.44208569336,-0.181959326172,-9.67736311035,1.0,0.0,0.0,0.0,1.0,0.0,0.0,0.0,1.0
1463081131870295806,484,1463081131868250393,,5.22924757004,-31.9224891663,-161.475387573,0.0100330002606,1.0,0.0,0.0,0.0,1.0,0.0,0.0,0.0,1.0,-13.5975618362,-20.2439022064,-19.5121955872,1.0,0.0,0.0,0.0,1.0,0.0,0.0,0.0,1.0,-2.54264216309,-0.933738647461,-9.53371159526,1.0,0.0,0.0,0.0,1.0,0.0,0.0,0.0,1.0
1463081131883313697,485,1463081131879293809,,5.39507055283,-31.9393939972,-161.885284424,0.0100010000169,1.0,0.0,0.0,0.0,1.0,0.0,0.0,0.0,1.0,-16.5243911743,-19.0853652954,-23.3536586761,1.0,0.0,0.0,0.0,1.0,0.0,0.0,0.0,1.0,-2.53306535645,-1.47961662598,-9.44273076313,1.0,0.0,0.0,0.0,1.0,0.0,0.0,0.0,1.0
1463081131892437429,486,1463081131888482593,,5.49211645126,-31.9498405457,-162.29019165,0.0100109996274,1.0,0.0,0.0,0.0,1.0,0.0,0.0,0.0,1.0,-19.2073173523,-19.2682914734,-25.3048782349,1.0,0.0,0.0,0.0,1.0,0.0,0.0,0.0,1.0,-2.49475812988,-0.718260498047,-9.74440075684,1.0,0.0,0.0,0.0,1.0,0.0,0.0,0.0,1.0
1463081131901962879,487,1463081131898361220,,5.53632926941,-31.9348011017,-162.683578491,0.00997400004417,1.0,0.0,0.0,0.0,1.0,0.0,0.0,0.0,1.0,-20.3048782349,-18.1707305908,-26.8292694092,1.0,0.0,0.0,0.0,1.0,0.0,0.0,0.0,1.0,-2.26491477051,0.0239420166016,-9.94072529297,1.0,0.0,0.0,0.0,1.0,0.0,0.0,0.0,1.0
1463081131910263644,488,1463081131908295471,,5.59437894821,-31.8996257782,-163.095352173,0.00997699983418,1.0,0.0,0.0,0.0,1.0,0.0,0.0,0.0,1.0,-20.3048782349,-16.158536911,-28.2926845551,1.0,0.0,0.0,0.0,1.0,0.0,0.0,0.0,1.0,-2.43729729004,-0.0814028564453,-10.539275708,1.0,0.0,0.0,0.0,1.0,0.0,0.0,0.0,1.0
1463081131924807626,489,1463081131918544462,,5.6365904808,-31.8503265381,-163.495819092,0.0100229997188,1.0,0.0,0.0,0.0,1.0,0.0,0.0,0.0,1.0,-19.5121955872,-14.9390249252,-28.3536586761,1.0,0.0,0.0,0.0,1.0,0.0,0.0,0.0,1.0,-2.42293208008,0.292092584273,-10.7403886475,1.0,0.0,0.0,0.0,1.0,0.0,0.0,0.0,1.0
1463081131930949698,490,1463081131928549598,,5.73937749863,-31.7574596405,-163.939926147,0.0100079998374,1.0,0.0,0.0,0.0,1.0,0.0,0.0,0.0,1.0,-17.4390239716,-13.048781395,-31.2195129395,1.0,0.0,0.0,0.0,1.0,0.0,0.0,0.0,1.0,-2.08295529821,-0.124498486328,-11.2958434326,1.0,0.0,0.0,0.0,1.0,0.0,0.0,0.0,1.0
1463081131940433221,491,1463081131938388902,,5.93211698532,-31.6623001099,-164.457214355,0.00999699998647,1.0,0.0,0.0,0.0,1.0,0.0,0.0,0.0,1.0,-16.8902435303,-13.4756097794,-34.5121955872,1.0,0.0,0.0,0.0,1.0,0.0,0.0,0.0,1.0,-2.19787712402,-1.35990654297,-12.1194488037,1.0,0.0,0.0,0.0,1.0,0.0,0.0,0.0,1.0
1463081131951966584,492,1463081131948346539,,6.13803195953,-31.5429496765,-165.039230347,0.0100180003792,1.0,0.0,0.0,0.0,1.0,0.0,0.0,0.0,1.0,-18.841463089,-13.4146347046,-39.9390258789,1.0,0.0,0.0,0.0,1.0,0.0,0.0,0.0,1.0,-1.66636435547,-1.2976572998,-11.2479593994,1.0,0.0,0.0,0.0,1.0,0.0,0.0,0.0,1.0
1463081131959939537,493,1463081131958362561,,6.2354683876,-31.8024463654,-165.574386597,0.00997000001371,1.0,0.0,0.0,0.0,1.0,0.0,0.0,0.0,1.0,-24.7560977936,-20.6707324982,-36.9512214661,1.0,0.0,0.0,0.0,1.0,0.0,0.0,0.0,1.0,-6.32548078613,-0.383072265625,-7.58004245605,1.0,0.0,0.0,0.0,1.0,0.0,0.0,0.0,1.0
1463081131970373423,494,1463081131968368010,,6.25605297089,-31.4201869965,-166.101257324,0.0100279999897,1.0,0.0,0.0,0.0,1.0,0.0,0.0,0.0,1.0,-22.8658542633,13.9634151459,-45.4268302917,1.0,0.0,0.0,0.0,1.0,0.0,0.0,0.0,1.0,-1.92014973145,1.44609780273,-11.3676694824,1.0,0.0,0.0,0.0,1.0,0.0,0.0,0.0,1.0
1463081131982823503,495,1463081131978342835,,6.14550352097,-31.1522216797,-166.676498413,0.00993799977005,1.0,0.0,0.0,0.0,1.0,0.0,0.0,0.0,1.0,-44.1463432312,-0.243902444839,-45.0,1.0,0.0,0.0,0.0,1.0,0.0,0.0,0.0,1.0,-1.68551796875,0.0814028564453,-14.8775691162,1.0,0.0,0.0,0.0,1.0,0.0,0.0,0.0,1.0
1463081131993419993,496,1463081131989008647,,6.05288648605,-30.9659976959,-167.252197266,0.0100579997525,1.0,0.0,0.0,0.0,1.0,0.0,0.0,0.0,1.0,-36.4024391174,-7.43902492523,-47.0121994019,1.0,0.0,0.0,0.0,1.0,0.0,0.0,0.0,1.0,-1.27850368652,1.20188930646,-10.0508585693,1.0,0.0,0.0,0.0,1.0,0.0,0.0,0.0,1.0
1463081132003303515,497,1463081131998884409,,6.03290748596,-30.6529159546,-167.849700928,0.0100130001083,1.0,0.0,0.0,0.0,1.0,0.0,0.0,0.0,1.0,-35.6707344055,-1.2195122242,-46.5243911743,1.0,0.0,0.0,0.0,1.0,0.0,0.0,0.0,1.0,-0.00478840332031,0.0383072265625,-9.08360109863,1.0,0.0,0.0,0.0,1.0,0.0,0.0,0.0,1.0
1463081132014031151,498,1463081132008539599,,6.09743356705,-30.4664878845,-168.515808105,0.00998099986464,1.0,0.0,0.0,0.0,1.0,0.0,0.0,0.0,1.0,-31.8902454376,-2.62195134163,-51.7682952881,1.0,0.0,0.0,0.0,1.0,0.0,0.0,0.0,1.0,-2.55700737305,-0.234631762695,-11.1617681396,1.0,0.0,0.0,0.0,1.0,0.0,0.0,0.0,1.0
1463081132022563582,499,1463081132018745308,,6.22920036316,-30.1834754944,-169.245178223,0.0100050000474,1.0,0.0,0.0,0.0,1.0,0.0,0.0,0.0,1.0,-31.158536911,0.853658556938,-55.7317085266,1.0,0.0,0.0,0.0,1.0,0.0,0.0,0.0,1.0,-1.33117612305,-0.995987890625,-11.2575362061,1.0,0.0,0.0,0.0,1.0,0.0,0.0,0.0,1.0
1463081132032487521,500,1463081132028637007,,6.3589091301,-29.844909668,-170.005752563,0.00999100040644,1.0,0.0,0.0,0.0,1.0,0.0,0.0,0.0,1.0,-31.2195129395,-0.609756112099,-59.390247345,1.0,0.0,0.0,0.0,1.0,0.0,0.0,0.0,1.0,0.15801730957,-0.555454785156,-8.9112185791,1.0,0.0,0.0,0.0,1.0,0.0,0.0,0.0,1.0
1463081132042557397,501,1463081132038571988,,6.5639500618,-29.5445041656,-170.857650757,0.0100560002029,1.0,0.0,0.0,0.0,1.0,0.0,0.0,0.0,1.0,-35.1219520569,-2.68292689323,-62.5,1.0,0.0,0.0,0.0,1.0,0.0,0.0,0.0,1.0,-0.225054956055,-1.93451494141,-8.80108530273,1.0,0.0,0.0,0.0,1.0,0.0,0.0,0.0,1.0
1463081132053623105,502,1463081132048476083,,6.578977108,-29.2306499481,-171.651657104,0.0100010000169,1.0,0.0,0.0,0.0,1.0,0.0,0.0,0.0,1.0,-45.182926178,-2.62195134163,-61.4634132385,1.0,0.0,0.0,0.0,1.0,0.0,0.0,0.0,1.0,0.076614453125,-1.14921679688,-11.3724578857,1.0,0.0,0.0,0.0,1.0,0.0,0.0,0.0,1.0
1463081132062581473,503,1463081132058492887,,6.54251241684,-29.0392189026,-172.505172729,0.00996800046414,1.0,0.0,0.0,0.0,1.0,0.0,0.0,0.0,1.0,-54.817073822,-6.64634132385,-65.6097564697,1.0,0.0,0.0,0.0,1.0,0.0,0.0,0.0,1.0,-1.44609780273,-1.24498486328,-9.05487067871,1.0,0.0,0.0,0.0,1.0,0.0,0.0,0.0,1.0
1463081132072547026,504,1463081132068398284,,6.54247331619,-28.813129425,-173.400177002,0.0100130001083,1.0,0.0,0.0,0.0,1.0,0.0,0.0,0.0,1.0,-57.6829299927,-7.43902492523,-66.1585388184,1.0,0.0,0.0,0.0,1.0,0.0,0.0,0.0,1.0,-0.670376464844,-2.24097275391,-9.27513723145,1.0,0.0,0.0,0.0,1.0,0.0,0.0,0.0,1.0
1463081132080501698,505,1463081132078362223,,6.24732017517,-28.4692440033,-174.195831299,0.00993700046092,1.0,0.0,0.0,0.0,1.0,0.0,0.0,0.0,1.0,-63.1707305908,-10.7317075729,-68.5975570679,1.0,0.0,0.0,0.0,1.0,0.0,0.0,0.0,1.0,2.14999323695,1.25456166992,-7.29273825684,1.0,0.0,0.0,0.0,1.0,0.0,0.0,0.0,1.0
1463081132092462925,506,1463081132088395224,,6.00083637238,-28.0880260468,-175.020462036,0.0100140003487,1.0,0.0,0.0,0.0,1.0,0.0,0.0,0.0,1.0,-63.1097564697,-10.1219511032,-68.4146347046,1.0,0.0,0.0,0.0,1.0,0.0,0.0,0.0,1.0,2.92571442871,0.660799658203,-7.80509741211,1.0,0.0,0.0,0.0,1.0,0.0,0.0,0.0,1.0
1463081132102701915,507,1463081132098433278,,5.85713148117,-27.9546070099,-175.922958374,0.0100029995665,1.0,0.0,0.0,0.0,1.0,0.0,0.0,0.0,1.0,-68.1097564697,-19.0243911743,-68.1707382202,1.0,0.0,0.0,0.0,1.0,0.0,0.0,0.0,1.0,-0.00478840332031,-1.52750065918,-9.25598361816,1.0,0.0,0.0,0.0,1.0,0.0,0.0,0.0,1.0
1463081132112430698,508,1463081132108431279,,5.77603387833,-27.7036838531,-176.82220459,0.0100469999015,1.0,0.0,0.0,0.0,1.0,0.0,0.0,0.0,1.0,-71.0975646973,-13.2926826477,-62.9878044128,1.0,0.0,0.0,0.0,1.0,0.0,0.0,0.0,1.0,1.34075292969,-2.98317526855,-7.80988581543,1.0,0.0,0.0,0.0,1.0,0.0,0.0,0.0,1.0
1463081132122815053,509,1463081132118523968,,5.43435001373,-27.6107158661,-177.571075439,0.00995299965143,1.0,0.0,0.0,0.0,1.0,0.0,0.0,0.0,1.0,-75.7317047119,-15.6707315445,-58.2317085266,1.0,0.0,0.0,0.0,1.0,0.0,0.0,0.0,1.0,-0.814028564453,-0.450109912109,-7.38850632324,1.0,0.0,0.0,0.0,1.0,0.0,0.0,0.0,1.0
1463081132132584253,510,1463081132128410146,,5.05914211273,-27.5367622375,-178.289886475,0.0100020002574,1.0,0.0,0.0,0.0,1.0,0.0,0.0,0.0,1.0,-70.0609741211,-4.63414621353,-60.2439041138,1.0,0.0,0.0,0.0,1.0,0.0,0.0,0.0,1.0,-2.87783039551,0.833182177734,-8.28872556294,1.0,0.0,0.0,0.0,1.0,0.0,0.0,0.0,1.0
1463081132142421057,511,1463081132138482575,,4.66395425797,-27.2390480042,-178.957595825,0.0100010000169,1.0,0.0,0.0,0.0,1.0,0.0,0.0,0.0,1.0,-58.4756126404,2.37804889679,-62.1951255798,1.0,0.0,0.0,0.0,1.0,0.0,0.0,0.0,1.0,-0.067037651051,3.35667072754,-9.91678327637,1.0,0.0,0.0,0.0,1.0,0.0,0.0,0.0,1.0
1463081132152632391,512,1463081132148351358,,4.49226284027,-26.8794689178,-179.674423218,0.00997699983418,1.0,0.0,0.0,0.0,1.0,0.0,0.0,0.0,1.0,-45.9756088257,24.9390239716,-64.5121917725,1.0,0.0,0.0,0.0,1.0,0.0,0.0,0.0,1.0,-3.71580097656,1.98718737793,-10.8457335205,1.0,0.0,0.0,0.0,1.0,0.0,0.0,0.0,1.0
1463081132162427320,513,1463081132158418994,,4.50439405441,-26.46210289,179.592727661,0.0100290002301,1.0,0.0,0.0,0.0,1.0,0.0,0.0,0.0,1.0,-27.0121955872,23.5365848541,-65.9146347046,1.0,0.0,0.0,0.0,1.0,0.0,0.0,0.0,1.0,-2.96881005859,2.85388837891,-15.0307980225,1.0,0.0,0.0,0.0,1.0,0.0,0.0,0.0,1.0
1463081132172784435,514,1463081132168610953,,4.63185787201,-25.798707962,178.923782349,0.0102970004082,1.0,0.0,0.0,0.0,1.0,0.0,0.0,0.0,1.0,-7.25609779358,41.4634170532,-62.5609779358,1.0,0.0,0.0,0.0,1.0,0.0,0.0,0.0,1.0,-0.833182177734,2.94965644531,-10.5296989014,1.0,0.0,0.0,0.0,1.0,0.0,0.0,0.0,1.0
1463081132182663374,515,1463081132178446195,,4.73765516281,-25.1885604858,178.361053467,0.00972499977797,1.0,0.0,0.0,0.0,1.0,0.0,0.0,0.0,1.0,-2.68292689323,42.317073822,-57.5609779358,1.0,0.0,0.0,0.0,1.0,0.0,0.0,0.0,1.0,-1.80522805176,5.67904633789,-17.1424850558,1.0,0.0,0.0,0.0,1.0,0.0,0.0,0.0,1.0
1463081132192572626,516,1463081132188537113,,5.10982275009,-24.4907245636,177.832183838,0.00996599998325,1.0,0.0,0.0,0.0,1.0,0.0,0.0,0.0,1.0,4.57317066193,52.5609779358,-43.9634170532,1.0,0.0,0.0,0.0,1.0,0.0,0.0,0.0,1.0,-2.15957004359,-1.61848032227,-13.110648291,1.0,0.0,0.0,0.0,1.0,0.0,0.0,0.0,1.0
1463081132202710106,517,1463081132198404229,,5.41136455536,-23.4873447418,177.444107056,0.00999299995601,1.0,0.0,0.0,0.0,1.0,0.0,0.0,0.0,1.0,1.52439022064,81.7682952881,-33.2926826477,1.0,0.0,0.0,0.0,1.0,0.0,0.0,0.0,1.0,-1.38384855957,-2.1691467041,-12.2774661133,1.0,0.0,0.0,0.0,1.0,0.0,0.0,0.0,1.0
1463081132212467378,518,1463081132208446084,,5.73674964905,-22.7707042694,177.041091919,0.0100140003487,1.0,0.0,0.0,0.0,1.0,0.0,0.0,0.0,1.0,-0.792682945728,74.3902511597,-32.5609779358,1.0,0.0,0.0,0.0,1.0,0.0,0.0,0.0,1.0,-2.18351191406,-1.21625444336,-4.06535441895,1.0,0.0,0.0,0.0,1.0,0.0,0.0,0.0,1.0
1463081132222625848,519,1463081132218514606,,5.92634773254,-21.8542575836,176.86038208,0.00999899953604,1.0,0.0,0.0,0.0,1.0,0.0,0.0,0.0,1.0,-6.28048801422,76.0365829468,-12.6219520569,1.0,0.0,0.0,0.0,1.0,0.0,0.0,0.0,1.0,-2.28885678711,-6.63193859863,-22.1367885498,1.0,0.0,0.0,0.0,1.0,0.0,0.0,0.0,1.0
1463081132230477395,520,1463081132228448962,,5.89417409897,-20.5880718231,176.915740967,0.0100309997797,1.0,0.0,0.0,0.0,1.0,0.0,0.0,0.0,1.0,-2.80487799644,97.0121994019,-0.0609756112099,1.0,0.0,0.0,0.0,1.0,0.0,0.0,0.0,1.0,3.11725056152,0.478840332031,-14.709975,1.0,0.0,0.0,0.0,1.0,0.0,0.0,0.0,1.0
1463081132239983158,521,1463081132238393734,,5.97870969772,-19.5700492859,177.067565918,0.00995100010186,1.0,0.0,0.0,0.0,1.0,0.0,0.0,0.0,1.0,7.62195110321,89.1463470459,11.7682924271,1.0,0.0,0.0,0.0,1.0,0.0,0.0,0.0,1.0,-0.981622680664,-0.857124194336,-15.1217776855,1.0,0.0,0.0,0.0,1.0,0.0,0.0,0.0,1.0
1463081132250365586,522,1463081132248364704,,5.93050575256,-18.4382839203,177.283798218,0.0100180003792,1.0,0.0,0.0,0.0,1.0,0.0,0.0,0.0,1.0,7.80487823486,93.9024429321,13.1707324982,1.0,0.0,0.0,0.0,1.0,0.0,0.0,0.0,1.0,1.09175595703,2.22660754395,-13.378798877,1.0,0.0,0.0,0.0,1.0,0.0,0.0,0.0,1.0
1463081132260059004,523,1463081132258393331,,6.17516899109,-17.3153190613,177.496780396,0.0100029995665,1.0,0.0,0.0,0.0,1.0,0.0,0.0,0.0,1.0,19.7560977936,92.0121994019,19.0243911743,1.0,0.0,0.0,0.0,1.0,0.0,0.0,0.0,1.0,1.5801730957,-1.96324536133,-12.6461731689,1.0,0.0,0.0,0.0,1.0,0.0,0.0,0.0,1.0
1463081132272046064,524,1463081132268387842,,6.45710277557,-16.148979187,177.67489624,0.00999699998647,1.0,0.0,0.0,0.0,1.0,0.0,0.0,0.0,1.0,21.7682933807,88.2926864624,15.8536596298,1.0,0.0,0.0,0.0,1.0,0.0,0.0,0.0,1.0,4.41969626465,-2.3415290775,-13.9438304687,1.0,0.0,0.0,0.0,1.0,0.0,0.0,0.0,1.0
1463081132280388027,525,1463081132278422823,,6.68881893158,-15.0558834076,177.880615234,0.00998200010508,1.0,0.0,0.0,0.0,1.0,0.0,0.0,0.0,1.0,22.7439041138,87.2561035156,16.7073173523,1.0,0.0,0.0,0.0,1.0,0.0,0.0,0.0,1.0,3.37582434082,-1.08696755371,-16.6205479248,1.0,0.0,0.0,0.0,1.0,0.0,0.0,0.0,1.0
1463081132290376133,526,1463081132288666188,,6.95612239838,-13.9682798386,178.080688477,0.0100180003792,1.0,0.0,0.0,0.0,1.0,0.0,0.0,0.0,1.0,22.3780498505,92.9878005981,16.0975608826,1.0,0.0,0.0,0.0,1.0,0.0,0.0,0.0,1.0,1.70467158203,-2.44208569336,-18.5406976562,1.0,0.0,0.0,0.0,1.0,0.0,0.0,0.0,1.0
1463081132302056735,527,1463081132298414503,,7.24184989929,-12.9136209488,178.250946045,0.00999800022691,1.0,0.0,0.0,0.0,1.0,0.0,0.0,0.0,1.0,24.0853652954,90.365852356,12.9878053665,1.0,0.0,0.0,0.0,1.0,0.0,0.0,0.0,1.0,1.81959326172,-2.26970317383,-18.8184238798,1.0,0.0,0.0,0.0,1.0,0.0,0.0,0.0,1.0
1463081132310015261,528,1463081132308360473,,7.54242897034,-11.9880771637,178.321594238,0.00998600013554,1.0,0.0,0.0,0.0,1.0,0.0,0.0,0.0,1.0,23.5365848541,80.4268264771,4.08536577225,1.0,0.0,0.0,0.0,1.0,0.0,0.0,0.0,1.0,0.938527050781,-2.80121594238,-23.4966950928,1.0,0.0,0.0,0.0,1.0,0.0,0.0,0.0,1.0
1463081132322229717,529,1463081132318492797,,7.85711860657,-10.876127243,178.391799927,0.0100060002878,1.0,0.0,0.0,0.0,1.0,0.0,0.0,0.0,1.0,28.5365848541,95.7926864624,0.731707334518,1.0,0.0,0.0,0.0,1.0,0.0,0.0,0.0,1.0,1.43652099609,-0.727837304687,-13.1728975342,1.0,0.0,0.0,0.0,1.0,0.0,0.0,0.0,1.0
1463081132330444649,530,1463081132328372517,,8.05077934265,-9.89272975922,178.344665527,0.0100029995665,1.0,0.0,0.0,0.0,1.0,0.0,0.0,0.0,1.0,23.5975627899,84.207321167,-11.341463089,1.0,0.0,0.0,0.0,1.0,0.0,0.0,0.0,1.0,2.01112939453,2.83473476562,-25.5365549072,1.0,0.0,0.0,0.0,1.0,0.0,0.0,0.0,1.0
1463081132340165046,531,1463081132338480831,,8.51746940613,-8.91443920135,178.180969238,0.0100090000778,1.0,0.0,0.0,0.0,1.0,0.0,0.0,0.0,1.0,32.5609779358,84.6951217651,-20.3048782349,1.0,0.0,0.0,0.0,1.0,0.0,0.0,0.0,1.0,0.928950244141,-3.87381828613,-19.8622969727,1.0,0.0,0.0,0.0,1.0,0.0,0.0,0.0,1.0
1463081132352422887,532,1463081132348617686,,8.73250865936,-7.83490848541,178.022140503,0.00999100040644,1.0,0.0,0.0,0.0,1.0,0.0,0.0,0.0,1.0,16.2804889679,93.3536605835,-23.1097564697,1.0,0.0,0.0,0.0,1.0,0.0,0.0,0.0,1.0,1.77649763184,-1.00077629395,-20.5566154541,1.0,0.0,0.0,0.0,1.0,0.0,0.0,0.0,1.0
1463081132360117091,533,1463081132358463969,,9.15097618103,-6.77913665771,177.913696289,0.0100140003487,1.0,0.0,0.0,0.0,1.0,0.0,0.0,0.0,1.0,21.7073173523,89.5731735229,-15.7317075729,1.0,0.0,0.0,0.0,1.0,0.0,0.0,0.0,1.0,2.64798703613,-5.95198532715,-16.9844665771,1.0,0.0,0.0,0.0,1.0,0.0,0.0,0.0,1.0
1463081132372117015,534,1463081132368459783,,9.31278896332,-5.80176782608,177.590774536,0.00998399965465,1.0,0.0,0.0,0.0,1.0,0.0,0.0,0.0,1.0,0.18292683363,87.3170776367,-38.2926864624,1.0,0.0,0.0,0.0,1.0,0.0,0.0,0.0,1.0,0.0143652099609,-3.80199223633,-16.1991696017,1.0,0.0,0.0,0.0,1.0,0.0,0.0,0.0,1.0
1463081132382720276,535,1463081132378501951,,9.40190315247,-4.64268636703,177.43069458,0.0100159998983,1.0,0.0,0.0,0.0,1.0,0.0,0.0,0.0,1.0,0.18292683363,93.1707382202,-23.7195129395,1.0,0.0,0.0,0.0,1.0,0.0,0.0,0.0,1.0,5.77002600098,-2.79163913574,-19.8814505859,1.0,0.0,0.0,0.0,1.0,0.0,0.0,0.0,1.0
1463081132390111407,536,1463081132388499796,,9.57576942444,-3.51779174805,177.073745728,0.0100010000169,1.0,0.0,0.0,0.0,1.0,0.0,0.0,0.0,1.0,-5.54878091812,95.0609817505,-42.9878044128,1.0,0.0,0.0,0.0,1.0,0.0,0.0,0.0,1.0,2.76290871582,-6.84262834473,-17.2047331299,1.0,0.0,0.0,0.0,1.0,0.0,0.0,0.0,1.0
1463081132402839039,537,1463081132398578995,,9.82223510742,-2.5642490387,176.801101685,0.00997999962419,1.0,0.0,0.0,0.0,1.0,0.0,0.0,0.0,1.0,7.50000047684,93.2926864624,-35.1829299927,1.0,0.0,0.0,0.0,1.0,0.0,0.0,0.0,1.0,-1.54186586914,-5.43962617188,-17.8320139648,1.0,0.0,0.0,0.0,1.0,0.0,0.0,0.0,1.0
1463081132410182931,538,1463081132408486736,,10.0508317947,-1.57187199593,176.337905884,0.009990000166,1.0,0.0,0.0,0.0,1.0,0.0,0.0,0.0,1.0,9.20731735229,77.9268264771,-52.4390258789,1.0,0.0,0.0,0.0,1.0,0.0,0.0,0.0,1.0,3.55299526367,-3.76847341309,-15.7442701172,1.0,0.0,0.0,0.0,1.0,0.0,0.0,0.0,1.0
1463081132422083012,539,1463081132418527862,,10.0293560028,-0.449277371168,175.851577759,0.0100170001388,1.0,0.0,0.0,0.0,1.0,0.0,0.0,0.0,1.0,5.18292713165,92.3780517578,-57.9878082275,1.0,0.0,0.0,0.0,1.0,0.0,0.0,0.0,1.0,2.41814367676,1.63284553223,-12.5647703125,1.0,0.0,0.0,0.0,1.0,0.0,0.0,0.0,1.0
1463081132432747470,540,1463081132428474510,,10.1568212509,0.474887251854,175.338882446,0.0100220004097,1.0,0.0,0.0,0.0,1.0,0.0,0.0,0.0,1.0,3.59756112099,87.1951217651,-59.3292732239,1.0,0.0,0.0,0.0,1.0,0.0,0.0,0.0,1.0,-0.9193734375,-2.82515795898,-14.9924907959,1.0,0.0,0.0,0.0,1.0,0.0,0.0,0.0,1.0
1463081132440138914,541,1463081132438499646,,10.0199298859,1.48950827122,174.782516479,0.00996300019324,1.0,0.0,0.0,0.0,1.0,0.0,0.0,0.0,1.0,-6.58536624908,87.8048782349,-64.0243911743,1.0,0.0,0.0,0.0,1.0,0.0,0.0,0.0,1.0,1.41736738281,1.21146604004,-13.9725608887,1.0,0.0,0.0,0.0,1.0,0.0,0.0,0.0,1.0
1463081132450292696,542,1463081132448345096,,10.0943889618,2.22092843056,174.28187561,0.00999899953604,1.0,0.0,0.0,0.0,1.0,0.0,0.0,0.0,1.0,-6.0365858078,75.7317047119,-56.2804870605,1.0,0.0,0.0,0.0,1.0,0.0,0.0,0.0,1.0,-2.44687409668,-4.52982954102,-15.0116444092,1.0,0.0,0.0,0.0,1.0,0.0,0.0,0.0,1.0
1463081132460013354,543,1463081132458385962,,9.82128238678,3.03366923332,173.769363403,0.0100360000506,1.0,0.0,0.0,0.0,1.0,0.0,0.0,0.0,1.0,-15.2439022064,71.2804870605,-55.4268302917,1.0,0.0,0.0,0.0,1.0,0.0,0.0,0.0,1.0,0.991199487305,1.93451494141,-12.6940572021,1.0,0.0,0.0,0.0,1.0,0.0,0.0,0.0,1.0
1463081132470217553,544,1463081132468269432,,10.6595363617,4.99072742462,173.778259277,0.00997800007463,1.0,0.0,0.0,0.0,1.0,0.0,0.0,0.0,1.0,73.9024429321,251.402450562,-36.4634170532,1.0,0.0,0.0,0.0,1.0,0.0,0.0,0.0,1.0,-62.024188208,-2.79163913574,-6.13873305664,1.0,0.0,0.0,0.0,1.0,0.0,0.0,0.0,1.0
1463081132480603002,545,1463081132478510037,,8.8221616745,8.83786201477,174.056182861,0.009990000166,1.0,0.0,0.0,0.0,1.0,0.0,0.0,0.0,1.0,-179.39024353,334.45123291,-19.4512195587,1.0,0.0,0.0,0.0,1.0,0.0,0.0,0.0,1.0,52.7394741699,15.4809079346,-5.1858407959,1.0,0.0,0.0,0.0,1.0,0.0,0.0,0.0,1.0
1463081132490187046,546,1463081132488493976,,8.94994831085,7.87703180313,173.414901733,0.0100159998983,1.0,0.0,0.0,0.0,1.0,0.0,0.0,0.0,1.0,55.2439041138,-83.5365905762,-36.1585350037,1.0,0.0,0.0,0.0,1.0,0.0,0.0,0.0,1.0,-12.976572998,37.5362936279,-43.1770327393,1.0,0.0,0.0,0.0,1.0,0.0,0.0,0.0,1.0
1463081132501114160,547,1463081132498552290,,9.32427787781,11.7586679459,173.719833374,0.0100050000474,1.0,0.0,0.0,0.0,1.0,0.0,0.0,0.0,1.0,47.317073822,341.40246582,-13.7804880142,1.0,0.0,0.0,0.0,1.0,0.0,0.0,0.0,1.0,22.6012636719,12.2631009033,6.29675036621,1.0,0.0,0.0,0.0,1.0,0.0,0.0,0.0,1.0
1463081132510286590,548,1463081132508596437,,9.90202999115,11.2315912247,173.373275757,0.0100170001388,1.0,0.0,0.0,0.0,1.0,0.0,0.0,0.0,1.0,58.5365867615,-31.5243930817,-20.3048782349,1.0,0.0,0.0,0.0,1.0,0.0,0.0,0.0,1.0,-4.79319201589,-2.41335541957,-20.4895778076,1.0,0.0,0.0,0.0,1.0,0.0,0.0,0.0,1.0
1463081132520185998,549,1463081132518504855,,10.7293615341,13.8728933334,173.664810181,0.00999299995601,1.0,0.0,0.0,0.0,1.0,0.0,0.0,0.0,1.0,14.9390249252,265.060974121,-22.5,1.0,0.0,0.0,0.0,1.0,0.0,0.0,0.0,1.0,-0.430956298828,-8.82023891602,4.53461794434,1.0,0.0,0.0,0.0,1.0,0.0,0.0,0.0,1.0
1463081132530548009,550,1463081132528404575,,11.2336683273,14.0009870529,173.746337891,0.00998899992555,1.0,0.0,0.0,0.0,1.0,0.0,0.0,0.0,1.0,30.7926845551,12.2560977936,11.2195119858,1.0,0.0,0.0,0.0,1.0,0.0,0.0,0.0,1.0,4.01268198242,-4.49631071777,-11.7698953613,1.0,0.0,0.0,0.0,1.0,0.0,0.0,0.0,1.0
1463081132540152678,551,1463081132538492889,,11.1487941742,15.3300666809,174.196075439,0.0099950004369,1.0,0.0,0.0,0.0,1.0,0.0,0.0,0.0,1.0,-50.0,118.719512939,22.9878044128,1.0,0.0,0.0,0.0,1.0,0.0,0.0,0.0,1.0,22.7401273682,-20.6044994873,-24.4447989502,1.0,0.0,0.0,0.0,1.0,0.0,0.0,0.0,1.0
1463081132550490626,552,1463081132548433443,,10.1911048889,15.7226047516,174.230270386,0.00999999977648,1.0,0.0,0.0,0.0,1.0,0.0,0.0,0.0,1.0,-101.829269409,2.19512200356,12.1951217651,1.0,0.0,0.0,0.0,1.0,0.0,0.0,0.0,1.0,19.9915838623,-0.727837304687,-11.1952869629,1.0,0.0,0.0,0.0,1.0,0.0,0.0,0.0,1.0
1463081132560058316,553,1463081132558420298,,9.13484573364,15.3289613724,173.836486816,0.0100090000778,1.0,0.0,0.0,0.0,1.0,0.0,0.0,0.0,1.0,-152.195129395,-44.0853652954,-36.7682952881,1.0,0.0,0.0,0.0,1.0,0.0,0.0,0.0,1.0,1.97761057129,-17.9756660645,-5.26724365234,1.0,0.0,0.0,0.0,1.0,0.0,0.0,0.0,1.0
1463081132569964703,554,1463081132568315956,,7.73720550537,13.3392381668,173.937240601,0.00997500028461,1.0,0.0,0.0,0.0,1.0,0.0,0.0,0.0,1.0,-147.560974121,-138.231704712,38.5365829468,1.0,0.0,0.0,0.0,1.0,0.0,0.0,0.0,1.0,-23.8701905518,1.12527478027,-3.43807358398,1.0,0.0,0.0,0.0,1.0,0.0,0.0,0.0,1.0
1463081132580515411,555,1463081132578420207,,7.29998111725,15.7145795822,173.793899536,0.0100220004097,1.0,0.0,0.0,0.0,1.0,0.0,0.0,0.0,1.0,-102.804878235,244.756103516,-51.5853691101,1.0,0.0,0.0,0.0,1.0,0.0,0.0,0.0,1.0,-6.4834980957,-35.7023351563,2.17393510742,1.0,0.0,0.0,0.0,1.0,0.0,0.0,0.0,1.0
1463081132590204872,556,1463081132588425031,,7.24105358124,15.4584102631,173.134674072,0.00997999962419,1.0,0.0,0.0,0.0,1.0,0.0,0.0,0.0,1.0,-15.3658533096,-81.4634170532,-50.7926826477,1.0,0.0,0.0,0.0,1.0,0.0,0.0,0.0,1.0,31.7614792236,-11.1426145264,24.8087176025,1.0,0.0,0.0,0.0,1.0,0.0,0.0,0.0,1.0
1463081132600451102,557,1463081132598451001,,7.07496404648,14.8451910019,172.684768677,0.0100419996306,1.0,0.0,0.0,0.0,1.0,0.0,0.0,0.0,1.0,5.12195110321,-14.5121955872,-28.5975608826,1.0,0.0,0.0,0.0,1.0,0.0,0.0,0.0,1.0,-16.4002813721,5.88973608398,-14.2598650879,1.0,0.0,0.0,0.0,1.0,0.0,0.0,0.0,1.0
1463081132610082698,558,1463081132608370513,,6.89801454544,15.0218048096,172.440872192,0.00997699983418,1.0,0.0,0.0,0.0,1.0,0.0,0.0,0.0,1.0,31.5853652954,16.0365848541,-3.96341490746,1.0,0.0,0.0,0.0,1.0,0.0,0.0,0.0,1.0,-0.354341845703,9.27034882812,2.00634099121,1.0,0.0,0.0,0.0,1.0,0.0,0.0,0.0,1.0
1463081132620064501,559,1463081132618390077,,6.66806936264,15.9509878159,171.820236206,0.010006999597,1.0,0.0,0.0,0.0,1.0,0.0,0.0,0.0,1.0,-14.0853662491,119.268287659,-66.0975646973,1.0,0.0,0.0,0.0,1.0,0.0,0.0,0.0,1.0,-5.2337248291,-1.55144267578,-15.0643168457,1.0,0.0,0.0,0.0,1.0,0.0,0.0,0.0,1.0
1463081132630500991,560,1463081132628299902,,6.86254739761,15.7702455521,171.153030396,0.00997999962419,1.0,0.0,0.0,0.0,1.0,0.0,0.0,0.0,1.0,48.4146347046,-46.1585388184,-45.5487823486,1.0,0.0,0.0,0.0,1.0,0.0,0.0,0.0,1.0,11.2431709961,4.79319201589,-12.8424977051,1.0,0.0,0.0,0.0,1.0,0.0,0.0,0.0,1.0
1463081132640260243,561,1463081132638468319,,6.66849136353,16.4108009338,170.672286987,0.0099950004369,1.0,0.0,0.0,0.0,1.0,0.0,0.0,0.0,1.0,4.2682929039,20.2439022064,-35.3658561707,1.0,0.0,0.0,0.0,1.0,0.0,0.0,0.0,1.0,20.7433631836,7.24485422363,-9.7587659668,1.0,0.0,0.0,0.0,1.0,0.0,0.0,0.0,1.0
1463081132650618191,562,1463081132648502154,,7.25383329391,15.382484436,170.262405396,0.0100199999288,1.0,0.0,0.0,0.0,1.0,0.0,0.0,0.0,1.0,55.8536605835,-59.1463394165,-25.7317085266,1.0,0.0,0.0,0.0,1.0,0.0,0.0,0.0,1.0,-20.345925708,-6.28717355957,-25.9244155762,1.0,0.0,0.0,0.0,1.0,0.0,0.0,0.0,1.0
1463081132660170517,563,1463081132658406145,,7.18812513351,16.9471054077,169.976745605,0.00998600013554,1.0,0.0,0.0,0.0,1.0,0.0,0.0,0.0,1.0,3.17073178291,99.7560958862,-29.4512195587,1.0,0.0,0.0,0.0,1.0,0.0,0.0,0.0,1.0,15.1074124756,3.42849677734,3.13161577148,1.0,0.0,0.0,0.0,1.0,0.0,0.0,0.0,1.0
1463081132670201643,564,1463081132668475344,,7.90286397934,14.6153554916,169.482055664,0.0100199999288,1.0,0.0,0.0,0.0,1.0,0.0,0.0,0.0,1.0,82.0121994019,-188.10975647,-12.8048782349,1.0,0.0,0.0,0.0,1.0,0.0,0.0,0.0,1.0,-14.575899707,0.215478149414,-18.1097413574,1.0,0.0,0.0,0.0,1.0,0.0,0.0,0.0,1.0
1463081132680074228,565,1463081132678473293,,7.79930496216,16.5829143524,169.618423462,0.00997500028461,1.0,0.0,0.0,0.0,1.0,0.0,0.0,0.0,1.0,-35.9756088257,149.451217651,-3.10975623131,1.0,0.0,0.0,0.0,1.0,0.0,0.0,0.0,1.0,9.8305920166,-2.69587106934,-1.23061965332,1.0,0.0,0.0,0.0,1.0,0.0,0.0,0.0,1.0
1463081132690051292,566,1463081132688410826,,8.23379516602,15.3185319901,169.521835327,0.0100330002606,1.0,0.0,0.0,0.0,1.0,0.0,0.0,0.0,1.0,6.95121955872,-88.841468811,1.95121955872,1.0,0.0,0.0,0.0,1.0,0.0,0.0,0.0,1.0,-7.44596716309,-10.2950671387,-9.50498117534,1.0,0.0,0.0,0.0,1.0,0.0,0.0,0.0,1.0
1463081132700385438,567,1463081132698409036,,7.81688213348,16.4930667877,169.718505859,0.00999100040644,1.0,0.0,0.0,0.0,1.0,0.0,0.0,0.0,1.0,-68.3536605835,109.024391174,7.92682981491,1.0,0.0,0.0,0.0,1.0,0.0,0.0,0.0,1.0,4.45800349121,-3.42849677734,-7.92480749512,1.0,0.0,0.0,0.0,1.0,0.0,0.0,0.0,1.0
1463081132709986774,568,1463081132708310527,,7.7791967392,16.3561496735,170.102416992,0.00997199956328,1.0,0.0,0.0,0.0,1.0,0.0,0.0,0.0,1.0,-2.07317066193,6.82926845551,50.2439041138,1.0,0.0,0.0,0.0,1.0,0.0,0.0,0.0,1.0,1.64721074219,8.95431420898,-33.336863916,1.0,0.0,0.0,0.0,1.0,0.0,0.0,0.0,1.0
1463081132720102327,569,1463081132718356966,,7.11442136765,16.8326358795,170.204040527,0.0100269997492,1.0,0.0,0.0,0.0,1.0,0.0,0.0,0.0,1.0,-73.1097564697,6.52439069748,18.3536586761,1.0,0.0,0.0,0.0,1.0,0.0,0.0,0.0,1.0,15.1648733154,5.03740029297,20.2501576416,1.0,0.0,0.0,0.0,1.0,0.0,0.0,0.0,1.0
1463081132730327776,570,1463081132728266217,,6.86691236496,14.4292879105,170.118988037,0.00999800022691,1.0,0.0,0.0,0.0,1.0,0.0,0.0,0.0,1.0,-34.0853691101,-200.975616455,23.2317085266,1.0,0.0,0.0,0.0,1.0,0.0,0.0,0.0,1.0,-20.3938097412,-8.57124252788,-45.6430604492,1.0,0.0,0.0,0.0,1.0,0.0,0.0,0.0,1.0
1463081132740156142,571,1463081132738384843,,4.60580444336,16.0140590668,170.097137451,0.00997900031507,1.0,0.0,0.0,0.0,1.0,0.0,0.0,0.0,1.0,-206.951217651,155.487808228,-2.68292689323,1.0,0.0,0.0,0.0,1.0,0.0,0.0,0.0,1.0,8.21690009766,10.6637741943,-22.4815535889,1.0,0.0,0.0,0.0,1.0,0.0,0.0,0.0,1.0
1463081132750541590,572,1463081132748391751,,3.90740442276,15.6216039658,170.098358154,0.00999899953604,1.0,0.0,0.0,0.0,1.0,0.0,0.0,0.0,1.0,-77.1951217651,-2.56097555161,8.10975551605,1.0,0.0,0.0,0.0,1.0,0.0,0.0,0.0,1.0,-7.29273825684,-1.03908344744,-18.866307913,1.0,0.0,0.0,0.0,1.0,0.0,0.0,0.0,1.0
1463081132760188082,573,1463081132758483502,,2.65607690811,16.0879211426,170.008499146,0.0100309997797,1.0,0.0,0.0,0.0,1.0,0.0,0.0,0.0,1.0,-97.4390258789,53.5975608826,5.36585378647,1.0,0.0,0.0,0.0,1.0,0.0,0.0,0.0,1.0,2.17393510742,9.07402429199,-13.2399351807,1.0,0.0,0.0,0.0,1.0,0.0,0.0,0.0,1.0
1463081132770084938,574,1463081132768282441,,1.24022579193,16.9169101715,169.740936279,0.009990000166,1.0,0.0,0.0,0.0,1.0,0.0,0.0,0.0,1.0,-125.426834106,41.5853652954,-13.7804880142,1.0,0.0,0.0,0.0,1.0,0.0,0.0,0.0,1.0,13.7091987061,4.69263496165,-5.26245524902,1.0,0.0,0.0,0.0,1.0,0.0,0.0,0.0,1.0
1463081132780102054,575,1463081132778451119,,-0.118741244078,14.3203296661,169.615005493,0.00999199971557,1.0,0.0,0.0,0.0,1.0,0.0,0.0,0.0,1.0,-106.158538818,-214.634155273,7.74390268326,1.0,0.0,0.0,0.0,1.0,0.0,0.0,0.0,1.0,-25.5557085205,22.1128465332,-5.98071574707,1.0,0.0,0.0,0.0,1.0,0.0,0.0,0.0,1.0
1463081132790979064,576,1463081132788675058,,-1.52312171459,17.0592498779,168.89201355,0.00999699998647,1.0,0.0,0.0,0.0,1.0,0.0,0.0,0.0,1.0,-151.524398804,305.731719971,-63.2926826477,1.0,0.0,0.0,0.0,1.0,0.0,0.0,0.0,1.0,-5.04697709961,-6.96712683105,-15.3707746582,1.0,0.0,0.0,0.0,1.0,0.0,0.0,0.0,1.0
1463081132801196908,577,1463081132798405820,,-2.25832080841,15.8107595444,168.73097229,0.0100239999592,1.0,0.0,0.0,0.0,1.0,0.0,0.0,0.0,1.0,-83.7195129395,-177.621948242,-15.4268302917,1.0,0.0,0.0,0.0,1.0,0.0,0.0,0.0,1.0,28.4718461426,-3.95043273926,12.1673328369,1.0,0.0,0.0,0.0,1.0,0.0,0.0,0.0,1.0
1463081132810301005,578,1463081132808244134,,-1.74030721188,15.7321653366,168.108459473,0.00999100040644,1.0,0.0,0.0,0.0,1.0,0.0,0.0,0.0,1.0,37.7439041138,48.4146347046,-56.7073173523,1.0,0.0,0.0,0.0,1.0,0.0,0.0,0.0,1.0,-26.1542589355,-11.899182251,-6.67982263184,1.0,0.0,0.0,0.0,1.0,0.0,0.0,0.0,1.0
1463081132820909162,579,1463081132818326146,,-2.52442336082,17.617975235,167.294540405,0.00999699998647,1.0,0.0,0.0,0.0,1.0,0.0,0.0,0.0,1.0,-35.6097564697,192.256103516,-54.9390258789,1.0,0.0,0.0,0.0,1.0,0.0,0.0,0.0,1.0,7.74284816895,16.2039568359,-23.9324397949,1.0,0.0,0.0,0.0,1.0,0.0,0.0,0.0,1.0
1463081132831284142,580,1463081132828301804,,-3.05867695808,16.1515903473,166.533706665,0.0100090000778,1.0,0.0,0.0,0.0,1.0,0.0,0.0,0.0,1.0,4.93902444839,-153.231704712,-58.1097564697,1.0,0.0,0.0,0.0,1.0,0.0,0.0,0.0,1.0,4.09408483887,9.69172832031,-4.42927307129,1.0,0.0,0.0,0.0,1.0,0.0,0.0,0.0,1.0
1463081132840796519,581,1463081132838309545,,-3.05702853203,16.7590007782,166.140655518,0.00998899992555,1.0,0.0,0.0,0.0,1.0,0.0,0.0,0.0,1.0,6.09756088257,120.243904114,-22.7439041138,1.0,0.0,0.0,0.0,1.0,0.0,0.0,0.0,1.0,-30.6409928467,3.10767375488,-16.9557361572,1.0,0.0,0.0,0.0,1.0,0.0,0.0,0.0,1.0
1463081132851060822,582,1463081132848240463,,-2.36249899864,16.1676216125,165.680679321,0.00997800007463,1.0,0.0,0.0,0.0,1.0,0.0,0.0,0.0,1.0,39.4512214661,-93.0487823486,-51.8292694092,1.0,0.0,0.0,0.0,1.0,0.0,0.0,0.0,1.0,12.5360398926,-15.083470459,11.2910550293,1.0,0.0,0.0,0.0,1.0,0.0,0.0,0.0,1.0
1463081132861180958,583,1463081132858552109,,-2.26215076447,17.2783164978,165.665283203,0.0100859999657,1.0,0.0,0.0,0.0,1.0,0.0,0.0,0.0,1.0,-16.9512195587,161.829269409,7.07317113876,1.0,0.0,0.0,0.0,1.0,0.0,0.0,0.0,1.0,-24.3490308838,-10.6877162109,-20.2357924316,1.0,0.0,0.0,0.0,1.0,0.0,0.0,0.0,1.0
1463081132870815523,584,1463081132868330319,,-1.71429347992,17.9155902863,165.361465454,0.00991700030863,1.0,0.0,0.0,0.0,1.0,0.0,0.0,0.0,1.0,50.4268302917,11.6463422775,-23.2317085266,1.0,0.0,0.0,0.0,1.0,0.0,0.0,0.0,1.0,24.2484744141,-3.10767375488,10.1562034424,1.0,0.0,0.0,0.0,1.0,0.0,0.0,0.0,1.0
1463081132881114357,585,1463081132878348373,,-1.61661338806,18.2035293579,165.061981201,0.0100189996883,1.0,0.0,0.0,0.0,1.0,0.0,0.0,0.0,1.0,9.02439117432,25.7926845551,-20.5487823486,1.0,0.0,0.0,0.0,1.0,0.0,0.0,0.0,1.0,8.86812294922,0.0335188255255,-19.6563956299,1.0,0.0,0.0,0.0,1.0,0.0,0.0,0.0,1.0
1463081132890759859,586,1463081132888274187,,-1.02974128723,15.7775421143,165.075942993,0.0100060002878,1.0,0.0,0.0,0.0,1.0,0.0,0.0,0.0,1.0,51.8292694092,-185.182937622,5.36585378647,1.0,0.0,0.0,0.0,1.0,0.0,0.0,0.0,1.0,-19.2829001709,1.21146604004,-11.8177793945,1.0,0.0,0.0,0.0,1.0,0.0,0.0,0.0,1.0
1463081132901255516,587,1463081132898396980,,-1.22721624374,17.7980480194,164.592056274,0.00999899953604,1.0,0.0,0.0,0.0,1.0,0.0,0.0,0.0,1.0,-55.4268302917,193.475616455,-46.4024391174,1.0,0.0,0.0,0.0,1.0,0.0,0.0,0.0,1.0,0.890643017578,-17.9565124512,15.1505081055,1.0,0.0,0.0,0.0,1.0,0.0,0.0,0.0,1.0
1463081132910773674,588,1463081132908293314,,-0.979307234287,16.3266582489,164.37701416,0.00999199971557,1.0,0.0,0.0,0.0,1.0,0.0,0.0,0.0,1.0,31.5853652954,-200.243911743,-14.1463422775,1.0,0.0,0.0,0.0,1.0,0.0,0.0,0.0,1.0,17.3962692627,2.92571442871,3.48116921387,1.0,0.0,0.0,0.0,1.0,0.0,0.0,0.0,1.0
1463081132921147248,589,1463081132918382409,,-1.26740598679,16.4017810822,164.084518433,0.0100100003183,1.0,0.0,0.0,0.0,1.0,0.0,0.0,0.0,1.0,-10.9146347046,47.6829299927,-14.2073173523,1.0,0.0,0.0,0.0,1.0,0.0,0.0,0.0,1.0,-5.03261188965,3.99352836914,-9.43794235981,1.0,0.0,0.0,0.0,1.0,0.0,0.0,0.0,1.0
1463081132932013008,590,1463081132928794368,,-1.03613674641,17.3890113831,164.229263306,0.0103510003537,1.0,0.0,0.0,0.0,1.0,0.0,0.0,0.0,1.0,4.02439022064,109.024391174,21.2804889679,1.0,0.0,0.0,0.0,1.0,0.0,0.0,0.0,1.0,2.48039291992,-2.45645090332,-29.4678340332,1.0,0.0,0.0,0.0,1.0,0.0,0.0,0.0,1.0
1463081132939893930,591,1463081132938311433,,-0.963556051254,16.7883491516,164.158172607,0.00966599956155,1.0,0.0,0.0,0.0,1.0,0.0,0.0,0.0,1.0,-16.6463413239,-113.17073822,-7.19512224197,1.0,0.0,0.0,0.0,1.0,0.0,0.0,0.0,1.0,6.44519086914,-2.37025978969,1.87705410156,1.0,0.0,0.0,0.0,1.0,0.0,0.0,0.0,1.0
1463081132950593388,592,1463081132948196414,,-1.3683423996,18.2032871246,164.234863281,0.00995500013232,1.0,0.0,0.0,0.0,1.0,0.0,0.0,0.0,1.0,-48.2926864624,151.585372925,18.841463089,1.0,0.0,0.0,0.0,1.0,0.0,0.0,0.0,1.0,5.47793339844,2.53306535645,-32.0870906494,1.0,0.0,0.0,0.0,1.0,0.0,0.0,0.0,1.0
1463081132960069203,593,1463081132958248113,,-1.54335927963,16.9697055817,164.348556519,0.00999999977648,1.0,0.0,0.0,0.0,1.0,0.0,0.0,0.0,1.0,-43.7804870605,-121.951217651,10.3048782349,1.0,0.0,0.0,0.0,1.0,0.0,0.0,0.0,1.0,-4.05098920898,-3.99352836914,12.6940572021,1.0,0.0,0.0,0.0,1.0,0.0,0.0,0.0,1.0
1463081132970281475,594,1463081132968255593,,-2.06318068504,18.5802364349,164.494430542,0.0100079998374,1.0,0.0,0.0,0.0,1.0,0.0,0.0,0.0,1.0,-105.182929993,160.121948242,13.9634151459,1.0,0.0,0.0,0.0,1.0,0.0,0.0,0.0,1.0,4.01268198242,-11.6214548584,-10.3094323486,1.0,0.0,0.0,0.0,1.0,0.0,0.0,0.0,1.0
1463081132979880310,595,1463081132978227814,,-2.86939191818,18.5307369232,164.736694336,0.00999699998647,1.0,0.0,0.0,0.0,1.0,0.0,0.0,0.0,1.0,-85.1219558716,-30.2439022064,33.1097564697,1.0,0.0,0.0,0.0,1.0,0.0,0.0,0.0,1.0,14.9733371826,5.09964953613,-13.6086422363,1.0,0.0,0.0,0.0,1.0,0.0,0.0,0.0,1.0
1463081132989920655,596,1463081132988295034,,-3.65050053596,18.8594341278,164.623748779,0.00999199971557,1.0,0.0,0.0,0.0,1.0,0.0,0.0,0.0,1.0,-105.792686462,-12.5609760284,-11.341463089,1.0,0.0,0.0,0.0,1.0,0.0,0.0,0.0,1.0,12.1146604004,-7.46512077637,8.71968244629,1.0,0.0,0.0,0.0,1.0,0.0,0.0,0.0,1.0
1463081133000761468,597,1463081132998232306,,-4.17071962357,16.6923084259,164.534957886,0.00999800022691,1.0,0.0,0.0,0.0,1.0,0.0,0.0,0.0,1.0,-43.4146347046,-164.573181152,-7.68292665482,1.0,0.0,0.0,0.0,1.0,0.0,0.0,0.0,1.0,-42.3438505615,11.6262432617,5.45399138184,1.0,0.0,0.0,0.0,1.0,0.0,0.0,0.0,1.0
1463081133010064991,598,1463081133008258745,,-4.41612291336,18.7390155792,164.103713989,0.00999999977648,1.0,0.0,0.0,0.0,1.0,0.0,0.0,0.0,1.0,-68.4756164551,200.609771729,-33.1097564697,1.0,0.0,0.0,0.0,1.0,0.0,0.0,0.0,1.0,4.56813676758,-13.4793553467,-6.36857641602,1.0,0.0,0.0,0.0,1.0,0.0,0.0,0.0,1.0
1463081133020759241,599,1463081133018252423,,-4.98166847229,19.2429084778,163.968338013,0.0100020002574,1.0,0.0,0.0,0.0,1.0,0.0,0.0,0.0,1.0,-60.6097564697,74.1463394165,0.609756112099,1.0,0.0,0.0,0.0,1.0,0.0,0.0,0.0,1.0,-1.9105729248,3.75410820312,-46.3134369141,1.0,0.0,0.0,0.0,1.0,0.0,0.0,0.0,1.0
1463081133030046306,600,1463081133028255112,,-6.00668001175,19.9310359955,163.432128906,0.0100130001083,1.0,0.0,0.0,0.0,1.0,0.0,0.0,0.0,1.0,-67.5,31.5243930817,-30.6097583771,1.0,0.0,0.0,0.0,1.0,0.0,0.0,0.0,1.0,20.3171952881,11.5161099854,-2.44208569336,1.0,0.0,0.0,0.0,1.0,0.0,0.0,0.0,1.0
1463081133040211391,601,1463081133038293374,,-5.62254714966,17.283367157,163.314544678,0.00999800022691,1.0,0.0,0.0,0.0,1.0,0.0,0.0,0.0,1.0,13.4756097794,-209.939025879,-32.682926178,1.0,0.0,0.0,0.0,1.0,0.0,0.0,0.0,1.0,-15.3947166748,-6.72291826172,-13.0388222412,1.0,0.0,0.0,0.0,1.0,0.0,0.0,0.0,1.0
1463081133050465694,602,1463081133048269500,,-6.92150402069,17.9680976868,162.830154419,0.00999999977648,1.0,0.0,0.0,0.0,1.0,0.0,0.0,0.0,1.0,-74.0853729248,95.8536605835,-12.8658542633,1.0,0.0,0.0,0.0,1.0,0.0,0.0,0.0,1.0,-10.7978494873,26.4080443115,0.119710083008,1.0,0.0,0.0,0.0,1.0,0.0,0.0,0.0,1.0
1463081133065120301,603,1463081133058362814,,-8.01898002625,19.3527908325,162.208648682,0.00999800022691,1.0,0.0,0.0,0.0,1.0,0.0,0.0,0.0,1.0,-79.0853652954,94.634147644,-32.4390220642,1.0,0.0,0.0,0.0,1.0,0.0,0.0,0.0,1.0,18.5694269071,6.86657036133,9.74918916016,1.0,0.0,0.0,0.0,1.0,0.0,0.0,0.0,1.0
1463081133074888563,604,1463081133068423627,,-8.35771942139,17.6832675934,162.13444519,0.0100630000234,1.0,0.0,0.0,0.0,1.0,0.0,0.0,0.0,1.0,-44.390247345,-116.341468811,-18.475610733,1.0,0.0,0.0,0.0,1.0,0.0,0.0,0.0,1.0,-16.6109711182,1.02471831055,-25.5269781006,1.0,0.0,0.0,0.0,1.0,0.0,0.0,0.0,1.0
1463081133085254688,605,1463081133078417827,,-9.16034603119,18.2264308929,161.769592285,0.00998700037599,1.0,0.0,0.0,0.0,1.0,0.0,0.0,0.0,1.0,-100.365852356,111.158538818,-18.2926826477,1.0,0.0,0.0,0.0,1.0,0.0,0.0,0.0,1.0,-14.2550766846,-6.47392128906,-1.11090957031,1.0,0.0,0.0,0.0,1.0,0.0,0.0,0.0,1.0
1463081133093333110,606,1463081133088439318,,-9.83374786377,17.5635643005,161.66166687,0.0100119998679,1.0,0.0,0.0,0.0,1.0,0.0,0.0,0.0,1.0,-78.5975570679,-98.1097564697,-21.5853652954,1.0,0.0,0.0,0.0,1.0,0.0,0.0,0.0,1.0,41.5681292236,-1.52271225586,-24.3155120605,1.0,0.0,0.0,0.0,1.0,0.0,0.0,0.0,1.0
1463081133103662152,607,1463081133098378569,,-10.9382610321,17.1931190491,161.604187012,0.00992900040001,1.0,0.0,0.0,0.0,1.0,0.0,0.0,0.0,1.0,-114.939025879,-36.8902435303,-4.2682929039,1.0,0.0,0.0,0.0,1.0,0.0,0.0,0.0,1.0,7.69975253906,4.68784655832,-19.4121870605,1.0,0.0,0.0,0.0,1.0,0.0,0.0,0.0,1.0
1463081133113525623,608,1463081133108417612,,-12.3751020432,16.4561977386,161.059112549,0.0100560002029,1.0,0.0,0.0,0.0,1.0,0.0,0.0,0.0,1.0,-98.7195129395,-21.0365848541,-38.7195129395,1.0,0.0,0.0,0.0,1.0,0.0,0.0,0.0,1.0,-12.6461731689,13.8384855957,-2.87304199219,1.0,0.0,0.0,0.0,1.0,0.0,0.0,0.0,1.0
1463081133122460241,609,1463081133118331499,,-13.3477935791,17.7272605896,160.534301758,0.00995399989188,1.0,0.0,0.0,0.0,1.0,0.0,0.0,0.0,1.0,-127.621963501,109.817077637,-30.1829280853,1.0,0.0,0.0,0.0,1.0,0.0,0.0,0.0,1.0,6.64151540527,-13.4410481201,7.88171186523,1.0,0.0,0.0,0.0,1.0,0.0,0.0,0.0,1.0
1463081133132644179,610,1463081133128340490,,-14.1397571564,17.0072555542,160.523956299,0.00999800022691,1.0,0.0,0.0,0.0,1.0,0.0,0.0,0.0,1.0,-89.3292694092,-29.5731697083,-2.25609779358,1.0,0.0,0.0,0.0,1.0,0.0,0.0,0.0,1.0,-15.2079689453,6.33505759277,-31.6704995605,1.0,0.0,0.0,0.0,1.0,0.0,0.0,0.0,1.0
1463081133140535258,611,1463081133138247918,,-15.8356561661,18.6224002838,159.802047729,0.00999400019646,1.0,0.0,0.0,0.0,1.0,0.0,0.0,0.0,1.0,-138.536590576,123.292678833,-24.2682933807,1.0,0.0,0.0,0.0,1.0,0.0,0.0,0.0,1.0,29.5636020996,8.61912656108,9.18894597168,1.0,0.0,0.0,0.0,1.0,0.0,0.0,0.0,1.0
1463081133150401384,612,1463081133148297482,,-16.0970020294,15.7320709229,160.214904785,0.0100090000778,1.0,0.0,0.0,0.0,1.0,0.0,0.0,0.0,1.0,-45.4878082275,-244.024398804,-22.2560977936,1.0,0.0,0.0,0.0,1.0,0.0,0.0,0.0,1.0,-11.1186725098,5.31033928223,-16.8168712919,1.0,0.0,0.0,0.0,1.0,0.0,0.0,0.0,1.0
1463081133160481261,613,1463081133158253504,,-17.4289569855,17.3504486084,159.286315918,0.00999299995601,1.0,0.0,0.0,0.0,1.0,0.0,0.0,0.0,1.0,-103.414634705,224.45123291,-14.6951217651,1.0,0.0,0.0,0.0,1.0,0.0,0.0,0.0,1.0,-19.2110752901,14.1880390381,-22.4815535889,1.0,0.0,0.0,0.0,1.0,0.0,0.0,0.0,1.0
1463081133170416137,614,1463081133168251506,,-17.7045135498,18.0954284668,158.483016968,0.0100010000169,1.0,0.0,0.0,0.0,1.0,0.0,0.0,0.0,1.0,-1.58536589146,42.4390258789,-56.0975608826,1.0,0.0,0.0,0.0,1.0,0.0,0.0,0.0,1.0,29.4630456299,3.05021291504,9.90720646973,1.0,0.0,0.0,0.0,1.0,0.0,0.0,0.0,1.0
1463081133183413247,615,1463081133178349403,,-17.7586154938,17.3014659882,158.160476685,0.0100050000474,1.0,0.0,0.0,0.0,1.0,0.0,0.0,0.0,1.0,-18.658536911,-25.8536586761,-38.6585388184,1.0,0.0,0.0,0.0,1.0,0.0,0.0,0.0,1.0,-29.4582572266,0.545877978516,-61.8374404785,1.0,0.0,0.0,0.0,1.0,0.0,0.0,0.0,1.0
1463081133190319900,616,1463081133188241519,,-19.4750576019,18.2406959534,156.989013672,0.00999299995601,1.0,0.0,0.0,0.0,1.0,0.0,0.0,0.0,1.0,-97.0731735229,100.792686462,-60.1829299927,1.0,0.0,0.0,0.0,1.0,0.0,0.0,0.0,1.0,8.99740983887,21.2796643555,17.7362458984,1.0,0.0,0.0,0.0,1.0,0.0,0.0,0.0,1.0
1463081133200363839,617,1463081133198250510,,-17.858039856,16.6007423401,156.748657227,0.00999699998647,1.0,0.0,0.0,0.0,1.0,0.0,0.0,0.0,1.0,165.670730591,-127.317077637,-58.5365867615,1.0,0.0,0.0,0.0,1.0,0.0,0.0,0.0,1.0,-3.6535517334,33.4086923039,-71.4238192496,1.0,0.0,0.0,0.0,1.0,0.0,0.0,0.0,1.0
1463081133210407413,618,1463081133208258199,,-19.9406967163,17.4997997284,154.846878052,0.0100029995665,1.0,0.0,0.0,0.0,1.0,0.0,0.0,0.0,1.0,-119.756103516,167.804885864,-113.963417053,1.0,0.0,0.0,0.0,1.0,0.0,0.0,0.0,1.0,-11.3963999023,31.4023489746,-10.1753570557,1.0,0.0,0.0,0.0,1.0,0.0,0.0,0.0,1.0
1463081133223920199,619,1463081133218261929,,-19.2443504333,17.6512069702,153.468933105,0.0100039998069,1.0,0.0,0.0,0.0,1.0,0.0,0.0,0.0,1.0,96.2804870605,68.5975570679,-109.512199402,1.0,0.0,0.0,0.0,1.0,0.0,0.0,0.0,1.0,6.05254179687,8.2743609375,-34.9697117863,1.0,0.0,0.0,0.0,1.0,0.0,0.0,0.0,1.0
1463081133233784555,620,1463081133228548420,,-18.7187576294,17.6225357056,152.706741333,0.00999999977648,1.0,0.0,0.0,0.0,1.0,0.0,0.0,0.0,1.0,96.9512252808,-4.08536577225,-61.1585350037,1.0,0.0,0.0,0.0,1.0,0.0,0.0,0.0,1.0,15.9453830566,17.295713962,-7.80988581543,1.0,0.0,0.0,0.0,1.0,0.0,0.0,0.0,1.0
1463081133240391522,621,1463081133238229911,,-18.02617836,16.648399353,151.85168457,0.0099950004369,1.0,0.0,0.0,0.0,1.0,0.0,0.0,0.0,1.0,90.6707382202,-19.5731716156,-83.5975646973,1.0,0.0,0.0,0.0,1.0,0.0,0.0,0.0,1.0,-27.0544787598,0.0909796630859,7.28794985352,1.0,0.0,0.0,0.0,1.0,0.0,0.0,0.0,1.0
1463081133250141503,622,1463081133248305308,,-16.8684272766,18.2537631989,150.258178711,0.0100010000169,1.0,0.0,0.0,0.0,1.0,0.0,0.0,0.0,1.0,121.158531189,203.475616455,-98.1097564697,1.0,0.0,0.0,0.0,1.0,0.0,0.0,0.0,1.0,5.11880314941,-7.6135612793,-19.2733233643,1.0,0.0,0.0,0.0,1.0,0.0,0.0,0.0,1.0
1463081133260274972,623,1463081133258285653,,-15.288860321,16.5076808929,149.766540527,0.0100029995665,1.0,0.0,0.0,0.0,1.0,0.0,0.0,0.0,1.0,168.780502319,-99.0243911743,-68.0487823486,1.0,0.0,0.0,0.0,1.0,0.0,0.0,0.0,1.0,-16.802507251,2.67192905273,-3.67749375,1.0,0.0,0.0,0.0,1.0,0.0,0.0,0.0,1.0
1463081133270255630,624,1463081133268302144,,-14.4534473419,18.4714775085,148.301681519,0.00999699998647,1.0,0.0,0.0,0.0,1.0,0.0,0.0,0.0,1.0,104.207321167,199.085372925,-88.5975646973,1.0,0.0,0.0,0.0,1.0,0.0,0.0,0.0,1.0,24.6698539062,-3.35188232422,-21.1168586426,1.0,0.0,0.0,0.0,1.0,0.0,0.0,0.0,1.0
1463081133280160038,625,1463081133278253271,,-12.3152160645,17.0105266571,147.94619751,0.00999899953604,1.0,0.0,0.0,0.0,1.0,0.0,0.0,0.0,1.0,221.585372925,-157.378051758,-64.0853729248,1.0,0.0,0.0,0.0,1.0,0.0,0.0,0.0,1.0,15.9310178467,6.02859978027,-14.5328040771,1.0,0.0,0.0,0.0,1.0,0.0,0.0,0.0,1.0
1463081133289835383,626,1463081133288231428,,-10.8376750946,16.8572216034,147.315979004,0.00999800022691,1.0,0.0,0.0,0.0,1.0,0.0,0.0,0.0,1.0,174.878051758,28.9024410248,-42.4390258789,1.0,0.0,0.0,0.0,1.0,0.0,0.0,0.0,1.0,-13.0436106445,3.22738383789,10.8553103271,1.0,0.0,0.0,0.0,1.0,0.0,0.0,0.0,1.0
1463081133299863229,627,1463081133298250940,,-8.3693561554,16.965379715,146.792175293,0.0100020002574,1.0,0.0,0.0,0.0,1.0,0.0,0.0,0.0,1.0,249.695129395,70.1829299927,-31.6463413239,1.0,0.0,0.0,0.0,1.0,0.0,0.0,0.0,1.0,-24.4400105469,2.27927998047,-25.4120564209,1.0,0.0,0.0,0.0,1.0,0.0,0.0,0.0,1.0
1463081133310343781,628,1463081133308207900,,-6.49861383438,17.4316082001,146.385726929,0.00999800022691,1.0,0.0,0.0,0.0,1.0,0.0,0.0,0.0,1.0,182.500015259,6.46341466904,-34.2682952881,1.0,0.0,0.0,0.0,1.0,0.0,0.0,0.0,1.0,16.4912610352,-6.40209523926,17.5159793457,1.0,0.0,0.0,0.0,1.0,0.0,0.0,0.0,1.0
1463081133320196470,629,1463081133318204078,,-4.4421710968,16.6364784241,146.024673462,0.0100029995665,1.0,0.0,0.0,0.0,1.0,0.0,0.0,0.0,1.0,205.121948242,-28.8414649963,-30.0609760284,1.0,0.0,0.0,0.0,1.0,0.0,0.0,0.0,1.0,-23.7025964355,1.85311208496,-34.0599128174,1.0,0.0,0.0,0.0,1.0,0.0,0.0,0.0,1.0
1463081133330431763,630,1463081133328411975,,-3.25870776176,18.0311222076,145.547180176,0.00999800022691,1.0,0.0,0.0,0.0,1.0,0.0,0.0,0.0,1.0,152.682922363,100.182929993,-23.1097564697,1.0,0.0,0.0,0.0,1.0,0.0,0.0,0.0,1.0,16.5535102783,10.4818148682,-1.2497732666,1.0,0.0,0.0,0.0,1.0,0.0,0.0,0.0,1.0
1463081133339933619,631,1463081133338230914,,-1.69283509254,17.0263271332,145.474105835,0.00999899953604,1.0,0.0,0.0,0.0,1.0,0.0,0.0,0.0,1.0,168.597564697,-151.524398804,-0.975609779358,1.0,0.0,0.0,0.0,1.0,0.0,0.0,0.0,1.0,4.01268198242,1.43652099609,1.41257897949,1.0,0.0,0.0,0.0,1.0,0.0,0.0,0.0,1.0
1463081133349923079,632,1463081133348246051,,0.0408256985247,17.3361721039,145.21836853,0.0100079998374,1.0,0.0,0.0,0.0,1.0,0.0,0.0,0.0,1.0,158.597564697,57.134147644,-19.8780498505,1.0,0.0,0.0,0.0,1.0,0.0,0.0,0.0,1.0,-2.60489140625,-4.35265861816,-18.6460413603,1.0,0.0,0.0,0.0,1.0,0.0,0.0,0.0,1.0
1463081133360210611,633,1463081133358277438,,1.72712564468,17.0789051056,145.076309204,0.00999599974602,1.0,0.0,0.0,0.0,1.0,0.0,0.0,0.0,1.0,149.146347046,-77.1951217651,-10.4268293381,1.0,0.0,0.0,0.0,1.0,0.0,0.0,0.0,1.0,16.5247798584,-4.92247861328,2.17393510742,1.0,0.0,0.0,0.0,1.0,0.0,0.0,0.0,1.0
1463081133371171006,634,1463081133368254658,,3.6682331562,17.3204441071,144.994857788,0.00999800022691,1.0,0.0,0.0,0.0,1.0,0.0,0.0,0.0,1.0,181.829269409,64.5731735229,-4.51219558716,1.0,0.0,0.0,0.0,1.0,0.0,0.0,0.0,1.0,-16.414646582,-5.4444145752,-33.6098029053,1.0,0.0,0.0,0.0,1.0,0.0,0.0,0.0,1.0
1463081133383018692,635,1463081133378263440,,4.42519617081,18.7105579376,144.613174438,0.00999899953604,1.0,0.0,0.0,0.0,1.0,0.0,0.0,0.0,1.0,101.402442932,89.3292694092,-28.0487804413,1.0,0.0,0.0,0.0,1.0,0.0,0.0,0.0,1.0,31.1629288086,14.2742302979,0.474051928711,1.0,0.0,0.0,0.0,1.0,0.0,0.0,0.0,1.0
1463081133393118516,636,1463081133388243525,,5.23197078705,15.4955043793,143.86920166,0.0100020002574,1.0,0.0,0.0,0.0,1.0,0.0,0.0,0.0,1.0,141.768295288,-320.609771729,-19.9390239716,1.0,0.0,0.0,0.0,1.0,0.0,0.0,0.0,1.0,1.5562310791,12.5456166992,-7.53694682617,1.0,0.0,0.0,0.0,1.0,0.0,0.0,0.0,1.0
1463081133399908815,637,1463081133398257933,,6.63552570343,15.8955059052,143.589050293,0.00999999977648,1.0,0.0,0.0,0.0,1.0,0.0,0.0,0.0,1.0,129.573165894,94.7561035156,-31.2195129395,1.0,0.0,0.0,0.0,1.0,0.0,0.0,0.0,1.0,-19.9820070557,-4.30477487722,-5.14274516602,1.0,0.0,0.0,0.0,1.0,0.0,0.0,0.0,1.0
1463081133410465878,638,1463081133408251507,,8.47046375275,16.8519039154,143.681381226,0.00999999977648,1.0,0.0,0.0,0.0,1.0,0.0,0.0,0.0,1.0,163.536590576,60.5487823486,5.48780488968,1.0,0.0,0.0,0.0,1.0,0.0,0.0,0.0,1.0,7.27358464355,-1.92493813477,-4.24731403738,1.0,0.0,0.0,0.0,1.0,0.0,0.0,0.0,1.0
1463081133419944765,639,1463081133418257529,,9.20608043671,16.8870716095,143.319885254,0.0100029995665,1.0,0.0,0.0,0.0,1.0,0.0,0.0,0.0,1.0,102.500007629,-33.9634132385,-13.5365858078,1.0,0.0,0.0,0.0,1.0,0.0,0.0,0.0,1.0,13.8624276123,7.73805976562,-7.9439611084,1.0,0.0,0.0,0.0,1.0,0.0,0.0,0.0,1.0
1463081133430313547,640,1463081133428252510,,10.2111711502,17.2360496521,143.401321411,0.00999800022691,1.0,0.0,0.0,0.0,1.0,0.0,0.0,0.0,1.0,107.56098175,54.9390258789,12.0121955872,1.0,0.0,0.0,0.0,1.0,0.0,0.0,0.0,1.0,-0.15801730957,3.16034619141,-17.9421460722,1.0,0.0,0.0,0.0,1.0,0.0,0.0,0.0,1.0
1463081133440334309,641,1463081133438210824,,11.2932081223,16.5993175507,143.162277222,0.00999800022691,1.0,0.0,0.0,0.0,1.0,0.0,0.0,0.0,1.0,117.195121765,-47.3780517578,-2.74390244484,1.0,0.0,0.0,0.0,1.0,0.0,0.0,0.0,1.0,-0.143652099609,0.521935925381,-32.5036817383,1.0,0.0,0.0,0.0,1.0,0.0,0.0,0.0,1.0
1463081133450007519,642,1463081133448260491,,11.7766370773,17.6163024902,143.210662842,0.0100010000169,1.0,0.0,0.0,0.0,1.0,0.0,0.0,0.0,1.0,41.3414649963,49.4512176514,3.29268312454,1.0,0.0,0.0,0.0,1.0,0.0,0.0,0.0,1.0,24.7033727295,4.49152231445,14.350844751,1.0,0.0,0.0,0.0,1.0,0.0,0.0,0.0,1.0
1463081133459947708,643,1463081133458264847,,12.9186477661,15.6751232147,142.75617981,0.0100020002574,1.0,0.0,0.0,0.0,1.0,0.0,0.0,0.0,1.0,122.5,-153.902450562,-0.975609779358,1.0,0.0,0.0,0.0,1.0,0.0,0.0,0.0,1.0,-21.6531598145,-4.19464101633,-33.8731650879,1.0,0.0,0.0,0.0,1.0,0.0,0.0,0.0,1.0
1463081133469906543,644,1463081133468225140,,12.6631298065,17.064447403,143.031173706,0.00999899953604,1.0,0.0,0.0,0.0,1.0,0.0,0.0,0.0,1.0,-12.6219520569,116.585365295,17.0121955872,1.0,0.0,0.0,0.0,1.0,0.0,0.0,0.0,1.0,13.0819178711,7.85298144531,-11.4107651123,1.0,0.0,0.0,0.0,1.0,0.0,0.0,0.0,1.0
1463081133480303398,645,1463081133478262829,,12.9940929413,16.456445694,143.168136597,0.00999699998647,1.0,0.0,0.0,0.0,1.0,0.0,0.0,0.0,1.0,27.2560977936,-54.5121955872,35.9146347046,1.0,0.0,0.0,0.0,1.0,0.0,0.0,0.0,1.0,5.5401826416,-1.59453830566,-17.0131969971,1.0,0.0,0.0,0.0,1.0,0.0,0.0,0.0,1.0
1463081133490550149,646,1463081133488322809,,13.167637825,15.6817913055,143.35774231,0.0100079998374,1.0,0.0,0.0,0.0,1.0,0.0,0.0,0.0,1.0,22.5609760284,-30.4878044128,39.5121955872,1.0,0.0,0.0,0.0,1.0,0.0,0.0,0.0,1.0,-15.2558529785,5.17626398926,-28.9650516846,1.0,0.0,0.0,0.0,1.0,0.0,0.0,0.0,1.0
1463081133506322045,647,1463081133498294613,,12.1845684052,16.6744422913,143.401870728,0.00999800022691,1.0,0.0,0.0,0.0,1.0,0.0,0.0,0.0,1.0,-67.8048782349,66.2195129395,9.51219558716,1.0,0.0,0.0,0.0,1.0,0.0,0.0,0.0,1.0,5.09486113281,6.53617053223,0.847547387695,1.0,0.0,0.0,0.0,1.0,0.0,0.0,0.0,1.0
1463081133510428391,648,1463081133508552041,,12.0748414993,15.7818841934,143.489883423,0.0100109996274,1.0,0.0,0.0,0.0,1.0,0.0,0.0,0.0,1.0,-18.4146347046,-64.3292694092,31.4634151459,1.0,0.0,0.0,0.0,1.0,0.0,0.0,0.0,1.0,-1.41257897949,-4.25689084402,-28.5436721924,1.0,0.0,0.0,0.0,1.0,0.0,0.0,0.0,1.0
1463081133520666236,649,1463081133518873375,,11.3437328339,16.3699550629,143.83215332,0.0100010000169,1.0,0.0,0.0,0.0,1.0,0.0,0.0,0.0,1.0,-72.5609817505,40.1829299927,38.6585388184,1.0,0.0,0.0,0.0,1.0,0.0,0.0,0.0,1.0,6.66545742187,1.92493813477,-6.57447775879,1.0,0.0,0.0,0.0,1.0,0.0,0.0,0.0,1.0
1463081133534212616,650,1463081133528617314,,11.0882472992,16.4098873138,144.110443115,0.00999100040644,1.0,0.0,0.0,0.0,1.0,0.0,0.0,0.0,1.0,-78.4146347046,-26.8902454376,29.5121974945,1.0,0.0,0.0,0.0,1.0,0.0,0.0,0.0,1.0,3.57693728027,-3.38540114746,-0.0957680664062,1.0,0.0,0.0,0.0,1.0,0.0,0.0,0.0,1.0
1463081133540384114,651,1463081133538459587,,10.8101768494,15.9733409882,144.411010742,0.0100940000266,1.0,0.0,0.0,0.0,1.0,0.0,0.0,0.0,1.0,-42.0731697083,-15.3048791885,40.4878044128,1.0,0.0,0.0,0.0,1.0,0.0,0.0,0.0,1.0,-1.36948334961,-3.16513459473,-20.733786377,1.0,0.0,0.0,0.0,1.0,0.0,0.0,0.0,1.0
1463081133550121751,652,1463081133548310922,,10.4305963516,16.5584869385,144.732833862,0.00990999955684,1.0,0.0,0.0,0.0,1.0,0.0,0.0,0.0,1.0,-87.6829299927,19.817073822,26.6463432312,1.0,0.0,0.0,0.0,1.0,0.0,0.0,0.0,1.0,6.99585725098,-4.8171340325,4.2999864739,1.0,0.0,0.0,0.0,1.0,0.0,0.0,0.0,1.0
1463081133560068294,653,1463081133558385017,,9.23526573181,16.146522522,144.770599365,0.00999100040644,1.0,0.0,0.0,0.0,1.0,0.0,0.0,0.0,1.0,-109.939025879,-36.5243911743,23.7804889679,1.0,0.0,0.0,0.0,1.0,0.0,0.0,0.0,1.0,6.09563742676,4.31435168386,-21.6340062012,1.0,0.0,0.0,0.0,1.0,0.0,0.0,0.0,1.0
1463081133570483535,654,1463081133568277445,,7.97885560989,16.5162315369,145.061569214,0.0100130001083,1.0,0.0,0.0,0.0,1.0,0.0,0.0,0.0,1.0,-133.597564697,35.4878044128,33.1707305908,1.0,0.0,0.0,0.0,1.0,0.0,0.0,0.0,1.0,9.59117243511,0.301669427446,-21.2844527588,1.0,0.0,0.0,0.0,1.0,0.0,0.0,0.0,1.0
1463081133580325651,655,1463081133578338832,,6.98615407944,16.3949203491,145.262161255,0.00998700037599,1.0,0.0,0.0,0.0,1.0,0.0,0.0,0.0,1.0,-136.829269409,-50.5487785339,27.1951236725,1.0,0.0,0.0,0.0,1.0,0.0,0.0,0.0,1.0,11.7315881348,-6.54095893555,15.1074124756,1.0,0.0,0.0,0.0,1.0,0.0,0.0,0.0,1.0
1463081133590881047,656,1463081133588382979,,6.02869176865,15.0190963745,145.255249023,0.0100020002574,1.0,0.0,0.0,0.0,1.0,0.0,0.0,0.0,1.0,-101.280487061,-85.3048782349,17.1951217651,1.0,0.0,0.0,0.0,1.0,0.0,0.0,0.0,1.0,-26.6426760742,-1.30244570312,-27.1981308594,1.0,0.0,0.0,0.0,1.0,0.0,0.0,0.0,1.0
1463081133600561497,657,1463081133598382230,,4.94700956345,17.3545589447,145.348754883,0.0100149996579,1.0,0.0,0.0,0.0,1.0,0.0,0.0,0.0,1.0,-149.512207031,215.60975647,-12.0121955872,1.0,0.0,0.0,0.0,1.0,0.0,0.0,0.0,1.0,3.50511123047,-4.10845004883,-3.88818349609,1.0,0.0,0.0,0.0,1.0,0.0,0.0,0.0,1.0
1463081133610230228,658,1463081133608440856,,3.88530445099,15.9836578369,145.028137207,0.00999100040644,1.0,0.0,0.0,0.0,1.0,0.0,0.0,0.0,1.0,-100.914634705,-82.0731735229,-15.7317075729,1.0,0.0,0.0,0.0,1.0,0.0,0.0,0.0,1.0,-5.52102902832,0.287304199219,-3.3231519043,1.0,0.0,0.0,0.0,1.0,0.0,0.0,0.0,1.0
1463081133620223542,659,1463081133618409222,,2.94517421722,16.8512039185,145.202651978,0.00999999977648,1.0,0.0,0.0,0.0,1.0,0.0,0.0,0.0,1.0,-114.878044128,112.439025879,15.3048791885,1.0,0.0,0.0,0.0,1.0,0.0,0.0,0.0,1.0,-2.93529123535,-4.50109912109,-21.825542334,1.0,0.0,0.0,0.0,1.0,0.0,0.0,0.0,1.0
1463081133630979146,660,1463081133628391599,,1.72187399864,16.0612869263,144.833496094,0.010053999722,1.0,0.0,0.0,0.0,1.0,0.0,0.0,0.0,1.0,-80.1829299927,-105.792686462,-10.7317075729,1.0,0.0,0.0,0.0,1.0,0.0,0.0,0.0,1.0,8.44195446919,9.80186159668,-4.40054265137,1.0,0.0,0.0,0.0,1.0,0.0,0.0,0.0,1.0
1463081133640937564,661,1463081133638378454,,0.981643199921,17.5912303925,144.194046021,0.00994999986142,1.0,0.0,0.0,0.0,1.0,0.0,0.0,0.0,1.0,-99.634147644,187.682937622,-68.4146347046,1.0,0.0,0.0,0.0,1.0,0.0,0.0,0.0,1.0,-7.23527741699,-11.3006318359,-10.4674496582,1.0,0.0,0.0,0.0,1.0,0.0,0.0,0.0,1.0
1463081133650775305,662,1463081133648306508,,0.222657859325,17.2639636993,143.33757019,0.00998899992555,1.0,0.0,0.0,0.0,1.0,0.0,0.0,0.0,1.0,-35.7317085266,-52.7439041138,-65.7317047119,1.0,0.0,0.0,0.0,1.0,0.0,0.0,0.0,1.0,9.58638403179,6.56968935547,-10.5057568848,1.0,0.0,0.0,0.0,1.0,0.0,0.0,0.0,1.0
1463081133660272214,663,1463081133658346593,,-0.632027506828,16.7993793488,142.588928223,0.0100229997188,1.0,0.0,0.0,0.0,1.0,0.0,0.0,0.0,1.0,-26.2804889679,-60.1219520569,-49.3292694092,1.0,0.0,0.0,0.0,1.0,0.0,0.0,0.0,1.0,9.32780908345,19.2206520968,-7.83861623535,1.0,0.0,0.0,0.0,1.0,0.0,0.0,0.0,1.0
1463081133669569487,664,1463081133668271677,,-0.426736325026,17.4744548798,142.057815552,0.00997299980372,1.0,0.0,0.0,0.0,1.0,0.0,0.0,0.0,1.0,13.1707324982,29.8780498505,-47.317073822,1.0,0.0,0.0,0.0,1.0,0.0,0.0,0.0,1.0,5.55933625488,-1.67115275879,-2.58573779297,1.0,0.0,0.0,0.0,1.0,0.0,0.0,0.0,1.0
1463081133680788372,665,1463081133678341762,,0.122419700027,15.6413030624,141.502929688,0.0100149996579,1.0,0.0,0.0,0.0,1.0,0.0,0.0,0.0,1.0,72.8658599854,-128.414627075,-42.134147644,1.0,0.0,0.0,0.0,1.0,0.0,0.0,0.0,1.0,-26.6330992676,6.95276162109,-20.226215625,1.0,0.0,0.0,0.0,1.0,0.0,0.0,0.0,1.0
1463081133690738196,666,1463081133688245336,,-0.403423458338,17.9468669891,140.373397827,0.0099849998951,1.0,0.0,0.0,0.0,1.0,0.0,0.0,0.0,1.0,-57.8658561707,236.341461182,-107.743904114,1.0,0.0,0.0,0.0,1.0,0.0,0.0,0.0,1.0,-2.2170307373,-4.3382934082,6.52180532227,1.0,0.0,0.0,0.0,1.0,0.0,0.0,0.0,1.0
1463081133700300313,667,1463081133698354535,,0.186776071787,16.1151046753,139.624282837,0.0100229997188,1.0,0.0,0.0,0.0,1.0,0.0,0.0,0.0,1.0,91.341468811,-175.548782349,-57.8048820496,1.0,0.0,0.0,0.0,1.0,0.0,0.0,0.0,1.0,2.29364519043,4.01268198242,-10.1322614258,1.0,0.0,0.0,0.0,1.0,0.0,0.0,0.0,1.0
1463081133709916180,668,1463081133708289829,,0.724725961685,16.8376369476,138.967346191,0.00999199971557,1.0,0.0,0.0,0.0,1.0,0.0,0.0,0.0,1.0,91.9512176514,82.5,-47.6219520569,1.0,0.0,0.0,0.0,1.0,0.0,0.0,0.0,1.0,0.785298144531,4.15633378977,-6.91924279785,1.0,0.0,0.0,0.0,1.0,0.0,0.0,0.0,1.0
1463081133720178816,669,1463081133718518715,,1.90071177483,16.9498825073,138.538742065,0.010006999597,1.0,0.0,0.0,0.0,1.0,0.0,0.0,0.0,1.0,118.902435303,-42.9268302917,-33.5975608826,1.0,0.0,0.0,0.0,1.0,0.0,0.0,0.0,1.0,17.4633069092,-0.818816967773,9.27992563477,1.0,0.0,0.0,0.0,1.0,0.0,0.0,0.0,1.0
1463081133730120203,670,1463081133728344894,,3.81919527054,16.4490642548,138.14906311,0.00998700037599,1.0,0.0,0.0,0.0,1.0,0.0,0.0,0.0,1.0,198.170730591,-7.98780536652,-27.5609760284,1.0,0.0,0.0,0.0,1.0,0.0,0.0,0.0,1.0,-26.5852152344,1.65678754883,-45.5999648193,1.0,0.0,0.0,0.0,1.0,0.0,0.0,0.0,1.0
1463081133740158673,671,1463081133738528468,,4.88112688065,17.4778728485,137.823654175,0.0100149996579,1.0,0.0,0.0,0.0,1.0,0.0,0.0,0.0,1.0,124.756103516,49.634147644,-22.2560977936,1.0,0.0,0.0,0.0,1.0,0.0,0.0,0.0,1.0,17.056293796,6.21534750977,2.96402165527,1.0,0.0,0.0,0.0,1.0,0.0,0.0,0.0,1.0
1463081133750037508,672,1463081133748415792,,5.83580493927,17.5375919342,137.75138855,0.00998399965465,1.0,0.0,0.0,0.0,1.0,0.0,0.0,0.0,1.0,88.0487823486,15.3048791885,-0.975609779358,1.0,0.0,0.0,0.0,1.0,0.0,0.0,0.0,1.0,4.43884987793,-2.80121594238,-25.5078244873,1.0,0.0,0.0,0.0,1.0,0.0,0.0,0.0,1.0
1463081133760106134,673,1463081133758395981,,6.47568225861,17.6215171814,137.64440918,0.0100189996883,1.0,0.0,0.0,0.0,1.0,0.0,0.0,0.0,1.0,57.9878082275,-37.9268302917,1.2195122242,1.0,0.0,0.0,0.0,1.0,0.0,0.0,0.0,1.0,21.2988179687,-0.818816967773,-5.65031591797,1.0,0.0,0.0,0.0,1.0,0.0,0.0,0.0,1.0
1463081133769983406,674,1463081133768325597,,7.23679018021,16.2550258636,137.647171021,0.00997199956328,1.0,0.0,0.0,0.0,1.0,0.0,0.0,0.0,1.0,61.4024429321,-86.7073135376,16.6463413239,1.0,0.0,0.0,0.0,1.0,0.0,0.0,0.0,1.0,-12.2535240967,-3.89297189941,-14.216769458,1.0,0.0,0.0,0.0,1.0,0.0,0.0,0.0,1.0
1463081133782784683,675,1463081133778747712,,7.56262683868,16.9073581696,137.764022827,0.0100020002574,1.0,0.0,0.0,0.0,1.0,0.0,0.0,0.0,1.0,33.7804870605,123.597564697,6.95121955872,1.0,0.0,0.0,0.0,1.0,0.0,0.0,0.0,1.0,-16.5008378418,3.67270534668,-4.33350529714,1.0,0.0,0.0,0.0,1.0,0.0,0.0,0.0,1.0
1463081133790002326,676,1463081133788392485,,8.28910732269,16.13712883,137.930664062,0.0100250001997,1.0,0.0,0.0,0.0,1.0,0.0,0.0,0.0,1.0,54.1463432312,-88.1097640991,34.3902435303,1.0,0.0,0.0,0.0,1.0,0.0,0.0,0.0,1.0,6.75643708496,-2.46123930664,-9.79228479004,1.0,0.0,0.0,0.0,1.0,0.0,0.0,0.0,1.0
1463081133800066525,677,1463081133798367674,,8.3394203186,16.8157596588,138.092697144,0.00998799968511,1.0,0.0,0.0,0.0,1.0,0.0,0.0,0.0,1.0,0.731707334518,91.5243911743,12.6829271317,1.0,0.0,0.0,0.0,1.0,0.0,0.0,0.0,1.0,-1.09175595703,0.282515795898,-15.4617543213,1.0,0.0,0.0,0.0,1.0,0.0,0.0,0.0,1.0
1463081133810213380,678,1463081133808453071,,8.10122585297,17.0026454926,138.057540894,0.00999999977648,1.0,0.0,0.0,0.0,1.0,0.0,0.0,0.0,1.0,-10.7317075729,-29.6951236725,15.2439022064,1.0,0.0,0.0,0.0,1.0,0.0,0.0,0.0,1.0,15.0930472656,6.45476767578,0.842758984375,1.0,0.0,0.0,0.0,1.0,0.0,0.0,0.0,1.0
1463081133820216798,679,1463081133818492791,,8.72138023376,16.3255138397,137.839614868,0.00999100040644,1.0,0.0,0.0,0.0,1.0,0.0,0.0,0.0,1.0,54.2682914734,-36.4024391174,-9.39024448395,1.0,0.0,0.0,0.0,1.0,0.0,0.0,0.0,1.0,-8.10676682129,-6.4356140625,-25.2731927246,1.0,0.0,0.0,0.0,1.0,0.0,0.0,0.0,1.0
1463081133830063081,680,1463081133828412824,,8.70853900909,15.8424634933,137.602600098,0.0100149996579,1.0,0.0,0.0,0.0,1.0,0.0,0.0,0.0,1.0,24.2682933807,-1.09756100178,-6.70731735229,1.0,0.0,0.0,0.0,1.0,0.0,0.0,0.0,1.0,-7.6614453125,4.44363828125,-0.718260498047,1.0,0.0,0.0,0.0,1.0,0.0,0.0,0.0,1.0
1463081133840025093,681,1463081133838392648,,9.16872787476,16.2399597168,137.39390564,0.00998899992555,1.0,0.0,0.0,0.0,1.0,0.0,0.0,0.0,1.0,47.9878044128,56.3414649963,-19.817073822,1.0,0.0,0.0,0.0,1.0,0.0,0.0,0.0,1.0,-1.01035310059,-1.64721074219,-24.636335083,1.0,0.0,0.0,0.0,1.0,0.0,0.0,0.0,1.0
1463081133849971844,682,1463081133848349920,,9.33327198029,16.3501930237,137.138305664,0.0100090000778,1.0,0.0,0.0,0.0,1.0,0.0,0.0,0.0,1.0,38.6585388184,19.8780498505,-13.048781395,1.0,0.0,0.0,0.0,1.0,0.0,0.0,0.0,1.0,2.20266552734,7.20175859375,-24.1239759277,1.0,0.0,0.0,0.0,1.0,0.0,0.0,0.0,1.0
1463081133860023179,683,1463081133858393494,,9.45817661285,15.8318595886,136.567489624,0.0100429998711,1.0,0.0,0.0,0.0,1.0,0.0,0.0,0.0,1.0,44.8780479431,-63.2926826477,-29.1463413239,1.0,0.0,0.0,0.0,1.0,0.0,0.0,0.0,1.0,-1.13006318359,5.30076247559,6.95276162109,1.0,0.0,0.0,0.0,1.0,0.0,0.0,0.0,1.0
1463081133869932691,684,1463081133868305819,,10.2603006363,16.6400909424,136.101242065,0.00997299980372,1.0,0.0,0.0,0.0,1.0,0.0,0.0,0.0,1.0,74.9390258789,99.6951217651,-57.5000038147,1.0,0.0,0.0,0.0,1.0,0.0,0.0,0.0,1.0,-4.17069899973,-7.1203557373,-19.2158625244,1.0,0.0,0.0,0.0,1.0,0.0,0.0,0.0,1.0
1463081133882715999,685,1463081133879403766,,11.3554801941,16.0559024811,135.434341431,0.00999599974602,1.0,0.0,0.0,0.0,1.0,0.0,0.0,0.0,1.0,91.707321167,-116.341468811,-43.7195129395,1.0,0.0,0.0,0.0,1.0,0.0,0.0,0.0,1.0,4.38138903809,-2.48518132324,1.99676418457,1.0,0.0,0.0,0.0,1.0,0.0,0.0,0.0,1.0
1463081133890095360,686,1463081133888350415,,12.2537584305,16.2030105591,135.044158936,0.00999599974602,1.0,0.0,0.0,0.0,1.0,0.0,0.0,0.0,1.0,97.6219558716,25.0609760284,-33.6585388184,1.0,0.0,0.0,0.0,1.0,0.0,0.0,0.0,1.0,-0.067037651051,-1.61369191895,-16.1512855685,1.0,0.0,0.0,0.0,1.0,0.0,0.0,0.0,1.0
1463081133900169767,687,1463081133898499875,,13.105682373,16.3675880432,134.647415161,0.00998300034553,1.0,0.0,0.0,0.0,1.0,0.0,0.0,0.0,1.0,112.317077637,-10.0,-21.4634151459,1.0,0.0,0.0,0.0,1.0,0.0,0.0,0.0,1.0,8.70052883301,4.28083286062,-10.7547538574,1.0,0.0,0.0,0.0,1.0,0.0,0.0,0.0,1.0
1463081133909917925,688,1463081133908315220,,13.8833284378,15.3618078232,134.037384033,0.0100109996274,1.0,0.0,0.0,0.0,1.0,0.0,0.0,0.0,1.0,115.853660583,-122.378051758,-13.4756097794,1.0,0.0,0.0,0.0,1.0,0.0,0.0,0.0,1.0,2.50912333984,1.96803376465,-4.01747038574,1.0,0.0,0.0,0.0,1.0,0.0,0.0,0.0,1.0
1463081133920043426,689,1463081133918416815,,16.5893383026,16.3621730804,133.941101074,0.00999699998647,1.0,0.0,0.0,0.0,1.0,0.0,0.0,0.0,1.0,236.158554077,133.048782349,-45.0609779358,1.0,0.0,0.0,0.0,1.0,0.0,0.0,0.0,1.0,-25.0816565918,-30.9905462891,-23.4727530762,1.0,0.0,0.0,0.0,1.0,0.0,0.0,0.0,1.0
1463081133933121370,690,1463081133930802624,,18.6491737366,16.0417289734,133.537689209,0.0100250001997,1.0,0.0,0.0,0.0,1.0,0.0,0.0,0.0,1.0,180.670730591,-87.3170776367,-13.7195129395,1.0,0.0,0.0,0.0,1.0,0.0,0.0,0.0,1.0,27.1646120361,-13.1728975342,21.5478149414,1.0,0.0,0.0,0.0,1.0,0.0,0.0,0.0,1.0
1463081133940270262,691,1463081133938336985,,20.5450592041,14.2554636002,132.725082397,0.00997900031507,1.0,0.0,0.0,0.0,1.0,0.0,0.0,0.0,1.0,228.475616455,-170.0,-5.85365867615,1.0,0.0,0.0,0.0,1.0,0.0,0.0,0.0,1.0,-3.75410820312,4.38138903809,-25.6706302002,1.0,0.0,0.0,0.0,1.0,0.0,0.0,0.0,1.0
1463081133950074045,692,1463081133948229830,,21.6755046844,14.6896419525,132.630661011,0.00997900031507,1.0,0.0,0.0,0.0,1.0,0.0,0.0,0.0,1.0,131.219512939,63.1707305908,-19.0243911743,1.0,0.0,0.0,0.0,1.0,0.0,0.0,0.0,1.0,-13.9486188721,15.4138702881,11.405976709,1.0,0.0,0.0,0.0,1.0,0.0,0.0,0.0,1.0
1463081133959990692,693,1463081133958313300,,23.1318435669,15.8072776794,132.884918213,0.0100149996579,1.0,0.0,0.0,0.0,1.0,0.0,0.0,0.0,1.0,112.012199402,93.6585388184,-9.32926845551,1.0,0.0,0.0,0.0,1.0,0.0,0.0,0.0,1.0,13.5607582031,-13.7139871094,-13.2638771973,1.0,0.0,0.0,0.0,1.0,0.0,0.0,0.0,1.0
1463081133970173173,694,1463081133968275416,,23.824420929,14.2764883041,132.083633423,0.00998600013554,1.0,0.0,0.0,0.0,1.0,0.0,0.0,0.0,1.0,131.341461182,-173.231704712,15.2439022064,1.0,0.0,0.0,0.0,1.0,0.0,0.0,0.0,1.0,3.0406361084,7.80509741211,-6.93839641113,1.0,0.0,0.0,0.0,1.0,0.0,0.0,0.0,1.0
1463081133980078466,695,1463081133978401802,,25.3107089996,14.7049665451,132.496307373,0.0100140003487,1.0,0.0,0.0,0.0,1.0,0.0,0.0,0.0,1.0,124.451217651,106.341461182,2.68292689323,1.0,0.0,0.0,0.0,1.0,0.0,0.0,0.0,1.0,-33.7295106502,-12.24394729,-18.1719917696,1.0,0.0,0.0,0.0,1.0,0.0,0.0,0.0,1.0
1463081133990024540,696,1463081133988408345,,26.7486915588,15.5895528793,132.693405151,0.00998799968511,1.0,0.0,0.0,0.0,1.0,0.0,0.0,0.0,1.0,127.5,41.9512214661,7.74390268326,1.0,0.0,0.0,0.0,1.0,0.0,0.0,0.0,1.0,21.6340062012,-1.87705410156,-1.31681091309,1.0,0.0,0.0,0.0,1.0,0.0,0.0,0.0,1.0
1463081134000793009,697,1463081133998511971,,27.8036079407,14.8704786301,132.53793335,0.0101389996707,1.0,0.0,0.0,0.0,1.0,0.0,0.0,0.0,1.0,112.500007629,-59.4512176514,27.0121955872,1.0,0.0,0.0,0.0,1.0,0.0,0.0,0.0,1.0,2.81079274902,-4.50588752441,-19.4361290771,1.0,0.0,0.0,0.0,1.0,0.0,0.0,0.0,1.0
1463081134010522052,698,1463081134008309609,,29.0012397766,15.0747423172,132.193130493,0.00988699961454,1.0,0.0,0.0,0.0,1.0,0.0,0.0,0.0,1.0,118.353660583,-17.5000019073,-21.0975627899,1.0,0.0,0.0,0.0,1.0,0.0,0.0,0.0,1.0,9.2416184082,-5.80354482422,-9.11711992188,1.0,0.0,0.0,0.0,1.0,0.0,0.0,0.0,1.0
1463081134020840782,699,1463081134018392922,,30.6725215912,14.7805318832,132.323501587,0.00997699983418,1.0,0.0,0.0,0.0,1.0,0.0,0.0,0.0,1.0,151.341461182,25.5487804413,7.98780536652,1.0,0.0,0.0,0.0,1.0,0.0,0.0,0.0,1.0,-19.5845695801,-11.2814782227,-15.7538469238,1.0,0.0,0.0,0.0,1.0,0.0,0.0,0.0,1.0
1463081134030817950,700,1463081134028313007,,32.0893173218,15.463766098,132.489746094,0.0100250001997,1.0,0.0,0.0,0.0,1.0,0.0,0.0,0.0,1.0,117.743896484,19.9390239716,11.4024391174,1.0,0.0,0.0,0.0,1.0,0.0,0.0,0.0,1.0,20.7577283936,-2.02549460449,4.78840361257,1.0,0.0,0.0,0.0,1.0,0.0,0.0,0.0,1.0
1463081134041015014,701,1463081134038403717,,33.2000007629,14.1751050949,132.328033447,0.00998200010508,1.0,0.0,0.0,0.0,1.0,0.0,0.0,0.0,1.0,124.451217651,-72.8048782349,43.4756126404,1.0,0.0,0.0,0.0,1.0,0.0,0.0,0.0,1.0,-14.8201082764,-1.97761057129,-16.6013943115,1.0,0.0,0.0,0.0,1.0,0.0,0.0,0.0,1.0
1463081134050605307,702,1463081134048318020,,34.6555862427,15.4395523071,132.54699707,0.0100349998102,1.0,0.0,0.0,0.0,1.0,0.0,0.0,0.0,1.0,103.780487061,79.6951217651,-28.2317066193,1.0,0.0,0.0,0.0,1.0,0.0,0.0,0.0,1.0,13.2926076172,-8.82981572266,0.995987890625,1.0,0.0,0.0,0.0,1.0,0.0,0.0,0.0,1.0
1463081134060362632,703,1463081134058432688,,36.0144348145,14.4314947128,131.943832397,0.00999699998647,1.0,0.0,0.0,0.0,1.0,0.0,0.0,0.0,1.0,171.219512939,-102.378051758,20.5487823486,1.0,0.0,0.0,0.0,1.0,0.0,0.0,0.0,1.0,3.16513459473,-2.20745393066,-35.563473798,1.0,0.0,0.0,0.0,1.0,0.0,0.0,0.0,1.0
1463081134070160061,704,1463081134068370429,,36.425037384,15.3669834137,132.063293457,0.00997100025415,1.0,0.0,0.0,0.0,1.0,0.0,0.0,0.0,1.0,62.865852356,56.4634132385,-7.31707334518,1.0,0.0,0.0,0.0,1.0,0.0,0.0,0.0,1.0,12.9430541748,15.92144104,0.684741674805,1.0,0.0,0.0,0.0,1.0,0.0,0.0,0.0,1.0
1463081134079997542,705,1463081134078384160,,37.450920105,14.39889431,131.607833862,0.00998300034553,1.0,0.0,0.0,0.0,1.0,0.0,0.0,0.0,1.0,138.414642334,-61.0975608826,12.0121955872,1.0,0.0,0.0,0.0,1.0,0.0,0.0,0.0,1.0,-25.7137258301,8.46110808247,-26.1638357422,1.0,0.0,0.0,0.0,1.0,0.0,0.0,0.0,1.0
1463081134090096324,706,1463081134088338932,,39.0114021301,15.837597847,132.293014526,0.0100180003792,1.0,0.0,0.0,0.0,1.0,0.0,0.0,0.0,1.0,118.841468811,111.646347046,0.609756112099,1.0,0.0,0.0,0.0,1.0,0.0,0.0,0.0,1.0,19.0530568115,3.1364041748,11.0947304932,1.0,0.0,0.0,0.0,1.0,0.0,0.0,0.0,1.0
1463081134099972920,707,1463081134098357402,,39.8179931641,14.5942707062,131.441879272,0.00998099986464,1.0,0.0,0.0,0.0,1.0,0.0,0.0,0.0,1.0,116.768287659,-145.548797607,31.5243930817,1.0,0.0,0.0,0.0,1.0,0.0,0.0,0.0,1.0,4.58250197754,-3.12682736816,-12.7946136719,1.0,0.0,0.0,0.0,1.0,0.0,0.0,0.0,1.0
1463081134110227223,708,1463081134108416341,,41.4849205017,14.2799329758,131.74079895,0.0100199999288,1.0,0.0,0.0,0.0,1.0,0.0,0.0,0.0,1.0,159.39024353,33.1097564697,22.7439041138,1.0,0.0,0.0,0.0,1.0,0.0,0.0,0.0,1.0,-22.7880114014,-13.8624276123,-25.996241626,1.0,0.0,0.0,0.0,1.0,0.0,0.0,0.0,1.0
1463081134120675379,709,1463081134118385019,,41.3982620239,14.1470546722,132.381729126,0.00999800022691,1.0,0.0,0.0,0.0,1.0,0.0,0.0,0.0,1.0,8.84146404266,64.4512252808,49.207321167,1.0,0.0,0.0,0.0,1.0,0.0,0.0,0.0,1.0,-16.1512855685,17.5686517822,-9.77791958008,1.0,0.0,0.0,0.0,1.0,0.0,0.0,0.0,1.0
1463081134130558798,710,1463081134128302760,,42.1851654053,14.9647245407,133.512832642,0.00999599974602,1.0,0.0,0.0,0.0,1.0,0.0,0.0,0.0,1.0,58.5365867615,168.10975647,11.0975618362,1.0,0.0,0.0,0.0,1.0,0.0,0.0,0.0,1.0,-15.9070758301,-9.7348239502,-25.3737491943,1.0,0.0,0.0,0.0,1.0,0.0,0.0,0.0,1.0
1463081134140536278,711,1463081134138336751,,43.5497322083,14.5576677322,133.965423584,0.0100189996883,1.0,0.0,0.0,0.0,1.0,0.0,0.0,0.0,1.0,77.9268264771,-32.134147644,84.5121917725,1.0,0.0,0.0,0.0,1.0,0.0,0.0,0.0,1.0,35.1468803711,-29.1517994141,19.3451494141,1.0,0.0,0.0,0.0,1.0,0.0,0.0,0.0,1.0
1463081134150662456,712,1463081134148471575,,44.4771575928,13.2903881073,133.360137939,0.00997199956328,1.0,0.0,0.0,0.0,1.0,0.0,0.0,0.0,1.0,123.10975647,-95.3658599854,29.6951236725,1.0,0.0,0.0,0.0,1.0,0.0,0.0,0.0,1.0,-21.6627366211,-5.91367810059,-29.9466743652,1.0,0.0,0.0,0.0,1.0,0.0,0.0,0.0,1.0
1463081134160915249,713,1463081134158442024,,43.9543571472,14.4170446396,135.170578003,0.0101309996098,1.0,0.0,0.0,0.0,1.0,0.0,0.0,0.0,1.0,-123.048789978,185.60975647,63.2926826477,1.0,0.0,0.0,0.0,1.0,0.0,0.0,0.0,1.0,11.1186725098,-16.7163159912,-5.98071574707,1.0,0.0,0.0,0.0,1.0,0.0,0.0,0.0,1.0
1463081134171807780,714,1463081134168379088,,44.3008422852,13.6723814011,134.89503479,0.00987000018358,1.0,0.0,0.0,0.0,1.0,0.0,0.0,0.0,1.0,62.9878044128,-45.6707344055,27.3780498505,1.0,0.0,0.0,0.0,1.0,0.0,0.0,0.0,1.0,-12.4929442627,-7.01979926758,-40.5146804932,1.0,0.0,0.0,0.0,1.0,0.0,0.0,0.0,1.0
1463081134180318232,715,1463081134178414486,,45.0563735962,14.6381664276,136.182449341,0.0100149996579,1.0,0.0,0.0,0.0,1.0,0.0,0.0,0.0,1.0,12.3170728683,121.28049469,55.9146347046,1.0,0.0,0.0,0.0,1.0,0.0,0.0,0.0,1.0,10.060435376,1.52750065918,10.1753570557,1.0,0.0,0.0,0.0,1.0,0.0,0.0,0.0,1.0
1463081134190104254,716,1463081134188461549,,44.5175666809,13.0293779373,134.977157593,0.00999800022691,1.0,0.0,0.0,0.0,1.0,0.0,0.0,0.0,1.0,-0.243902444839,-177.012191772,34.0853691101,1.0,0.0,0.0,0.0,1.0,0.0,0.0,0.0,1.0,-1.71903679199,-3.24653745117,-24.3538192871,1.0,0.0,0.0,0.0,1.0,0.0,0.0,0.0,1.0
1463081134200056683,717,1463081134198395645,,44.8817481995,13.6342372894,135.651473999,0.00999999977648,1.0,0.0,0.0,0.0,1.0,0.0,0.0,0.0,1.0,30.975610733,90.2439041138,18.2926826477,1.0,0.0,0.0,0.0,1.0,0.0,0.0,0.0,1.0,9.61032604839,-11.8656634277,-26.6570412842,1.0,0.0,0.0,0.0,1.0,0.0,0.0,0.0,1.0
1463081134210205465,718,1463081134208334583,,44.8377151489,14.1595315933,136.177947998,0.00999800022691,1.0,0.0,0.0,0.0,1.0,0.0,0.0,0.0,1.0,2.98780488968,59.2682914734,32.5,1.0,0.0,0.0,0.0,1.0,0.0,0.0,0.0,1.0,9.88805285645,-0.119710083008,-10.8361567139,1.0,0.0,0.0,0.0,1.0,0.0,0.0,0.0,1.0
1463081134220049665,719,1463081134218320241,,44.9167976379,14.4134025574,136.733901978,0.0100130001083,1.0,0.0,0.0,0.0,1.0,0.0,0.0,0.0,1.0,-15.2439022064,65.6097564697,19.5731716156,1.0,0.0,0.0,0.0,1.0,0.0,0.0,0.0,1.0,0.646434448242,-8.02536396484,-7.7332713623,1.0,0.0,0.0,0.0,1.0,0.0,0.0,0.0,1.0
1463081134229970010,720,1463081134228268347,,44.3738861084,14.3922233582,136.485198975,0.00997199956328,1.0,0.0,0.0,0.0,1.0,0.0,0.0,0.0,1.0,-53.6585388184,-50.5487785339,27.8048782349,1.0,0.0,0.0,0.0,1.0,0.0,0.0,0.0,1.0,23.6834428223,-3.20344182129,-5.1618987793,1.0,0.0,0.0,0.0,1.0,0.0,0.0,0.0,1.0
1463081134240356552,721,1463081134238496712,,43.7350883484,13.9279356003,136.708831787,0.0100029995665,1.0,0.0,0.0,0.0,1.0,0.0,0.0,0.0,1.0,-53.3536605835,0.18292683363,48.2926864624,1.0,0.0,0.0,0.0,1.0,0.0,0.0,0.0,1.0,-2.67192905273,-12.1577560303,-37.3303899471,1.0,0.0,0.0,0.0,1.0,0.0,0.0,0.0,1.0
1463081134250199398,722,1463081134248466328,,43.4266891479,13.5278949738,136.887420654,0.0100309997797,1.0,0.0,0.0,0.0,1.0,0.0,0.0,0.0,1.0,-17.0121955872,22.9878044128,20.3658542633,1.0,0.0,0.0,0.0,1.0,0.0,0.0,0.0,1.0,-29.5300832764,-0.828393774414,-30.0568076416,1.0,0.0,0.0,0.0,1.0,0.0,0.0,0.0,1.0
1463081134260020368,723,1463081134258410215,,43.1211853027,15.5751237869,139.028656006,0.00999400019646,1.0,0.0,0.0,0.0,1.0,0.0,0.0,0.0,1.0,-93.7804870605,263.231719971,44.817073822,1.0,0.0,0.0,0.0,1.0,0.0,0.0,0.0,1.0,63.1877702148,-26.0010300293,-25.2971347412,1.0,0.0,0.0,0.0,1.0,0.0,0.0,0.0,1.0
1463081134270017328,724,1463081134268368946,,42.2471542358,13.7529211044,137.760101318,0.00999299995601,1.0,0.0,0.0,0.0,1.0,0.0,0.0,0.0,1.0,-98.7195129395,-251.829284668,63.6585388184,1.0,0.0,0.0,0.0,1.0,0.0,0.0,0.0,1.0,17.2765603487,-10.553640918,9.47146118306,1.0,0.0,0.0,0.0,1.0,0.0,0.0,0.0,1.0
1463081134280039288,725,1463081134278423249,,41.7447738647,14.1722803116,139.334899902,0.00997699983418,1.0,0.0,0.0,0.0,1.0,0.0,0.0,0.0,1.0,-119.207321167,170.365859985,53.1097602844,1.0,0.0,0.0,0.0,1.0,0.0,0.0,0.0,1.0,-40.0023213379,-20.2980416748,4.84586416016,1.0,0.0,0.0,0.0,1.0,0.0,0.0,0.0,1.0
1463081134289998331,726,1463081134288291459,,42.064617157,14.5550632477,139.875747681,0.0100010000169,1.0,0.0,0.0,0.0,1.0,0.0,0.0,0.0,1.0,-39.0853652954,39.8780479431,27.0121955872,1.0,0.0,0.0,0.0,1.0,0.0,0.0,0.0,1.0,15.0882588623,-20.1639663818,33.8875302979,1.0,0.0,0.0,0.0,1.0,0.0,0.0,0.0,1.0
1463081134300207998,727,1463081134298376023,,41.7317848206,13.1781301498,139.848724365,0.010006999597,1.0,0.0,0.0,0.0,1.0,0.0,0.0,0.0,1.0,-15.7317075729,-60.4878044128,69.1463470459,1.0,0.0,0.0,0.0,1.0,0.0,0.0,0.0,1.0,-33.6720498103,4.34787021484,-23.8127297119,1.0,0.0,0.0,0.0,1.0,0.0,0.0,0.0,1.0
1463081134310402978,728,1463081134308415430,,39.6713256836,14.3258876801,140.391784668,0.0100039998069,1.0,0.0,0.0,0.0,1.0,0.0,0.0,0.0,1.0,-193.780502319,96.9512252808,6.7682929039,1.0,0.0,0.0,0.0,1.0,0.0,0.0,0.0,1.0,23.9946890381,25.4407868408,-3.68707055664,1.0,0.0,0.0,0.0,1.0,0.0,0.0,0.0,1.0
1463081134320220928,729,1463081134318450515,,38.8940200806,13.0654058456,139.222000122,0.0100159998983,1.0,0.0,0.0,0.0,1.0,0.0,0.0,0.0,1.0,-19.7560977936,-146.402435303,-3.71951246262,1.0,0.0,0.0,0.0,1.0,0.0,0.0,0.0,1.0,-6.32069238281,4.13239206543,-41.4484191406,1.0,0.0,0.0,0.0,1.0,0.0,0.0,0.0,1.0
1463081134330319710,730,1463081134328446068,,37.5123062134,14.1201057434,139.916473389,0.00997900031507,1.0,0.0,0.0,0.0,1.0,0.0,0.0,0.0,1.0,-126.463424683,102.256095886,26.0365848541,1.0,0.0,0.0,0.0,1.0,0.0,0.0,0.0,1.0,17.295713962,22.5868984619,-2.41814367676,1.0,0.0,0.0,0.0,1.0,0.0,0.0,0.0,1.0
1463081134340063962,731,1463081134338408913,,36.4986152649,13.2426538467,139.470718384,0.0100320000201,1.0,0.0,0.0,0.0,1.0,0.0,0.0,0.0,1.0,-65.0,-57.7439041138,9.39024448395,1.0,0.0,0.0,0.0,1.0,0.0,0.0,0.0,1.0,-18.0331269043,5.01824667969,-26.2787574219,1.0,0.0,0.0,0.0,1.0,0.0,0.0,0.0,1.0
1463081134350004828,732,1463081134348348529,,35.2325630188,14.4302253723,139.583984375,0.00997800007463,1.0,0.0,0.0,0.0,1.0,0.0,0.0,0.0,1.0,-124.085365295,75.6097564697,-27.317073822,1.0,0.0,0.0,0.0,1.0,0.0,0.0,0.0,1.0,21.332336792,-2.31758720703,-14.0252333252,1.0,0.0,0.0,0.0,1.0,0.0,0.0,0.0,1.0
1463081134362013242,733,1463081134358347416,,34.8079185486,12.4999275208,138.06803894,0.0100020002574,1.0,0.0,0.0,0.0,1.0,0.0,0.0,0.0,1.0,23.9024391174,-213.048782349,-7.92682981491,1.0,0.0,0.0,0.0,1.0,0.0,0.0,0.0,1.0,-8.76756647949,6.55532414551,-26.0824328857,1.0,0.0,0.0,0.0,1.0,0.0,0.0,0.0,1.0
1463081134369898748,734,1463081134368240053,,33.8071746826,13.5651817322,138.178405762,0.0099849998951,1.0,0.0,0.0,0.0,1.0,0.0,0.0,0.0,1.0,-68.2317047119,82.6829299927,-22.5609760284,1.0,0.0,0.0,0.0,1.0,0.0,0.0,0.0,1.0,2.28885678711,7.14908615723,0.0287304199219,1.0,0.0,0.0,0.0,1.0,0.0,0.0,0.0,1.0
1463081134380183520,735,1463081134378414825,,33.7375984192,12.9518737793,137.529541016,0.00999800022691,1.0,0.0,0.0,0.0,1.0,0.0,0.0,0.0,1.0,45.9146347046,-65.4878082275,-9.08536529541,1.0,0.0,0.0,0.0,1.0,0.0,0.0,0.0,1.0,-3.91691391602,12.1050835937,-26.5325427979,1.0,0.0,0.0,0.0,1.0,0.0,0.0,0.0,1.0
1463081134390024750,736,1463081134388395222,,33.9941101074,13.828209877,137.910446167,0.0100229997188,1.0,0.0,0.0,0.0,1.0,0.0,0.0,0.0,1.0,49.2682914734,130.0,-22.682926178,1.0,0.0,0.0,0.0,1.0,0.0,0.0,0.0,1.0,-5.93762011719,4.30956328054,-8.05409438477,1.0,0.0,0.0,0.0,1.0,0.0,0.0,0.0,1.0
1463081134400055147,737,1463081134398273588,,34.4023132324,13.6726074219,137.194107056,0.00998600013554,1.0,0.0,0.0,0.0,1.0,0.0,0.0,0.0,1.0,49.390247345,-96.2804870605,-9.20731735229,1.0,0.0,0.0,0.0,1.0,0.0,0.0,0.0,1.0,10.2040874756,0.828393774414,1.19710090314,1.0,0.0,0.0,0.0,1.0,0.0,0.0,0.0,1.0
1463081134410363096,738,1463081134408311486,,35.804359436,13.3403606415,136.952209473,0.0100079998374,1.0,0.0,0.0,0.0,1.0,0.0,0.0,0.0,1.0,152.865859985,1.46341466904,-15.2439022064,1.0,0.0,0.0,0.0,1.0,0.0,0.0,0.0,1.0,-25.9531459961,-6.39730683594,-29.0512429443,1.0,0.0,0.0,0.0,1.0,0.0,0.0,0.0,1.0
1463081134420077296,739,1463081134418450737,,37.0210762024,13.9240627289,137.187194824,0.0100140003487,1.0,0.0,0.0,0.0,1.0,0.0,0.0,0.0,1.0,74.8170776367,45.7926826477,-6.28048801422,1.0,0.0,0.0,0.0,1.0,0.0,0.0,0.0,1.0,1.12048637695,-0.0861912597656,12.8664397217,1.0,0.0,0.0,0.0,1.0,0.0,0.0,0.0,1.0
1463081134430056912,740,1463081134428383009,,37.9089508057,14.2122583389,137.236450195,0.00998700037599,1.0,0.0,0.0,0.0,1.0,0.0,0.0,0.0,1.0,111.097557068,29.2073173523,2.86585378647,1.0,0.0,0.0,0.0,1.0,0.0,0.0,0.0,1.0,9.18415756836,-0.0526724365234,-31.7758444336,1.0,0.0,0.0,0.0,1.0,0.0,0.0,0.0,1.0
1463081134440077882,741,1463081134438397104,,38.5841407776,14.1863050461,136.924041748,0.00998600013554,1.0,0.0,0.0,0.0,1.0,0.0,0.0,0.0,1.0,56.1585388184,-60.0609779358,14.7560987473,1.0,0.0,0.0,0.0,1.0,0.0,0.0,0.0,1.0,22.9220866943,6.67503422852,17.7314563261,1.0,0.0,0.0,0.0,1.0,0.0,0.0,0.0,1.0
1463081134450028436,742,1463081134448355678,,40.1863746643,13.168419838,136.655944824,0.0100130001083,1.0,0.0,0.0,0.0,1.0,0.0,0.0,0.0,1.0,186.524398804,-65.1829299927,39.5121955872,1.0,0.0,0.0,0.0,1.0,0.0,0.0,0.0,1.0,-16.2135336426,-4.04141240234,-45.5041967529,1.0,0.0,0.0,0.0,1.0,0.0,0.0,0.0,1.0
1463081134462602578,743,1463081134458381180,,41.1131362915,13.7324151993,137.08026123,0.00998399965465,1.0,0.0,0.0,0.0,1.0,0.0,0.0,0.0,1.0,65.0609741211,67.4390258789,2.74390244484,1.0,0.0,0.0,0.0,1.0,0.0,0.0,0.0,1.0,-2.98796367187,9.81143840332,16.6013943115,1.0,0.0,0.0,0.0,1.0,0.0,0.0,0.0,1.0
1463081134469926470,744,1463081134468326004,,42.190864563,13.9391365051,138.139556885,0.00999899953604,1.0,0.0,0.0,0.0,1.0,0.0,0.0,0.0,1.0,80.5487823486,126.707313538,36.2804908752,1.0,0.0,0.0,0.0,1.0,0.0,0.0,0.0,1.0,-22.7018201416,-7.72848295898,-13.8001783691,1.0,0.0,0.0,0.0,1.0,0.0,0.0,0.0,1.0
1463081134482763580,745,1463081134478713223,,42.7242088318,13.4121246338,137.849075317,0.0100020002574,1.0,0.0,0.0,0.0,1.0,0.0,0.0,0.0,1.0,23.2317085266,-96.1585388184,50.1219520569,1.0,0.0,0.0,0.0,1.0,0.0,0.0,0.0,1.0,37.627273291,-11.3293622559,21.9021567871,1.0,0.0,0.0,0.0,1.0,0.0,0.0,0.0,1.0
1463081134490059035,746,1463081134488349246,,43.7559928894,12.2884788513,137.266738892,0.0100130001083,1.0,0.0,0.0,0.0,1.0,0.0,0.0,0.0,1.0,137.256103516,-85.365852356,22.9268302917,1.0,0.0,0.0,0.0,1.0,0.0,0.0,0.0,1.0,-28.1031390869,-2.4516625,-44.6135537354,1.0,0.0,0.0,0.0,1.0,0.0,0.0,0.0,1.0
1463081134500255473,747,1463081134498375008,,43.7014045715,13.3178348541,138.042282104,0.0099849998951,1.0,0.0,0.0,0.0,1.0,0.0,0.0,0.0,1.0,-18.658536911,98.6585388184,23.475610733,1.0,0.0,0.0,0.0,1.0,0.0,0.0,0.0,1.0,10.912771167,11.1809217529,6.11479104004,1.0,0.0,0.0,0.0,1.0,0.0,0.0,0.0,1.0
1463081134512915553,748,1463081134508379676,,44.6385803223,12.7854423523,138.196533203,0.0100229997188,1.0,0.0,0.0,0.0,1.0,0.0,0.0,0.0,1.0,103.536590576,4.63414621353,33.7195129395,1.0,0.0,0.0,0.0,1.0,0.0,0.0,0.0,1.0,-27.7631624512,-15.0116444092,-49.3492846191,1.0,0.0,0.0,0.0,1.0,0.0,0.0,0.0,1.0
1463081134522628659,749,1463081134519142155,,44.6924514771,13.8131103516,139.071594238,0.0101520000026,1.0,0.0,0.0,0.0,1.0,0.0,0.0,0.0,1.0,-9.20731735229,96.6463394165,36.0975646973,1.0,0.0,0.0,0.0,1.0,0.0,0.0,0.0,1.0,25.2444623047,11.2671130127,1.52271225586,1.0,0.0,0.0,0.0,1.0,0.0,0.0,0.0,1.0
1463081134533008951,750,1463081134528430939,,45.0560684204,12.1689081192,137.657089233,0.00983799993992,1.0,0.0,0.0,0.0,1.0,0.0,0.0,0.0,1.0,88.0487823486,-204.695129395,27.0121955872,1.0,0.0,0.0,0.0,1.0,0.0,0.0,0.0,1.0,3.51468803711,-10.6541973877,-39.839515625,1.0,0.0,0.0,0.0,1.0,0.0,0.0,0.0,1.0
1463081134543493253,751,1463081134538436701,,44.8596153259,13.8944511414,139.103363037,0.0100020002574,1.0,0.0,0.0,0.0,1.0,0.0,0.0,0.0,1.0,-89.3902435303,185.121963501,14.2073173523,1.0,0.0,0.0,0.0,1.0,0.0,0.0,0.0,1.0,8.00142194824,-1.93930334473,5.15711037598,1.0,0.0,0.0,0.0,1.0,0.0,0.0,0.0,1.0
1463081134550276574,752,1463081134548404494,,44.7601318359,13.1312980652,138.817352295,0.00999299995601,1.0,0.0,0.0,0.0,1.0,0.0,0.0,0.0,1.0,34.4512214661,-44.9390258789,31.7073192596,1.0,0.0,0.0,0.0,1.0,0.0,0.0,0.0,1.0,-12.0811415771,10.285490332,-28.4431157227,1.0,0.0,0.0,0.0,1.0,0.0,0.0,0.0,1.0
1463081134560200617,753,1463081134558441141,,43.6492729187,14.4429683685,139.687515259,0.0100210001692,1.0,0.0,0.0,0.0,1.0,0.0,0.0,0.0,1.0,-120.182937622,124.39025116,12.9268293381,1.0,0.0,0.0,0.0,1.0,0.0,0.0,0.0,1.0,12.3492921631,11.4490723389,2.7820623291,1.0,0.0,0.0,0.0,1.0,0.0,0.0,0.0,1.0
1463081134570129712,754,1463081134568496746,,43.2688217163,12.9742946625,138.241317749,0.00999199971557,1.0,0.0,0.0,0.0,1.0,0.0,0.0,0.0,1.0,23.0487823486,-223.597564697,42.4390258789,1.0,0.0,0.0,0.0,1.0,0.0,0.0,0.0,1.0,7.77157858887,4.22815983957,-5.1379567627,1.0,0.0,0.0,0.0,1.0,0.0,0.0,0.0,1.0
1463081134582749739,755,1463081134578577925,,41.8017196655,13.8430070877,138.936477661,0.00997900031507,1.0,0.0,0.0,0.0,1.0,0.0,0.0,0.0,1.0,-121.463417053,119.512199402,7.07317113876,1.0,0.0,0.0,0.0,1.0,0.0,0.0,0.0,1.0,-1.00077629395,12.018892334,-4.19464101633,1.0,0.0,0.0,0.0,1.0,0.0,0.0,0.0,1.0
1463081134590219725,756,1463081134588491603,,41.3933868408,13.0065355301,138.39302063,0.0100260004401,1.0,0.0,0.0,0.0,1.0,0.0,0.0,0.0,1.0,3.90243911743,-85.1829299927,28.7195110321,1.0,0.0,0.0,0.0,1.0,0.0,0.0,0.0,1.0,3.02148249512,3.27526787109,-31.9961109863,1.0,0.0,0.0,0.0,1.0,0.0,0.0,0.0,1.0
1463081134602506472,757,1463081134598466896,,40.0931587219,14.6097421646,139.023910522,0.00997599959373,1.0,0.0,0.0,0.0,1.0,0.0,0.0,0.0,1.0,-141.951217651,124.695129395,-12.8048782349,1.0,0.0,0.0,0.0,1.0,0.0,0.0,0.0,1.0,27.3896669922,6.91924279785,-1.42215578613,1.0,0.0,0.0,0.0,1.0,0.0,0.0,0.0,1.0
1463081134612671608,758,1463081134608372242,,38.8503608704,13.0363540649,137.668930054,0.00999800022691,1.0,0.0,0.0,0.0,1.0,0.0,0.0,0.0,1.0,-59.024394989,-183.353652954,5.0,1.0,0.0,0.0,0.0,1.0,0.0,0.0,0.0,1.0,-4.60644399414,6.21534750977,-37.2920827205,1.0,0.0,0.0,0.0,1.0,0.0,0.0,0.0,1.0
1463081134619989094,759,1463081134618379149,,38.4379081726,13.7300491333,138.433456421,0.0100020002574,1.0,0.0,0.0,0.0,1.0,0.0,0.0,0.0,1.0,-58.9634132385,95.9756088257,29.8170719147,1.0,0.0,0.0,0.0,1.0,0.0,0.0,0.0,1.0,1.57538469238,-1.77649763184,-3.14598098145,1.0,0.0,0.0,0.0,1.0,0.0,0.0,0.0,1.0
1463081134632720059,760,1463081134628487567,,38.1174812317,13.3915176392,138.610610962,0.00999800022691,1.0,0.0,0.0,0.0,1.0,0.0,0.0,0.0,1.0,-7.43902492523,15.4268302917,30.4878044128,1.0,0.0,0.0,0.0,1.0,0.0,0.0,0.0,1.0,-16.563087085,5.8705824707,-39.1835067082,1.0,0.0,0.0,0.0,1.0,0.0,0.0,0.0,1.0
1463081134642128061,761,1463081134638438381,,37.0330505371,14.6049509048,139.749450684,0.0100159998983,1.0,0.0,0.0,0.0,1.0,0.0,0.0,0.0,1.0,-185.60975647,135.670730591,31.158536911,1.0,0.0,0.0,0.0,1.0,0.0,0.0,0.0,1.0,6.02381137695,-7.4028715332,2.59052619629,1.0,0.0,0.0,0.0,1.0,0.0,0.0,0.0,1.0
1463081134650117681,762,1463081134648431695,,36.4150390625,12.2112874985,138.649398804,0.0100189996883,1.0,0.0,0.0,0.0,1.0,0.0,0.0,0.0,1.0,-55.7926826477,-211.890258789,31.0365867615,1.0,0.0,0.0,0.0,1.0,0.0,0.0,0.0,1.0,-21.6244293945,-3.23217224121,2.95444484863,1.0,0.0,0.0,0.0,1.0,0.0,0.0,0.0,1.0
1463081134660408338,763,1463081134658369644,,35.6334533691,12.4562768936,139.748260498,0.00996599998325,1.0,0.0,0.0,0.0,1.0,0.0,0.0,0.0,1.0,-115.548782349,118.231712341,53.7195129395,1.0,0.0,0.0,0.0,1.0,0.0,0.0,0.0,1.0,-12.1194488037,-11.7938373779,-12.6413847656,1.0,0.0,0.0,0.0,1.0,0.0,0.0,0.0,1.0
1463081134670111132,764,1463081134668456552,,35.3813323975,12.7869825363,140.216049194,0.0100349998102,1.0,0.0,0.0,0.0,1.0,0.0,0.0,0.0,1.0,-72.7439041138,12.6829271317,48.1097602844,1.0,0.0,0.0,0.0,1.0,0.0,0.0,0.0,1.0,17.1137546358,-7.23527741699,7.98705673828,1.0,0.0,0.0,0.0,1.0,0.0,0.0,0.0,1.0
1463081134682163244,765,1463081134678488720,,35.1576576233,12.3305931091,140.677047729,0.00998200010508,1.0,0.0,0.0,0.0,1.0,0.0,0.0,0.0,1.0,-25.0,23.5365848541,51.7073173523,1.0,0.0,0.0,0.0,1.0,0.0,0.0,0.0,1.0,-11.0516348633,-5.5401826416,-19.0099623507,1.0,0.0,0.0,0.0,1.0,0.0,0.0,0.0,1.0
1463081134690031041,766,1463081134688381304,,34.9400215149,12.6062688828,140.602722168,0.0100100003183,1.0,0.0,0.0,0.0,1.0,0.0,0.0,0.0,1.0,-47.7439041138,-18.1707305908,8.23170757294,1.0,0.0,0.0,0.0,1.0,0.0,0.0,0.0,1.0,11.7124345215,1.89620771484,13.1776859375,1.0,0.0,0.0,0.0,1.0,0.0,0.0,0.0,1.0
1463081134702046434,767,1463081134698524722,,34.3504943848,12.3654527664,140.307296753,0.00998099986464,1.0,0.0,0.0,0.0,1.0,0.0,0.0,0.0,1.0,-34.3902435303,-9.51219558716,-12.1341466904,1.0,0.0,0.0,0.0,1.0,0.0,0.0,0.0,1.0,-5.99508095703,-1.7908628418,-20.9971485596,1.0,0.0,0.0,0.0,1.0,0.0,0.0,0.0,1.0
