%time,field.header.seq,field.header.stamp,field.header.frame_id,field.orientation.x,field.orientation.y,field.orientation.z,field.orientation.w,field.orientation_covariance0,field.orientation_covariance1,field.orientation_covariance2,field.orientation_covariance3,field.orientation_covariance4,field.orientation_covariance5,field.orientation_covariance6,field.orientation_covariance7,field.orientation_covariance8,field.angular_velocity.x,field.angular_velocity.y,field.angular_velocity.z,field.angular_velocity_covariance0,field.angular_velocity_covariance1,field.angular_velocity_covariance2,field.angular_velocity_covariance3,field.angular_velocity_covariance4,field.angular_velocity_covariance5,field.angular_velocity_covariance6,field.angular_velocity_covariance7,field.angular_velocity_covariance8,field.linear_acceleration.x,field.linear_acceleration.y,field.linear_acceleration.z,field.linear_acceleration_covariance0,field.linear_acceleration_covariance1,field.linear_acceleration_covariance2,field.linear_acceleration_covariance3,field.linear_acceleration_covariance4,field.linear_acceleration_covariance5,field.linear_acceleration_covariance6,field.linear_acceleration_covariance7,field.linear_acceleration_covariance8
1463563795423456714,425,1463563795386851554,,2.50666880608,-1.9470294714,-122.367233276,0.010111999698,1.0,0.0,0.0,0.0,1.0,0.0,0.0,0.0,1.0,32.9268302917,-5.91463422775,19.5121955872,1.0,0.0,0.0,0.0,1.0,0.0,0.0,0.0,1.0,-0.948103857422,1.1540052002,-10.0843773926,1.0,0.0,0.0,0.0,1.0,0.0,0.0,0.0,1.0
1463563795423564630,426,1463563795395872285,,2.74728631973,-2.02995538712,-122.146110535,0.0101110003889,1.0,0.0,0.0,0.0,1.0,0.0,0.0,0.0,1.0,33.2317085266,-6.15853643417,19.6341457367,1.0,0.0,0.0,0.0,1.0,0.0,0.0,0.0,1.0,-0.9193734375,0.957680664062,-10.2280294922,1.0,0.0,0.0,0.0,1.0,0.0,0.0,0.0,1.0
1463563795423653119,427,1463563795405345201,,2.97693967819,-2.11602878571,-121.923782349,0.0101349996403,1.0,0.0,0.0,0.0,1.0,0.0,0.0,0.0,1.0,32.9268302917,-6.46341466904,19.6951236725,1.0,0.0,0.0,0.0,1.0,0.0,0.0,0.0,1.0,-0.928950244141,1.07739082014,-10.3812583984,1.0,0.0,0.0,0.0,1.0,0.0,0.0,0.0,1.0
1463563795423729942,428,1463563795415152750,,3.20544958115,-2.20754599571,-121.71244812,0.0100520001724,1.0,0.0,0.0,0.0,1.0,0.0,0.0,0.0,1.0,32.5609779358,-7.01219511032,18.841463089,1.0,0.0,0.0,0.0,1.0,0.0,0.0,0.0,1.0,-0.928950244141,0.933738647461,-10.165780249,1.0,0.0,0.0,0.0,1.0,0.0,0.0,0.0,1.0
1463563795432767391,429,1463563795429891366,,3.49734449387,-2.33378505707,-121.444099426,0.0135690001771,1.0,0.0,0.0,0.0,1.0,0.0,0.0,0.0,1.0,30.5487804413,-7.68292665482,17.6829280853,1.0,0.0,0.0,0.0,1.0,0.0,0.0,0.0,1.0,-0.852335791016,0.746990917969,-10.1370498291,1.0,0.0,0.0,0.0,1.0,0.0,0.0,0.0,1.0
1463563795442963688,430,1463563795435401179,,3.63538098335,-2.39694046974,-121.309989929,0.00664700008929,1.0,0.0,0.0,0.0,1.0,0.0,0.0,0.0,1.0,29.3292694092,-7.74390268326,18.1097564697,1.0,0.0,0.0,0.0,1.0,0.0,0.0,0.0,1.0,-0.871489404297,0.593762048251,-10.0221281494,1.0,0.0,0.0,0.0,1.0,0.0,0.0,0.0,1.0
1463563795447696214,431,1463563795445506799,,3.80944299698,-2.49944543839,-121.109214783,0.0100840004161,1.0,0.0,0.0,0.0,1.0,0.0,0.0,0.0,1.0,26.9512195587,-7.68292665482,17.8048782349,1.0,0.0,0.0,0.0,1.0,0.0,0.0,0.0,1.0,-0.986411083984,0.756567724609,-9.82101520996,1.0,0.0,0.0,0.0,1.0,0.0,0.0,0.0,1.0
1463563795458516883,432,1463563795456246427,,3.97112941742,-2.60104298592,-120.90712738,0.0101009998471,1.0,0.0,0.0,0.0,1.0,0.0,0.0,0.0,1.0,25.7317085266,-7.98780536652,17.9268302917,1.0,0.0,0.0,0.0,1.0,0.0,0.0,0.0,1.0,-0.92416184082,0.727837304687,-9.86411083984,1.0,0.0,0.0,0.0,1.0,0.0,0.0,0.0,1.0
1463563795469044011,433,1463563795466133403,,4.11469984055,-2.70087885857,-120.708930969,0.0101509997621,1.0,0.0,0.0,0.0,1.0,0.0,0.0,0.0,1.0,24.0853652954,-7.98780536652,17.4390239716,1.0,0.0,0.0,0.0,1.0,0.0,0.0,0.0,1.0,-0.9193734375,0.751779321289,-10.0891657959,1.0,0.0,0.0,0.0,1.0,0.0,0.0,0.0,1.0
1463563795481751597,434,1463563795475788140,,4.24012756348,-2.80792093277,-120.516540527,0.0100760003552,1.0,0.0,0.0,0.0,1.0,0.0,0.0,0.0,1.0,22.1341457367,-7.80487823486,17.0121955872,1.0,0.0,0.0,0.0,1.0,0.0,0.0,0.0,1.0,-1.10133276367,0.675164868164,-10.0125513428,1.0,0.0,0.0,0.0,1.0,0.0,0.0,0.0,1.0
1463563795489025150,435,1463563795486068604,,4.35611486435,-2.91166138649,-120.324867249,0.0100659998134,1.0,0.0,0.0,0.0,1.0,0.0,0.0,0.0,1.0,20.7317085266,-7.37804937363,16.9512195587,1.0,0.0,0.0,0.0,1.0,0.0,0.0,0.0,1.0,-1.13963999023,0.565031591797,-10.0700121826,1.0,0.0,0.0,0.0,1.0,0.0,0.0,0.0,1.0
1463563795510569300,436,1463563795495951726,,4.45490550995,-3.00336003304,-120.134208679,0.0101279998198,1.0,0.0,0.0,0.0,1.0,0.0,0.0,0.0,1.0,18.5975627899,-6.82926845551,16.7073173523,1.0,0.0,0.0,0.0,1.0,0.0,0.0,0.0,1.0,-1.02950671387,0.474051928711,-10.0843773926,1.0,0.0,0.0,0.0,1.0,0.0,0.0,0.0,1.0
1463563795511668669,437,1463563795506230001,,4.51560878754,-3.09138965607,-119.943717957,0.0100940000266,1.0,0.0,0.0,0.0,1.0,0.0,0.0,0.0,1.0,16.341463089,-6.46341466904,16.6463413239,1.0,0.0,0.0,0.0,1.0,0.0,0.0,0.0,1.0,-1.04387185076,0.718260498047,-10.0508585693,1.0,0.0,0.0,0.0,1.0,0.0,0.0,0.0,1.0
1463563795520175444,438,1463563795516311247,,4.56115627289,-3.1777973175,-119.754730225,0.0101199997589,1.0,0.0,0.0,0.0,1.0,0.0,0.0,0.0,1.0,15.6097564697,-6.52439069748,16.4024391174,1.0,0.0,0.0,0.0,1.0,0.0,0.0,0.0,1.0,-0.981622680664,0.818816967773,-9.70609353027,1.0,0.0,0.0,0.0,1.0,0.0,0.0,0.0,1.0
1463563795530430647,439,1463563795526559523,,4.59949541092,-3.2594165802,-119.574409485,0.010095000267,1.0,0.0,0.0,0.0,1.0,0.0,0.0,0.0,1.0,15.0000009537,-6.21951246262,15.548781395,1.0,0.0,0.0,0.0,1.0,0.0,0.0,0.0,1.0,-1.00077629395,0.847547387695,-9.91678327637,1.0,0.0,0.0,0.0,1.0,0.0,0.0,0.0,1.0
1463563795539934240,440,1463563795536732227,,4.63923692703,-3.34802699089,-119.398445129,0.0100899999961,1.0,0.0,0.0,0.0,1.0,0.0,0.0,0.0,1.0,14.4512205124,-6.52439069748,15.1829271317,1.0,0.0,0.0,0.0,1.0,0.0,0.0,0.0,1.0,-1.11090957031,0.732625708008,-10.1274730225,1.0,0.0,0.0,0.0,1.0,0.0,0.0,0.0,1.0
1463563795549879758,441,1463563795547077638,,4.66308879852,-3.43346595764,-119.220458984,0.0102420002222,1.0,0.0,0.0,0.0,1.0,0.0,0.0,0.0,1.0,14.0853662491,-6.09756088257,15.0000009537,1.0,0.0,0.0,0.0,1.0,0.0,0.0,0.0,1.0,-1.13963999023,0.962469067383,-10.2615483154,1.0,0.0,0.0,0.0,1.0,0.0,0.0,0.0,1.0
1463563795561511255,442,1463563795558107368,,4.70215320587,-3.51160550117,-119.055984497,0.00996599998325,1.0,0.0,0.0,0.0,1.0,0.0,0.0,0.0,1.0,15.0000009537,-5.97560977936,14.1463422775,1.0,0.0,0.0,0.0,1.0,0.0,0.0,0.0,1.0,-1.09175595703,0.833182177734,-10.2184526855,1.0,0.0,0.0,0.0,1.0,0.0,0.0,0.0,1.0
1463563795571785989,443,1463563795567475128,,4.74429702759,-3.58695745468,-118.88948822,0.0100969998166,1.0,0.0,0.0,0.0,1.0,0.0,0.0,0.0,1.0,15.1219511032,-6.15853643417,14.1463422775,1.0,0.0,0.0,0.0,1.0,0.0,0.0,0.0,1.0,-1.00556469727,0.799663354492,-10.2615483154,1.0,0.0,0.0,0.0,1.0,0.0,0.0,0.0,1.0
1463563795589136361,444,1463563795577287573,,4.78741121292,-3.66002297401,-118.724212646,0.0100729996338,1.0,0.0,0.0,0.0,1.0,0.0,0.0,0.0,1.0,15.2439022064,-6.52439069748,14.0853662491,1.0,0.0,0.0,0.0,1.0,0.0,0.0,0.0,1.0,-0.928950244141,0.804451757813,-10.4435076416,1.0,0.0,0.0,0.0,1.0,0.0,0.0,0.0,1.0
1463563795590649790,445,1463563795587347934,,4.8332490921,-3.74289655685,-118.55921936,0.0101220002398,1.0,0.0,0.0,0.0,1.0,0.0,0.0,0.0,1.0,15.4878053665,-7.13414621353,14.0243902206,1.0,0.0,0.0,0.0,1.0,0.0,0.0,0.0,1.0,-1.01514150391,0.804451757813,-10.5823713379,1.0,0.0,0.0,0.0,1.0,0.0,0.0,0.0,1.0
1463563795601944883,446,1463563795597599178,,4.88476514816,-3.82766199112,-118.400421143,0.0101079996675,1.0,0.0,0.0,0.0,1.0,0.0,0.0,0.0,1.0,15.0609760284,-7.68292665482,13.5365858078,1.0,0.0,0.0,0.0,1.0,0.0,0.0,0.0,1.0,-0.962469067383,0.603338854892,-10.4913916748,1.0,0.0,0.0,0.0,1.0,0.0,0.0,0.0,1.0
1463563795613885546,447,1463563795607752872,,4.92210817337,-3.9154253006,-118.246109009,0.010150000453,1.0,0.0,0.0,0.0,1.0,0.0,0.0,0.0,1.0,14.3292694092,-7.80487823486,12.9878053665,1.0,0.0,0.0,0.0,1.0,0.0,0.0,0.0,1.0,-1.00556469727,0.723048901367,-10.4435076416,1.0,0.0,0.0,0.0,1.0,0.0,0.0,0.0,1.0
1463563795621729616,448,1463563795617822815,,4.95521450043,-4.00848865509,-118.091697693,0.0100769996643,1.0,0.0,0.0,0.0,1.0,0.0,0.0,0.0,1.0,14.2073173523,-8.17073154449,13.1097564697,1.0,0.0,0.0,0.0,1.0,0.0,0.0,0.0,1.0,-1.05823706072,0.76135612793,-10.4291424316,1.0,0.0,0.0,0.0,1.0,0.0,0.0,0.0,1.0
1463563795643376995,449,1463563795627993488,,5.00258874893,-4.09312009811,-117.946563721,0.0100699998438,1.0,0.0,0.0,0.0,1.0,0.0,0.0,0.0,1.0,15.0609760284,-8.47560977936,12.2560977936,1.0,0.0,0.0,0.0,1.0,0.0,0.0,0.0,1.0,-0.885854614258,0.660799658203,-10.539275708,1.0,0.0,0.0,0.0,1.0,0.0,0.0,0.0,1.0
1463563795643759754,450,1463563795637704163,,5.05157756805,-4.1791510582,-117.807563782,0.0100899999961,1.0,0.0,0.0,0.0,1.0,0.0,0.0,0.0,1.0,14.3292694092,-8.84146404266,11.7073173523,1.0,0.0,0.0,0.0,1.0,0.0,0.0,0.0,1.0,-0.861912597656,0.488417138672,-10.5153336914,1.0,0.0,0.0,0.0,1.0,0.0,0.0,0.0,1.0
1463563795832430887,451,1463563795647679055,,5.07848215103,-4.27779245377,-117.66242218,0.0100899999961,1.0,0.0,0.0,0.0,1.0,0.0,0.0,0.0,1.0,12.6219520569,-10.0,12.3780488968,1.0,0.0,0.0,0.0,1.0,0.0,0.0,0.0,1.0,-0.885854614258,0.560243188477,-10.553640918,1.0,0.0,0.0,0.0,1.0,0.0,0.0,0.0,1.0
1463563795832468907,452,1463563795658301912,,5.09406042099,-4.37493610382,-117.519989014,0.0101260002702,1.0,0.0,0.0,0.0,1.0,0.0,0.0,0.0,1.0,10.7926826477,-10.3658542633,12.1341466904,1.0,0.0,0.0,0.0,1.0,0.0,0.0,0.0,1.0,-0.804451757813,0.421379492187,-10.539275708,1.0,0.0,0.0,0.0,1.0,0.0,0.0,0.0,1.0
1463563795832573282,453,1463563795667611027,,5.0908946991,-4.4881234169,-117.382568359,0.0101260002702,1.0,0.0,0.0,0.0,1.0,0.0,0.0,0.0,1.0,9.45121955872,-11.0365858078,11.6463422775,1.0,0.0,0.0,0.0,1.0,0.0,0.0,0.0,1.0,-1.00556469727,0.521935925381,-10.5823713379,1.0,0.0,0.0,0.0,1.0,0.0,0.0,0.0,1.0
1463563795832615000,454,1463563795678075187,,5.06614637375,-4.6062130928,-117.249740601,0.0100750001147,1.0,0.0,0.0,0.0,1.0,0.0,0.0,0.0,1.0,8.23170757294,-11.6463422775,11.2195119858,1.0,0.0,0.0,0.0,1.0,0.0,0.0,0.0,1.0,-1.01992990723,0.699106884766,-10.5680061279,1.0,0.0,0.0,0.0,1.0,0.0,0.0,0.0,1.0
1463563795832663438,455,1463563795687930496,,5.03560590744,-4.7283205986,-117.13142395,0.0100830001757,1.0,0.0,0.0,0.0,1.0,0.0,0.0,0.0,1.0,8.04878044128,-11.4634151459,9.69512176514,1.0,0.0,0.0,0.0,1.0,0.0,0.0,0.0,1.0,-1.16358193377,0.790086547852,-10.4578728516,1.0,0.0,0.0,0.0,1.0,0.0,0.0,0.0,1.0
1463563795832700937,456,1463563795699244235,,5.02262067795,-4.84503030777,-117.024726868,0.0101199997589,1.0,0.0,0.0,0.0,1.0,0.0,0.0,0.0,1.0,7.68292665482,-11.5243911743,8.65853691101,1.0,0.0,0.0,0.0,1.0,0.0,0.0,0.0,1.0,-1.07739082014,0.407014282227,-10.3668931885,1.0,0.0,0.0,0.0,1.0,0.0,0.0,0.0,1.0
1463563795832735937,457,1463563795708571423,,4.98837423325,-4.95260906219,-116.926620483,0.0100990002975,1.0,0.0,0.0,0.0,1.0,0.0,0.0,0.0,1.0,7.13414621353,-10.2439022064,7.56097555161,1.0,0.0,0.0,0.0,1.0,0.0,0.0,0.0,1.0,-1.20667770978,0.723048901367,-10.524910498,1.0,0.0,0.0,0.0,1.0,0.0,0.0,0.0,1.0
1463563795833160310,458,1463563795718573346,,4.97046422958,-5.05875301361,-116.847213745,0.010106000118,1.0,0.0,0.0,0.0,1.0,0.0,0.0,0.0,1.0,7.31707334518,-10.1219511032,5.79268312454,1.0,0.0,0.0,0.0,1.0,0.0,0.0,0.0,1.0,-1.2497732666,0.483628735352,-10.5009684814,1.0,0.0,0.0,0.0,1.0,0.0,0.0,0.0,1.0
1463563795833208226,459,1463563795728951465,,4.93683481216,-5.15530061722,-116.77696228,0.010106000118,1.0,0.0,0.0,0.0,1.0,0.0,0.0,0.0,1.0,6.21951246262,-9.32926845551,4.75609779358,1.0,0.0,0.0,0.0,1.0,0.0,0.0,0.0,1.0,-1.24019645996,0.579396801758,-10.3668931885,1.0,0.0,0.0,0.0,1.0,0.0,0.0,0.0,1.0
1463563795833377600,460,1463563795739394323,,4.87991666794,-5.24044656754,-116.707557678,0.0100790001452,1.0,0.0,0.0,0.0,1.0,0.0,0.0,0.0,1.0,4.87804889679,-8.5365858078,4.51219558716,1.0,0.0,0.0,0.0,1.0,0.0,0.0,0.0,1.0,-1.19231249982,0.76135612793,-10.2759135254,1.0,0.0,0.0,0.0,1.0,0.0,0.0,0.0,1.0
1463563795833424475,461,1463563795748590314,,4.83212518692,-5.31276750565,-116.645233154,0.0101190004498,1.0,0.0,0.0,0.0,1.0,0.0,0.0,0.0,1.0,4.87804889679,-7.01219511032,3.71951246262,1.0,0.0,0.0,0.0,1.0,0.0,0.0,0.0,1.0,-1.25456166992,0.60812722168,-10.2136642822,1.0,0.0,0.0,0.0,1.0,0.0,0.0,0.0,1.0
1463563795833463433,462,1463563795759615617,,4.76946640015,-5.38272333145,-116.594200134,0.0100880004466,1.0,0.0,0.0,0.0,1.0,0.0,0.0,0.0,1.0,4.57317066193,-6.46341466904,2.43902444839,1.0,0.0,0.0,0.0,1.0,0.0,0.0,0.0,1.0,-1.35032973633,0.857124194336,-10.2280294922,1.0,0.0,0.0,0.0,1.0,0.0,0.0,0.0,1.0
1463563795833723327,463,1463563795768982283,,4.72418165207,-5.42318296432,-116.557899475,0.0101370001212,1.0,0.0,0.0,0.0,1.0,0.0,0.0,0.0,1.0,5.18292713165,-4.81707286835,0.914634168148,1.0,0.0,0.0,0.0,1.0,0.0,0.0,0.0,1.0,-1.15879360352,0.684741674805,-10.3190091553,1.0,0.0,0.0,0.0,1.0,0.0,0.0,0.0,1.0
1463563795833932649,464,1463563795778711239,,4.6792640686,-5.46361780167,-116.531715393,0.0100619997829,1.0,0.0,0.0,0.0,1.0,0.0,0.0,0.0,1.0,4.75609779358,-4.51219558716,-0.0609756112099,1.0,0.0,0.0,0.0,1.0,0.0,0.0,0.0,1.0,-1.25456166992,0.636857641602,-10.4147772217,1.0,0.0,0.0,0.0,1.0,0.0,0.0,0.0,1.0
1463563795834193377,465,1463563795789948572,,4.62686824799,-5.48666620255,-116.511306763,0.0106950001791,1.0,0.0,0.0,0.0,1.0,0.0,0.0,0.0,1.0,4.63414621353,-3.04878044128,-0.914634168148,1.0,0.0,0.0,0.0,1.0,0.0,0.0,0.0,1.0,-1.1875240965,0.708683691406,-10.314220752,1.0,0.0,0.0,0.0,1.0,0.0,0.0,0.0,1.0
1463563795834261918,466,1463563795799058000,,4.58037996292,-5.49606180191,-116.496406555,0.0095650004223,1.0,0.0,0.0,0.0,1.0,0.0,0.0,0.0,1.0,4.69512224197,-2.19512200356,-1.34146344662,1.0,0.0,0.0,0.0,1.0,0.0,0.0,0.0,1.0,-1.1540052002,0.737414111328,-10.4530844482,1.0,0.0,0.0,0.0,1.0,0.0,0.0,0.0,1.0
1463563795834304626,467,1463563795810016220,,4.53209638596,-5.5098400116,-116.490013123,0.0100349998102,1.0,0.0,0.0,0.0,1.0,0.0,0.0,0.0,1.0,4.32926845551,-1.8292683363,-2.25609779358,1.0,0.0,0.0,0.0,1.0,0.0,0.0,0.0,1.0,-1.30723410645,0.684741674805,-10.419565625,1.0,0.0,0.0,0.0,1.0,0.0,0.0,0.0,1.0
1463563795834339574,468,1463563795819167576,,4.479804039,-5.5029053688,-116.482223511,0.0101300003007,1.0,0.0,0.0,0.0,1.0,0.0,0.0,0.0,1.0,3.96341490746,-0.914634168148,-2.19512200356,1.0,0.0,0.0,0.0,1.0,0.0,0.0,0.0,1.0,-1.08696755371,0.679953271484,-10.3429511719,1.0,0.0,0.0,0.0,1.0,0.0,0.0,0.0,1.0
1463563795834884727,469,1463563795829305227,,4.42535257339,-5.48753786087,-116.471679688,0.010098000057,1.0,0.0,0.0,0.0,1.0,0.0,0.0,0.0,1.0,3.96341490746,0.0,-2.01219511032,1.0,0.0,0.0,0.0,1.0,0.0,0.0,0.0,1.0,-1.09654436035,0.727837304687,-10.3429511719,1.0,0.0,0.0,0.0,1.0,0.0,0.0,0.0,1.0
1463563795882174932,470,1463563795839604701,,4.36887454987,-5.47188138962,-116.459960938,0.0100750001147,1.0,0.0,0.0,0.0,1.0,0.0,0.0,0.0,1.0,3.35365867615,-0.243902444839,-1.8292683363,1.0,0.0,0.0,0.0,1.0,0.0,0.0,0.0,1.0,-1.04866025408,0.665588061523,-10.419565625,1.0,0.0,0.0,0.0,1.0,0.0,0.0,0.0,1.0
1463563795883358936,471,1463563795849757665,,4.3097114563,-5.44652557373,-116.447906494,0.0101100001484,1.0,0.0,0.0,0.0,1.0,0.0,0.0,0.0,1.0,2.86585378647,0.487804889679,-1.8292683363,1.0,0.0,0.0,0.0,1.0,0.0,0.0,0.0,1.0,-1.00077629395,0.627280834961,-10.3812583984,1.0,0.0,0.0,0.0,1.0,0.0,0.0,0.0,1.0
1463563795883436227,472,1463563795859596620,,4.24096155167,-5.42187166214,-116.427406311,0.010108999908,1.0,0.0,0.0,0.0,1.0,0.0,0.0,0.0,1.0,2.31707310677,0.670731723309,-1.03658533096,1.0,0.0,0.0,0.0,1.0,0.0,0.0,0.0,1.0,-1.03908344744,0.703895288086,-10.4578728516,1.0,0.0,0.0,0.0,1.0,0.0,0.0,0.0,1.0
1463563795883490549,473,1463563795871226555,,4.17648744583,-5.3931427002,-116.407875061,0.0101190004498,1.0,0.0,0.0,0.0,1.0,0.0,0.0,0.0,1.0,2.07317066193,1.15853655338,-1.09756100178,1.0,0.0,0.0,0.0,1.0,0.0,0.0,0.0,1.0,-1.03908344744,0.584185168546,-10.3237975586,1.0,0.0,0.0,0.0,1.0,0.0,0.0,0.0,1.0
1463563795885046009,474,1463563795880493952,,4.09718561172,-5.36237049103,-116.381896973,0.0101100001484,1.0,0.0,0.0,0.0,1.0,0.0,0.0,0.0,1.0,1.40243899822,1.46341466904,-0.548780500889,1.0,0.0,0.0,0.0,1.0,0.0,0.0,0.0,1.0,-1.04866025408,0.737414111328,-10.3668931885,1.0,0.0,0.0,0.0,1.0,0.0,0.0,0.0,1.0
1463563795908479160,475,1463563795890090512,,4.01362943649,-5.32607316971,-116.351905823,0.010098000057,1.0,0.0,0.0,0.0,1.0,0.0,0.0,0.0,1.0,1.2195122242,2.62195134163,-0.243902444839,1.0,0.0,0.0,0.0,1.0,0.0,0.0,0.0,1.0,-1.13963999023,0.785298144531,-10.2615483154,1.0,0.0,0.0,0.0,1.0,0.0,0.0,0.0,1.0
1463563795908530357,476,1463563795900228737,,3.93689513206,-5.28409576416,-116.3227005,0.010095000267,1.0,0.0,0.0,0.0,1.0,0.0,0.0,0.0,1.0,1.8902438879,2.56097555161,-0.304878056049,1.0,0.0,0.0,0.0,1.0,0.0,0.0,0.0,1.0,-1.01992990723,0.799663354492,-10.2615483154,1.0,0.0,0.0,0.0,1.0,0.0,0.0,0.0,1.0
1463563796836208246,477,1463563795910994406,,3.86347317696,-5.23748636246,-116.290794373,0.0101979998872,1.0,0.0,0.0,0.0,1.0,0.0,0.0,0.0,1.0,1.8902438879,3.17073178291,-0.0609756112099,1.0,0.0,0.0,0.0,1.0,0.0,0.0,0.0,1.0,-1.04866025408,0.737414111328,-10.285490332,1.0,0.0,0.0,0.0,1.0,0.0,0.0,0.0,1.0
1463563796836494338,478,1463563795920364875,,3.79622554779,-5.18959712982,-116.255569458,0.00997000001371,1.0,0.0,0.0,0.0,1.0,0.0,0.0,0.0,1.0,1.95121955872,3.59756112099,0.365853667259,1.0,0.0,0.0,0.0,1.0,0.0,0.0,0.0,1.0,-1.07739082014,0.675164868164,-10.3429511719,1.0,0.0,0.0,0.0,1.0,0.0,0.0,0.0,1.0
1463563796836760170,479,1463563795932038976,,3.73227620125,-5.13995599747,-116.222221375,0.0100990002975,1.0,0.0,0.0,0.0,1.0,0.0,0.0,0.0,1.0,1.8902438879,3.71951246262,0.18292683363,1.0,0.0,0.0,0.0,1.0,0.0,0.0,0.0,1.0,-1.08217922346,0.60812722168,-10.4243540283,1.0,0.0,0.0,0.0,1.0,0.0,0.0,0.0,1.0
1463563796837030741,480,1463563795941020540,,3.66394066811,-5.08903884888,-116.189369202,0.010108999908,1.0,0.0,0.0,0.0,1.0,0.0,0.0,0.0,1.0,1.52439022064,3.96341490746,0.12195122242,1.0,0.0,0.0,0.0,1.0,0.0,0.0,0.0,1.0,-1.08696755371,0.627280834961,-10.3285859619,1.0,0.0,0.0,0.0,1.0,0.0,0.0,0.0,1.0
1463563796837495426,481,1463563795950889391,,3.59147810936,-5.03437757492,-116.149940491,0.0100779999048,1.0,0.0,0.0,0.0,1.0,0.0,0.0,0.0,1.0,0.975609779358,4.20731735229,0.792682945728,1.0,0.0,0.0,0.0,1.0,0.0,0.0,0.0,1.0,-1.06302561017,0.61770402832,-10.5153336914,1.0,0.0,0.0,0.0,1.0,0.0,0.0,0.0,1.0
1463563796838638649,482,1463563795960822201,,3.51599168777,-4.97632074356,-116.107040405,0.0101250000298,1.0,0.0,0.0,0.0,1.0,0.0,0.0,0.0,1.0,0.731707334518,3.7804877758,1.15853655338,1.0,0.0,0.0,0.0,1.0,0.0,0.0,0.0,1.0,-0.895431420898,0.61770402832,-10.3285859619,1.0,0.0,0.0,0.0,1.0,0.0,0.0,0.0,1.0
1463563796840221765,483,1463563795970879228,,3.42917871475,-4.91970491409,-116.059906006,0.0101079996675,1.0,0.0,0.0,0.0,1.0,0.0,0.0,0.0,1.0,0.304878056049,4.02439022064,1.52439022064,1.0,0.0,0.0,0.0,1.0,0.0,0.0,0.0,1.0,-0.943315454102,0.751779321289,-10.2519715088,1.0,0.0,0.0,0.0,1.0,0.0,0.0,0.0,1.0
1463563796841025719,484,1463563795981125785,,3.35536170006,-4.87405967712,-116.011222839,0.010108999908,1.0,0.0,0.0,0.0,1.0,0.0,0.0,0.0,1.0,1.15853655338,3.35365867615,1.76829278469,1.0,0.0,0.0,0.0,1.0,0.0,0.0,0.0,1.0,-1.01992990723,0.694318481445,-10.3716815918,1.0,0.0,0.0,0.0,1.0,0.0,0.0,0.0,1.0
1463563796841690246,485,1463563795991460258,,3.30190873146,-4.82405424118,-115.969848633,0.0102329999208,1.0,0.0,0.0,0.0,1.0,0.0,0.0,0.0,1.0,1.95121955872,2.68292689323,1.15853655338,1.0,0.0,0.0,0.0,1.0,0.0,0.0,0.0,1.0,-0.818816967773,0.474051928711,-10.2567599121,1.0,0.0,0.0,0.0,1.0,0.0,0.0,0.0,1.0
1463563796842715553,486,1463563796001019111,,3.22553873062,-4.7818365097,-115.917617798,0.00994899962097,1.0,0.0,0.0,0.0,1.0,0.0,0.0,0.0,1.0,0.914634168148,2.68292689323,2.25609779358,1.0,0.0,0.0,0.0,1.0,0.0,0.0,0.0,1.0,-0.909796630859,0.723048901367,-10.1945106689,1.0,0.0,0.0,0.0,1.0,0.0,0.0,0.0,1.0
1463563796845355122,487,1463563796011203846,,3.16090106964,-4.749563694,-115.86164856,0.0101039996371,1.0,0.0,0.0,0.0,1.0,0.0,0.0,0.0,1.0,1.09756100178,2.07317066193,2.68292689323,1.0,0.0,0.0,0.0,1.0,0.0,0.0,0.0,1.0,-0.986411083984,0.536301208408,-10.2615483154,1.0,0.0,0.0,0.0,1.0,0.0,0.0,0.0,1.0
1463563796845826317,488,1463563796021524882,,3.08909630775,-4.71443605423,-115.805656433,0.0101079996675,1.0,0.0,0.0,0.0,1.0,0.0,0.0,0.0,1.0,0.670731723309,1.76829278469,2.68292689323,1.0,0.0,0.0,0.0,1.0,0.0,0.0,0.0,1.0,-0.881066210937,0.603338854892,-10.3381627686,1.0,0.0,0.0,0.0,1.0,0.0,0.0,0.0,1.0
1463563796846120586,489,1463563796031311963,,3.0046339035,-4.68602895737,-115.737464905,0.0101049998775,1.0,0.0,0.0,0.0,1.0,0.0,0.0,0.0,1.0,-0.548780500889,1.70731711388,3.90243911743,1.0,0.0,0.0,0.0,1.0,0.0,0.0,0.0,1.0,-0.962469067383,0.598550451572,-10.2040874756,1.0,0.0,0.0,0.0,1.0,0.0,0.0,0.0,1.0
1463563796846410116,490,1463563796041588103,,2.90574073792,-4.66518878937,-115.657485962,0.0100899999961,1.0,0.0,0.0,0.0,1.0,0.0,0.0,0.0,1.0,-0.670731723309,1.34146344662,5.0,1.0,0.0,0.0,0.0,1.0,0.0,0.0,0.0,1.0,-1.01514150391,0.837970581055,-10.180145459,1.0,0.0,0.0,0.0,1.0,0.0,0.0,0.0,1.0
1463563796846710739,491,1463563796052036535,,2.83460903168,-4.64381456375,-115.587493896,0.0101020000875,1.0,0.0,0.0,0.0,1.0,0.0,0.0,0.0,1.0,0.18292683363,1.70731711388,4.14634132385,1.0,0.0,0.0,0.0,1.0,0.0,0.0,0.0,1.0,-1.06781401349,0.517147558594,-10.0700121826,1.0,0.0,0.0,0.0,1.0,0.0,0.0,0.0,1.0
1463563796847016935,492,1463563796062383820,,2.76523089409,-4.62714385986,-115.51902771,0.0100959995762,1.0,0.0,0.0,0.0,1.0,0.0,0.0,0.0,1.0,0.426829278469,1.2195122242,4.02439022064,1.0,0.0,0.0,0.0,1.0,0.0,0.0,0.0,1.0,-1.06302561017,0.545877978516,-10.0748005859,1.0,0.0,0.0,0.0,1.0,0.0,0.0,0.0,1.0
1463563796847280163,493,1463563796071691737,,2.68444085121,-4.60391902924,-115.44719696,0.0100969998166,1.0,0.0,0.0,0.0,1.0,0.0,0.0,0.0,1.0,0.487804889679,1.15853655338,4.2682929039,1.0,0.0,0.0,0.0,1.0,0.0,0.0,0.0,1.0,-0.952892260742,0.785298144531,-10.3094323486,1.0,0.0,0.0,0.0,1.0,0.0,0.0,0.0,1.0
1463563796847546880,494,1463563796081845587,,2.6180934906,-4.57982969284,-115.378746033,0.0101039996371,1.0,0.0,0.0,0.0,1.0,0.0,0.0,0.0,1.0,1.40243899822,1.46341466904,3.96341490746,1.0,0.0,0.0,0.0,1.0,0.0,0.0,0.0,1.0,-0.972045874023,0.694318481445,-10.0843773926,1.0,0.0,0.0,0.0,1.0,0.0,0.0,0.0,1.0
1463563796848766144,495,1463563796092228810,,2.55982685089,-4.55785655975,-115.307258606,0.010111999698,1.0,0.0,0.0,0.0,1.0,0.0,0.0,0.0,1.0,2.31707310677,1.2195122242,4.2682929039,1.0,0.0,0.0,0.0,1.0,0.0,0.0,0.0,1.0,-0.981622680664,0.737414111328,-10.3046439453,1.0,0.0,0.0,0.0,1.0,0.0,0.0,0.0,1.0
1463563796849329058,496,1463563796102341045,,2.51450014114,-4.53812265396,-115.233184814,0.0101039996371,1.0,0.0,0.0,0.0,1.0,0.0,0.0,0.0,1.0,3.10975623131,1.2195122242,4.57317066193,1.0,0.0,0.0,0.0,1.0,0.0,0.0,0.0,1.0,-1.01035310059,0.651222851562,-10.2376062988,1.0,0.0,0.0,0.0,1.0,0.0,0.0,0.0,1.0
1463563796850916080,497,1463563796112318854,,2.47736907005,-4.51250886917,-115.156669617,0.0101389996707,1.0,0.0,0.0,0.0,1.0,0.0,0.0,0.0,1.0,3.47560977936,1.52439022064,4.81707286835,1.0,0.0,0.0,0.0,1.0,0.0,0.0,0.0,1.0,-0.952892260742,0.569819995117,-10.1945106689,1.0,0.0,0.0,0.0,1.0,0.0,0.0,0.0,1.0
1463563796851703784,498,1463563796122516818,,2.44381976128,-4.49258089066,-115.077362061,0.0100779999048,1.0,0.0,0.0,0.0,1.0,0.0,0.0,0.0,1.0,4.14634132385,1.40243899822,5.12195110321,1.0,0.0,0.0,0.0,1.0,0.0,0.0,0.0,1.0,-1.01992990723,0.632069238281,-10.1514150391,1.0,0.0,0.0,0.0,1.0,0.0,0.0,0.0,1.0
1463563796852417739,499,1463563796132701605,,2.41865587234,-4.47229194641,-114.997512817,0.0101190004498,1.0,0.0,0.0,0.0,1.0,0.0,0.0,0.0,1.0,4.75609779358,1.03658533096,5.18292713165,1.0,0.0,0.0,0.0,1.0,0.0,0.0,0.0,1.0,-0.943315454102,0.593762048251,-10.1274730225,1.0,0.0,0.0,0.0,1.0,0.0,0.0,0.0,1.0
1463563796854581737,500,1463563796142474779,,2.39910840988,-4.45443344116,-114.917831421,0.010048000142,1.0,0.0,0.0,0.0,1.0,0.0,0.0,0.0,1.0,4.87804889679,1.34146344662,5.24390268326,1.0,0.0,0.0,0.0,1.0,0.0,0.0,0.0,1.0,-1.04387185076,0.526724328702,-10.2040874756,1.0,0.0,0.0,0.0,1.0,0.0,0.0,0.0,1.0
1463563796855191890,501,1463563796152851440,,2.37626934052,-4.43846178055,-114.840019226,0.0101669998839,1.0,0.0,0.0,0.0,1.0,0.0,0.0,0.0,1.0,4.2682929039,1.2195122242,5.0,1.0,0.0,0.0,0.0,1.0,0.0,0.0,0.0,1.0,-1.04866025408,0.474051928711,-10.1083194092,1.0,0.0,0.0,0.0,1.0,0.0,0.0,0.0,1.0
1463563796855481628,502,1463563796162659041,,2.34880757332,-4.42341327667,-114.765518188,0.0100560002029,1.0,0.0,0.0,0.0,1.0,0.0,0.0,0.0,1.0,3.84146332741,1.15853655338,4.75609779358,1.0,0.0,0.0,0.0,1.0,0.0,0.0,0.0,1.0,-1.06302561017,0.497993945312,-10.2280294922,1.0,0.0,0.0,0.0,1.0,0.0,0.0,0.0,1.0
1463563796855750480,503,1463563796172772787,,2.31899595261,-4.41030597687,-114.695739746,0.0100790001452,1.0,0.0,0.0,0.0,1.0,0.0,0.0,0.0,1.0,3.10975623131,0.731707334518,4.32926845551,1.0,0.0,0.0,0.0,1.0,0.0,0.0,0.0,1.0,-1.01992990723,0.416591088867,-10.2040874756,1.0,0.0,0.0,0.0,1.0,0.0,0.0,0.0,1.0
1463563796856252613,504,1463563796183065802,,2.28055477142,-4.39263248444,-114.624794006,0.0101420003921,1.0,0.0,0.0,0.0,1.0,0.0,0.0,0.0,1.0,2.37804889679,0.914634168148,4.39024400711,1.0,0.0,0.0,0.0,1.0,0.0,0.0,0.0,1.0,-0.962469067383,0.435744702148,-10.1178962158,1.0,0.0,0.0,0.0,1.0,0.0,0.0,0.0,1.0
1463563796856574747,505,1463563796193194912,,2.23650240898,-4.38730621338,-114.557037354,0.0100849997252,1.0,0.0,0.0,0.0,1.0,0.0,0.0,0.0,1.0,2.43902444839,0.426829278469,4.08536577225,1.0,0.0,0.0,0.0,1.0,0.0,0.0,0.0,1.0,-1.09654436035,0.565031591797,-10.1466266357,1.0,0.0,0.0,0.0,1.0,0.0,0.0,0.0,1.0
1463563796856853391,506,1463563796203044284,,2.19695997238,-4.37521934509,-114.492156982,0.0100840004161,1.0,0.0,0.0,0.0,1.0,0.0,0.0,0.0,1.0,2.5,0.243902444839,3.84146332741,1.0,0.0,0.0,0.0,1.0,0.0,0.0,0.0,1.0,-0.938527050781,0.502782348633,-10.0891657959,1.0,0.0,0.0,0.0,1.0,0.0,0.0,0.0,1.0
1463563796857321253,507,1463563796213231727,,2.15844726562,-4.36318778992,-114.432670593,0.0100919995457,1.0,0.0,0.0,0.0,1.0,0.0,0.0,0.0,1.0,1.95121955872,0.243902444839,3.35365867615,1.0,0.0,0.0,0.0,1.0,0.0,0.0,0.0,1.0,-0.948103857422,0.402225878906,-10.1562034424,1.0,0.0,0.0,0.0,1.0,0.0,0.0,0.0,1.0
1463563796857979530,508,1463563796223318702,,2.11680960655,-4.35533857346,-114.376586914,0.0101330000907,1.0,0.0,0.0,0.0,1.0,0.0,0.0,0.0,1.0,1.8902438879,0.0,2.98780488968,1.0,0.0,0.0,0.0,1.0,0.0,0.0,0.0,1.0,-0.976834277344,0.45489831543,-10.1178962158,1.0,0.0,0.0,0.0,1.0,0.0,0.0,0.0,1.0
1463563796859135201,509,1463563796233333594,,2.06636333466,-4.35379171371,-114.32384491,0.0100729996338,1.0,0.0,0.0,0.0,1.0,0.0,0.0,0.0,1.0,1.2804877758,-0.365853667259,2.68292689323,1.0,0.0,0.0,0.0,1.0,0.0,0.0,0.0,1.0,-1.01992990723,0.517147558594,-10.0748005859,1.0,0.0,0.0,0.0,1.0,0.0,0.0,0.0,1.0
1463563796861032586,510,1463563796243370778,,2.01050186157,-4.35655784607,-114.272033691,0.0101100001484,1.0,0.0,0.0,0.0,1.0,0.0,0.0,0.0,1.0,1.03658533096,-0.609756112099,2.56097555161,1.0,0.0,0.0,0.0,1.0,0.0,0.0,0.0,1.0,-1.05823706072,0.579396801758,-10.1131078125,1.0,0.0,0.0,0.0,1.0,0.0,0.0,0.0,1.0
1463563796862141434,511,1463563796253495148,,1.94868707657,-4.35661125183,-114.220359802,0.0100990002975,1.0,0.0,0.0,0.0,1.0,0.0,0.0,0.0,1.0,0.426829278469,-0.792682945728,2.56097555161,1.0,0.0,0.0,0.0,1.0,0.0,0.0,0.0,1.0,-0.991199487305,0.593762048251,-10.2471831055,1.0,0.0,0.0,0.0,1.0,0.0,0.0,0.0,1.0
1463563796862770129,512,1463563796263891601,,1.90462994576,-4.35376405716,-114.175758362,0.0101570002735,1.0,0.0,0.0,0.0,1.0,0.0,0.0,0.0,1.0,1.52439022064,-0.792682945728,1.8902438879,1.0,0.0,0.0,0.0,1.0,0.0,0.0,0.0,1.0,-0.943315454102,0.488417138672,-10.2376062988,1.0,0.0,0.0,0.0,1.0,0.0,0.0,0.0,1.0
1463563796865329698,513,1463563796273918472,,1.86149024963,-4.34889316559,-114.137992859,0.010050999932,1.0,0.0,0.0,0.0,1.0,0.0,0.0,0.0,1.0,1.34146344662,-0.914634168148,1.2804877758,1.0,0.0,0.0,0.0,1.0,0.0,0.0,0.0,1.0,-0.881066210937,0.45968671875,-10.1609918457,1.0,0.0,0.0,0.0,1.0,0.0,0.0,0.0,1.0
1463563796865851518,514,1463563796283770031,,1.80902087688,-4.35621500015,-114.097618103,0.0100870002061,1.0,0.0,0.0,0.0,1.0,0.0,0.0,0.0,1.0,1.34146344662,-1.15853655338,1.46341466904,1.0,0.0,0.0,0.0,1.0,0.0,0.0,0.0,1.0,-1.04866025408,0.627280834961,-10.1035310059,1.0,0.0,0.0,0.0,1.0,0.0,0.0,0.0,1.0
1463563796866155422,515,1463563796294315597,,1.75602066517,-4.36210727692,-114.058135986,0.0101220002398,1.0,0.0,0.0,0.0,1.0,0.0,0.0,0.0,1.0,1.46341466904,-0.914634168148,1.34146344662,1.0,0.0,0.0,0.0,1.0,0.0,0.0,0.0,1.0,-1.06781401349,0.665588061523,-10.0891657959,1.0,0.0,0.0,0.0,1.0,0.0,0.0,0.0,1.0
1463563796866462400,516,1463563796304173198,,1.72065889835,-4.36806249619,-114.025802612,0.0100969998166,1.0,0.0,0.0,0.0,1.0,0.0,0.0,0.0,1.0,1.95121955872,-0.670731723309,0.731707334518,1.0,0.0,0.0,0.0,1.0,0.0,0.0,0.0,1.0,-1.10612116699,0.45489831543,-9.97903251953,1.0,0.0,0.0,0.0,1.0,0.0,0.0,0.0,1.0
1463563796866789742,517,1463563796314227048,,1.6743093729,-4.37578868866,-113.994728088,0.010106000118,1.0,0.0,0.0,0.0,1.0,0.0,0.0,0.0,1.0,1.64634156227,-0.731707334518,0.548780500889,1.0,0.0,0.0,0.0,1.0,0.0,0.0,0.0,1.0,-1.14921679688,0.612915625,-10.1609918457,1.0,0.0,0.0,0.0,1.0,0.0,0.0,0.0,1.0
1463563796867103959,518,1463563796324856937,,1.63896727562,-4.37586593628,-113.962806702,0.0100840004161,1.0,0.0,0.0,0.0,1.0,0.0,0.0,0.0,1.0,2.13414645195,-0.304878056049,0.670731723309,1.0,0.0,0.0,0.0,1.0,0.0,0.0,0.0,1.0,-1.08217922346,0.507570751953,-10.0843773926,1.0,0.0,0.0,0.0,1.0,0.0,0.0,0.0,1.0
1463563796867426665,519,1463563796334255322,,1.60587370396,-4.37157154083,-113.931159973,0.0100929997861,1.0,0.0,0.0,0.0,1.0,0.0,0.0,0.0,1.0,2.68292689323,0.0,0.609756112099,1.0,0.0,0.0,0.0,1.0,0.0,0.0,0.0,1.0,-1.08217922346,0.584185168546,-10.299855542,1.0,0.0,0.0,0.0,1.0,0.0,0.0,0.0,1.0
1463563796867877392,520,1463563796344603702,,1.57527422905,-4.36561870575,-113.905479431,0.0101159997284,1.0,0.0,0.0,0.0,1.0,0.0,0.0,0.0,1.0,2.31707310677,0.0609756112099,0.0609756112099,1.0,0.0,0.0,0.0,1.0,0.0,0.0,0.0,1.0,-1.0534486574,0.478840332031,-10.180145459,1.0,0.0,0.0,0.0,1.0,0.0,0.0,0.0,1.0
1463563796869224676,521,1463563796354793436,,1.54628205299,-4.36045694351,-113.88167572,0.0100880004466,1.0,0.0,0.0,0.0,1.0,0.0,0.0,0.0,1.0,2.43902444839,0.365853667259,-0.12195122242,1.0,0.0,0.0,0.0,1.0,0.0,0.0,0.0,1.0,-1.14921679688,0.493205541992,-10.419565625,1.0,0.0,0.0,0.0,1.0,0.0,0.0,0.0,1.0
1463563796870774563,522,1463563796364844682,,1.51140487194,-4.34688234329,-113.8543396,0.0101250000298,1.0,0.0,0.0,0.0,1.0,0.0,0.0,0.0,1.0,2.25609779358,0.609756112099,0.18292683363,1.0,0.0,0.0,0.0,1.0,0.0,0.0,0.0,1.0,-1.01992990723,0.555454785156,-10.2376062988,1.0,0.0,0.0,0.0,1.0,0.0,0.0,0.0,1.0
1463563796871282477,523,1463563796374723742,,1.48364555836,-4.3361992836,-113.828102112,0.0100840004161,1.0,0.0,0.0,0.0,1.0,0.0,0.0,0.0,1.0,2.56097555161,0.487804889679,0.12195122242,1.0,0.0,0.0,0.0,1.0,0.0,0.0,0.0,1.0,-1.04866025408,0.493205541992,-10.2519715088,1.0,0.0,0.0,0.0,1.0,0.0,0.0,0.0,1.0
1463563796872006587,524,1463563796385364255,,1.45472562313,-4.316655159,-113.80116272,0.0100919995457,1.0,0.0,0.0,0.0,1.0,0.0,0.0,0.0,1.0,2.43902444839,0.792682945728,0.18292683363,1.0,0.0,0.0,0.0,1.0,0.0,0.0,0.0,1.0,-0.938527050781,0.493205541992,-10.2136642822,1.0,0.0,0.0,0.0,1.0,0.0,0.0,0.0,1.0
1463563796874817093,525,1463563796394926858,,1.42559075356,-4.30076599121,-113.774124146,0.0100999996066,1.0,0.0,0.0,0.0,1.0,0.0,0.0,0.0,1.0,2.56097555161,0.792682945728,0.18292683363,1.0,0.0,0.0,0.0,1.0,0.0,0.0,0.0,1.0,-1.00556469727,0.526724328702,-10.2567599121,1.0,0.0,0.0,0.0,1.0,0.0,0.0,0.0,1.0
1463563796875360631,526,1463563796405018416,,1.40021467209,-4.27650403976,-113.75063324,0.0100999996066,1.0,0.0,0.0,0.0,1.0,0.0,0.0,0.0,1.0,3.10975623131,0.975609779358,-0.18292683363,1.0,0.0,0.0,0.0,1.0,0.0,0.0,0.0,1.0,-0.881066210937,0.565031591797,-10.1945106689,1.0,0.0,0.0,0.0,1.0,0.0,0.0,0.0,1.0
1463563796875650786,527,1463563796415123047,,1.38862633705,-4.25432538986,-113.729499817,0.0101260002702,1.0,0.0,0.0,0.0,1.0,0.0,0.0,0.0,1.0,3.90243911743,0.609756112099,-0.365853667259,1.0,0.0,0.0,0.0,1.0,0.0,0.0,0.0,1.0,-0.852335791016,0.469263525391,-10.2232410889,1.0,0.0,0.0,0.0,1.0,0.0,0.0,0.0,1.0
1463563796875930159,528,1463563796425801633,,1.36064004898,-4.23957872391,-113.698104858,0.0100910002366,1.0,0.0,0.0,0.0,1.0,0.0,0.0,0.0,1.0,3.7804877758,0.548780500889,0.548780500889,1.0,0.0,0.0,0.0,1.0,0.0,0.0,0.0,1.0,-0.957680664062,0.727837304687,-10.1370498291,1.0,0.0,0.0,0.0,1.0,0.0,0.0,0.0,1.0
1463563796876256980,529,1463563796435357205,,1.3362404108,-4.22192049026,-113.657531738,0.0101030003279,1.0,0.0,0.0,0.0,1.0,0.0,0.0,0.0,1.0,4.75609779358,0.792682945728,1.40243899822,1.0,0.0,0.0,0.0,1.0,0.0,0.0,0.0,1.0,-0.938527050781,0.828393774414,-10.0795889893,1.0,0.0,0.0,0.0,1.0,0.0,0.0,0.0,1.0
1463563796876612499,530,1463563796445687720,,1.33233165741,-4.20525312424,-113.611358643,0.0101070003584,1.0,0.0,0.0,0.0,1.0,0.0,0.0,0.0,1.0,5.97560977936,0.975609779358,2.01219511032,1.0,0.0,0.0,0.0,1.0,0.0,0.0,0.0,1.0,-1.00556469727,0.694318481445,-10.3046439453,1.0,0.0,0.0,0.0,1.0,0.0,0.0,0.0,1.0
1463563796876925414,531,1463563796455819643,,1.34593677521,-4.1841506958,-113.563201904,0.010095000267,1.0,0.0,0.0,0.0,1.0,0.0,0.0,0.0,1.0,7.13414621353,1.15853655338,2.25609779358,1.0,0.0,0.0,0.0,1.0,0.0,0.0,0.0,1.0,-0.943315454102,0.579396801758,-10.1897222656,1.0,0.0,0.0,0.0,1.0,0.0,0.0,0.0,1.0
1463563796877265048,532,1463563796465686723,,1.36065518856,-4.16423892975,-113.506233215,0.0100990002975,1.0,0.0,0.0,0.0,1.0,0.0,0.0,0.0,1.0,7.37804937363,1.34146344662,3.10975623131,1.0,0.0,0.0,0.0,1.0,0.0,0.0,0.0,1.0,-0.995987890625,0.593762048251,-10.2471831055,1.0,0.0,0.0,0.0,1.0,0.0,0.0,0.0,1.0
1463563796877938325,533,1463563796476072967,,1.38324141502,-4.14570951462,-113.445739746,0.0101509997621,1.0,0.0,0.0,0.0,1.0,0.0,0.0,0.0,1.0,7.62195110321,1.09756100178,3.47560977936,1.0,0.0,0.0,0.0,1.0,0.0,0.0,0.0,1.0,-0.967257470703,0.488417138672,-10.1897222656,1.0,0.0,0.0,0.0,1.0,0.0,0.0,0.0,1.0
1463563796878815195,534,1463563796486264889,,1.39796972275,-4.12452793121,-113.379455566,0.0100609995425,1.0,0.0,0.0,0.0,1.0,0.0,0.0,0.0,1.0,7.86585378647,1.2804877758,4.02439022064,1.0,0.0,0.0,0.0,1.0,0.0,0.0,0.0,1.0,-0.938527050781,0.656011254883,-10.1370498291,1.0,0.0,0.0,0.0,1.0,0.0,0.0,0.0,1.0
1463563796879675243,535,1463563796496020460,,1.42242312431,-4.10386371613,-113.31652832,0.0101030003279,1.0,0.0,0.0,0.0,1.0,0.0,0.0,0.0,1.0,8.84146404266,1.52439022064,3.65853667259,1.0,0.0,0.0,0.0,1.0,0.0,0.0,0.0,1.0,-0.995987890625,0.665588061523,-10.1897222656,1.0,0.0,0.0,0.0,1.0,0.0,0.0,0.0,1.0
1463563796881194609,536,1463563796506240715,,1.45823645592,-4.07891845703,-113.25378418,0.0101169999689,1.0,0.0,0.0,0.0,1.0,0.0,0.0,0.0,1.0,10.3658542633,1.76829278469,3.59756112099,1.0,0.0,0.0,0.0,1.0,0.0,0.0,0.0,1.0,-0.962469067383,0.737414111328,-10.2184526855,1.0,0.0,0.0,0.0,1.0,0.0,0.0,0.0,1.0
1463563796881921949,537,1463563796516425137,,1.51405000687,-4.05095291138,-113.189361572,0.0100720003247,1.0,0.0,0.0,0.0,1.0,0.0,0.0,0.0,1.0,12.5,1.8292683363,3.7804877758,1.0,0.0,0.0,0.0,1.0,0.0,0.0,0.0,1.0,-0.909796630859,0.751779321289,-10.2088758789,1.0,0.0,0.0,0.0,1.0,0.0,0.0,0.0,1.0
1463563796882862568,538,1463563796526351071,,1.58995568752,-4.02037143707,-113.124938965,0.0101229995489,1.0,0.0,0.0,0.0,1.0,0.0,0.0,0.0,1.0,14.6951217651,2.13414645195,3.71951246262,1.0,0.0,0.0,0.0,1.0,0.0,0.0,0.0,1.0,-0.9193734375,0.790086547852,-10.2615483154,1.0,0.0,0.0,0.0,1.0,0.0,0.0,0.0,1.0
1463563796884977296,539,1463563796536491119,,1.69109892845,-3.99498915672,-113.059425354,0.0100910002366,1.0,0.0,0.0,0.0,1.0,0.0,0.0,0.0,1.0,16.5853652954,1.76829278469,3.90243911743,1.0,0.0,0.0,0.0,1.0,0.0,0.0,0.0,1.0,-0.9193734375,0.646434448242,-10.0700121826,1.0,0.0,0.0,0.0,1.0,0.0,0.0,0.0,1.0
1463563796885506512,540,1463563796546584812,,1.81280386448,-3.97006797791,-112.996826172,0.0101039996371,1.0,0.0,0.0,0.0,1.0,0.0,0.0,0.0,1.0,17.7439022064,1.8902438879,3.65853667259,1.0,0.0,0.0,0.0,1.0,0.0,0.0,0.0,1.0,-0.957680664062,0.483628735352,-10.2088758789,1.0,0.0,0.0,0.0,1.0,0.0,0.0,0.0,1.0
1463563796885795156,541,1463563796557384335,,1.95274043083,-3.94056892395,-112.935089111,0.0102369999513,1.0,0.0,0.0,0.0,1.0,0.0,0.0,0.0,1.0,20.3048782349,2.13414645195,3.41463422775,1.0,0.0,0.0,0.0,1.0,0.0,0.0,0.0,1.0,-0.92416184082,0.636857641602,-10.2471831055,1.0,0.0,0.0,0.0,1.0,0.0,0.0,0.0,1.0
1463563796886082707,542,1463563796566693919,,2.10855984688,-3.90674352646,-112.878074646,0.00994099956006,1.0,0.0,0.0,0.0,1.0,0.0,0.0,0.0,1.0,22.4390239716,1.8902438879,3.10975623131,1.0,0.0,0.0,0.0,1.0,0.0,0.0,0.0,1.0,-0.77093293457,0.632069238281,-10.1466266357,1.0,0.0,0.0,0.0,1.0,0.0,0.0,0.0,1.0
1463563796886444476,543,1463563796577723232,,2.28942799568,-3.88158106804,-112.818138123,0.0101209999993,1.0,0.0,0.0,0.0,1.0,0.0,0.0,0.0,1.0,25.4878044128,1.8902438879,3.23170733452,1.0,0.0,0.0,0.0,1.0,0.0,0.0,0.0,1.0,-0.92416184082,0.756567724609,-10.1226846191,1.0,0.0,0.0,0.0,1.0,0.0,0.0,0.0,1.0
1463563796886861296,544,1463563796586902660,,2.50597310066,-3.85674190521,-112.765457153,0.0100840004161,1.0,0.0,0.0,0.0,1.0,0.0,0.0,0.0,1.0,30.1829280853,2.13414645195,2.43902444839,1.0,0.0,0.0,0.0,1.0,0.0,0.0,0.0,1.0,-0.976834277344,0.938527050781,-10.1945106689,1.0,0.0,0.0,0.0,1.0,0.0,0.0,0.0,1.0
1463563796887197805,545,1463563796597025572,,2.77089929581,-3.83072519302,-112.714805603,0.0101020000875,1.0,0.0,0.0,0.0,1.0,0.0,0.0,0.0,1.0,35.1219520569,2.31707310677,2.19512200356,1.0,0.0,0.0,0.0,1.0,0.0,0.0,0.0,1.0,-1.00077629395,0.952892260742,-10.3764699951,1.0,0.0,0.0,0.0,1.0,0.0,0.0,0.0,1.0
1463563796887723323,546,1463563796607321244,,3.15695142746,-3.80207824707,-112.65827179,0.010098000057,1.0,0.0,0.0,0.0,1.0,0.0,0.0,0.0,1.0,42.5609779358,2.74390244484,3.04878044128,1.0,0.0,0.0,0.0,1.0,0.0,0.0,0.0,1.0,-0.986411083984,0.0478840332031,-10.0843773926,1.0,0.0,0.0,0.0,1.0,0.0,0.0,0.0,1.0
1463563796888329934,547,1463563796617949830,,3.49848532677,-3.76691007614,-112.592498779,0.0101309996098,1.0,0.0,0.0,0.0,1.0,0.0,0.0,0.0,1.0,43.2926864624,3.17073178291,3.53658556938,1.0,0.0,0.0,0.0,1.0,0.0,0.0,0.0,1.0,-0.957680664062,0.943315454102,-10.3860468018,1.0,0.0,0.0,0.0,1.0,0.0,0.0,0.0,1.0
1463563796889683937,548,1463563796627319309,,3.89577627182,-3.7219684124,-112.515724182,0.0100750001147,1.0,0.0,0.0,0.0,1.0,0.0,0.0,0.0,1.0,47.2560958862,3.10975623131,4.75609779358,1.0,0.0,0.0,0.0,1.0,0.0,0.0,0.0,1.0,-0.742202514648,0.541089611728,-10.4722380615,1.0,0.0,0.0,0.0,1.0,0.0,0.0,0.0,1.0
1463563796891590541,549,1463563796637409096,,4.31465959549,-3.69070482254,-112.425498962,0.0101349996403,1.0,0.0,0.0,0.0,1.0,0.0,0.0,0.0,1.0,50.6097564697,3.17073178291,5.91463422775,1.0,0.0,0.0,0.0,1.0,0.0,0.0,0.0,1.0,-0.948103857422,0.708683691406,-10.180145459,1.0,0.0,0.0,0.0,1.0,0.0,0.0,0.0,1.0
1463563796892238922,550,1463563796647643102,,4.78126907349,-3.66117405891,-112.32421875,0.0100870002061,1.0,0.0,0.0,0.0,1.0,0.0,0.0,0.0,1.0,53.8414649963,3.17073178291,7.13414621353,1.0,0.0,0.0,0.0,1.0,0.0,0.0,0.0,1.0,-0.943315454102,0.31124621582,-10.1897222656,1.0,0.0,0.0,0.0,1.0,0.0,0.0,0.0,1.0
1463563796894475889,551,1463563796657530859,,5.26128864288,-3.63921689987,-112.210502625,0.0100819999352,1.0,0.0,0.0,0.0,1.0,0.0,0.0,0.0,1.0,56.4634132385,2.80487799644,8.29268264771,1.0,0.0,0.0,0.0,1.0,0.0,0.0,0.0,1.0,-0.962469067383,0.440533105469,-10.0700121826,1.0,0.0,0.0,0.0,1.0,0.0,0.0,0.0,1.0
1463563796895132864,552,1463563796667891739,,5.76751995087,-3.60250306129,-112.077255249,0.0101030003279,1.0,0.0,0.0,0.0,1.0,0.0,0.0,0.0,1.0,60.5487823486,3.53658556938,10.0,1.0,0.0,0.0,0.0,1.0,0.0,0.0,0.0,1.0,-0.833182177734,0.660799658203,-10.7547538574,1.0,0.0,0.0,0.0,1.0,0.0,0.0,0.0,1.0
1463563796895434738,553,1463563796677790069,,6.32789993286,-3.59216666222,-111.925704956,0.0101079996675,1.0,0.0,0.0,0.0,1.0,0.0,0.0,0.0,1.0,66.5853652954,4.45121955872,11.6463422775,1.0,0.0,0.0,0.0,1.0,0.0,0.0,0.0,1.0,-1.37427175293,0.656011254883,-10.2184526855,1.0,0.0,0.0,0.0,1.0,0.0,0.0,0.0,1.0
1463563796895721351,554,1463563796688148709,,6.94465446472,-3.57978177071,-111.765380859,0.0100940000266,1.0,0.0,0.0,0.0,1.0,0.0,0.0,0.0,1.0,75.9756088257,6.09756088257,12.0731716156,1.0,0.0,0.0,0.0,1.0,0.0,0.0,0.0,1.0,-1.61848032227,1.26413847656,-10.3381627686,1.0,0.0,0.0,0.0,1.0,0.0,0.0,0.0,1.0
1463563796896028120,555,1463563796698523182,,7.68554735184,-3.53621530533,-111.592857361,0.010095000267,1.0,0.0,0.0,0.0,1.0,0.0,0.0,0.0,1.0,85.9146347046,9.02439117432,12.9878053665,1.0,0.0,0.0,0.0,1.0,0.0,0.0,0.0,1.0,-1.49877023926,0.675164868164,-10.1705686523,1.0,0.0,0.0,0.0,1.0,0.0,0.0,0.0,1.0
1463563796896321191,556,1463563796708714375,,8.51253986359,-3.47988772392,-111.397186279,0.0101370001212,1.0,0.0,0.0,0.0,1.0,0.0,0.0,0.0,1.0,93.7804870605,11.2195119858,14.8170728683,1.0,0.0,0.0,0.0,1.0,0.0,0.0,0.0,1.0,-1.5322890625,0.450109912109,-9.90720646973,1.0,0.0,0.0,0.0,1.0,0.0,0.0,0.0,1.0
1463563796896606710,557,1463563796718387498,,9.41330623627,-3.39290475845,-111.16947937,0.0100649995729,1.0,0.0,0.0,0.0,1.0,0.0,0.0,0.0,1.0,100.243904114,12.6829271317,17.8658542633,1.0,0.0,0.0,0.0,1.0,0.0,0.0,0.0,1.0,-1.09654436035,0.00478840332031,-9.91199487305,1.0,0.0,0.0,0.0,1.0,0.0,0.0,0.0,1.0
1463563796896944834,558,1463563796728541660,,10.3842792511,-3.31786322594,-110.908866882,0.0101199997589,1.0,0.0,0.0,0.0,1.0,0.0,0.0,0.0,1.0,105.182929993,12.5609760284,20.975610733,1.0,0.0,0.0,0.0,1.0,0.0,0.0,0.0,1.0,-1.12527478027,-0.450109912109,-9.94072529297,1.0,0.0,0.0,0.0,1.0,0.0,0.0,0.0,1.0
1463563796897616549,559,1463563796738437646,,11.3951787949,-3.24761533737,-110.619125366,0.0100859999657,1.0,0.0,0.0,0.0,1.0,0.0,0.0,0.0,1.0,108.658538818,13.7195129395,23.658536911,1.0,0.0,0.0,0.0,1.0,0.0,0.0,0.0,1.0,-1.28329208984,-0.823605371094,-10.3764699951,1.0,0.0,0.0,0.0,1.0,0.0,0.0,0.0,1.0
1463563796898085660,560,1463563796748518371,,12.4623985291,-3.19659852982,-110.301605225,0.0101340003312,1.0,0.0,0.0,0.0,1.0,0.0,0.0,0.0,1.0,110.487808228,13.9634151459,26.2804889679,1.0,0.0,0.0,0.0,1.0,0.0,0.0,0.0,1.0,-1.45567460937,-1.59932670898,-10.1035310059,1.0,0.0,0.0,0.0,1.0,0.0,0.0,0.0,1.0
1463563796898423419,561,1463563796758734564,,13.5022354126,-3.14464330673,-109.966018677,0.0100760003552,1.0,0.0,0.0,0.0,1.0,0.0,0.0,0.0,1.0,111.463417053,15.3658533096,27.6219520569,1.0,0.0,0.0,0.0,1.0,0.0,0.0,0.0,1.0,-1.54186586914,-1.26892687988,-10.3573163818,1.0,0.0,0.0,0.0,1.0,0.0,0.0,0.0,1.0
1463563796900022525,562,1463563796768741800,,14.5754413605,-3.0780339241,-109.60584259,0.0100870002061,1.0,0.0,0.0,0.0,1.0,0.0,0.0,0.0,1.0,113.475616455,17.1951217651,29.5121974945,1.0,0.0,0.0,0.0,1.0,0.0,0.0,0.0,1.0,-1.36948334961,-1.66636435547,-10.1178962158,1.0,0.0,0.0,0.0,1.0,0.0,0.0,0.0,1.0
1463563796901909493,563,1463563796779100388,,15.6574840546,-2.9898223877,-109.216201782,0.0101070003584,1.0,0.0,0.0,0.0,1.0,0.0,0.0,0.0,1.0,113.292678833,17.9268302917,32.0731697083,1.0,0.0,0.0,0.0,1.0,0.0,0.0,0.0,1.0,-0.833182177734,-1.98239897461,-9.81622680664,1.0,0.0,0.0,0.0,1.0,0.0,0.0,0.0,1.0
1463563796902885425,564,1463563796788860021,,16.7509326935,-2.90975689888,-108.813323975,0.0101079996675,1.0,0.0,0.0,0.0,1.0,0.0,0.0,0.0,1.0,113.902442932,16.0975608826,33.7804870605,1.0,0.0,0.0,0.0,1.0,0.0,0.0,0.0,1.0,-0.435744702148,-2.26012636719,-9.7587659668,1.0,0.0,0.0,0.0,1.0,0.0,0.0,0.0,1.0
1463563796905131038,565,1463563796799046110,,17.8826751709,-2.86847734451,-108.406517029,0.0100959995762,1.0,0.0,0.0,0.0,1.0,0.0,0.0,0.0,1.0,115.548782349,12.8048782349,35.2439041138,1.0,0.0,0.0,0.0,1.0,0.0,0.0,0.0,1.0,-0.339976635742,-2.90656081543,-9.85932243652,1.0,0.0,0.0,0.0,1.0,0.0,0.0,0.0,1.0
1463563796905700670,566,1463563796809037512,,18.9936313629,-2.8838493824,-107.992637634,0.0100919995457,1.0,0.0,0.0,0.0,1.0,0.0,0.0,0.0,1.0,113.963417053,9.5731716156,37.0121955872,1.0,0.0,0.0,0.0,1.0,0.0,0.0,0.0,1.0,-0.569819995117,-3.1364041748,-10.1609918457,1.0,0.0,0.0,0.0,1.0,0.0,0.0,0.0,1.0
1463563796905973741,567,1463563796819255528,,20.0755386353,-2.93065190315,-107.583740234,0.0101169999689,1.0,0.0,0.0,0.0,1.0,0.0,0.0,0.0,1.0,111.036590576,8.59756088257,36.7682952881,1.0,0.0,0.0,0.0,1.0,0.0,0.0,0.0,1.0,-0.876277807617,-3.38540114746,-10.3956236084,1.0,0.0,0.0,0.0,1.0,0.0,0.0,0.0,1.0
1463563796906241813,568,1463563796830067707,,21.1003017426,-2.9895503521,-107.16481781,0.010156000033,1.0,0.0,0.0,0.0,1.0,0.0,0.0,0.0,1.0,106.036590576,9.20731735229,37.4390220642,1.0,0.0,0.0,0.0,1.0,0.0,0.0,0.0,1.0,-1.02950671387,-3.39018955078,-10.3429511719,1.0,0.0,0.0,0.0,1.0,0.0,0.0,0.0,1.0
1463563796906524624,569,1463563796839530050,,22.0643310547,-3.04906845093,-106.751487732,0.0100239999592,1.0,0.0,0.0,0.0,1.0,0.0,0.0,0.0,1.0,107.317077637,9.08536529541,37.1951255798,1.0,0.0,0.0,0.0,1.0,0.0,0.0,0.0,1.0,-0.857124194336,-2.29843359375,-9.88326445312,1.0,0.0,0.0,0.0,1.0,0.0,0.0,0.0,1.0
1463563796906830924,570,1463563796849727545,,23.0702857971,-3.15678477287,-106.323242188,0.0101600000635,1.0,0.0,0.0,0.0,1.0,0.0,0.0,0.0,1.0,99.9390335083,4.69512224197,40.6707344055,1.0,0.0,0.0,0.0,1.0,0.0,0.0,0.0,1.0,-0.612915625,-4.18506420969,-9.15542714844,1.0,0.0,0.0,0.0,1.0,0.0,0.0,0.0,1.0
1463563796907120714,571,1463563796859625303,,23.9935836792,-3.25347304344,-105.910820007,0.010053999722,1.0,0.0,0.0,0.0,1.0,0.0,0.0,0.0,1.0,94.4512176514,3.17073178291,40.1829299927,1.0,0.0,0.0,0.0,1.0,0.0,0.0,0.0,1.0,-0.119710083008,-4.14675698313,-9.37090471333,1.0,0.0,0.0,0.0,1.0,0.0,0.0,0.0,1.0
1463563796907918991,572,1463563796869958578,,24.8799781799,-3.40390586853,-105.504089355,0.0101180002093,1.0,0.0,0.0,0.0,1.0,0.0,0.0,0.0,1.0,89.3902435303,-1.8292683363,41.8292694092,1.0,0.0,0.0,0.0,1.0,0.0,0.0,0.0,1.0,-0.0239420166016,-4.38138903809,-9.11233151855,1.0,0.0,0.0,0.0,1.0,0.0,0.0,0.0,1.0
1463563796908369613,573,1463563796880404249,,25.6851482391,-3.59353590012,-105.112930298,0.0100929997861,1.0,0.0,0.0,0.0,1.0,0.0,0.0,0.0,1.0,83.7195129395,-4.45121955872,41.6463432312,1.0,0.0,0.0,0.0,1.0,0.0,0.0,0.0,1.0,-0.234631762695,-4.14675698313,-9.13627353516,1.0,0.0,0.0,0.0,1.0,0.0,0.0,0.0,1.0
1463563796908977787,574,1463563796890221850,,26.4446754456,-3.83084416389,-104.735336304,0.0100889997557,1.0,0.0,0.0,0.0,1.0,0.0,0.0,0.0,1.0,79.5731735229,-6.70731735229,41.5853652954,1.0,0.0,0.0,0.0,1.0,0.0,0.0,0.0,1.0,-0.665588061523,-4.26167924734,-9.1697923584,1.0,0.0,0.0,0.0,1.0,0.0,0.0,0.0,1.0
1463563798027266433,575,1463563796900455543,,27.1580162048,-4.10689783096,-104.364433289,0.0101169999689,1.0,0.0,0.0,0.0,1.0,0.0,0.0,0.0,1.0,75.0609817505,-8.96341514587,42.1951255798,1.0,0.0,0.0,0.0,1.0,0.0,0.0,0.0,1.0,-0.847547387695,-4.16112219309,-8.71010563965,1.0,0.0,0.0,0.0,1.0,0.0,0.0,0.0,1.0
1463563798027533671,576,1463563796910704132,,27.8202362061,-4.38511705399,-104.004867554,0.0100880004466,1.0,0.0,0.0,0.0,1.0,0.0,0.0,0.0,1.0,71.158531189,-8.29268264771,40.9756088257,1.0,0.0,0.0,0.0,1.0,0.0,0.0,0.0,1.0,-1.09175595703,-4.22337143625,-8.90643017578,1.0,0.0,0.0,0.0,1.0,0.0,0.0,0.0,1.0
1463563798027804139,577,1463563796920961001,,28.4594936371,-4.68510341644,-103.646026611,0.0101070003584,1.0,0.0,0.0,0.0,1.0,0.0,0.0,0.0,1.0,67.2560958862,-9.45121955872,41.8902435303,1.0,0.0,0.0,0.0,1.0,0.0,0.0,0.0,1.0,-1.20188930646,-4.65432773508,-8.84896933594,1.0,0.0,0.0,0.0,1.0,0.0,0.0,0.0,1.0
1463563798028085543,578,1463563796930788603,,29.0476989746,-4.95736217499,-103.298812866,0.0100999996066,1.0,0.0,0.0,0.0,1.0,0.0,0.0,0.0,1.0,62.5,-8.35365867615,40.3048782349,1.0,0.0,0.0,0.0,1.0,0.0,0.0,0.0,1.0,-1.01035310059,-4.73094218821,-8.82023891602,1.0,0.0,0.0,0.0,1.0,0.0,0.0,0.0,1.0
1463563798028361167,579,1463563796941272242,,29.6078929901,-5.2235121727,-102.983985901,0.0100910002366,1.0,0.0,0.0,0.0,1.0,0.0,0.0,0.0,1.0,59.5121994019,-8.29268264771,36.9512214661,1.0,0.0,0.0,0.0,1.0,0.0,0.0,0.0,1.0,-1.19231249982,-4.82192243582,-8.71968244629,1.0,0.0,0.0,0.0,1.0,0.0,0.0,0.0,1.0
1463563798028635228,580,1463563796950662919,,30.1354541779,-5.47346401215,-102.681602478,0.0101330000907,1.0,0.0,0.0,0.0,1.0,0.0,0.0,0.0,1.0,55.182926178,-8.59756088257,35.9146347046,1.0,0.0,0.0,0.0,1.0,0.0,0.0,0.0,1.0,-0.909796630859,-4.94163222656,-8.41801245259,1.0,0.0,0.0,0.0,1.0,0.0,0.0,0.0,1.0
1463563798033042703,581,1463563796961588170,,30.6327457428,-5.74410772324,-102.369140625,0.0108099998906,1.0,0.0,0.0,0.0,1.0,0.0,0.0,0.0,1.0,49.2682914734,-8.47560977936,35.0000038147,1.0,0.0,0.0,0.0,1.0,0.0,0.0,0.0,1.0,-1.07739082014,-5.03740029297,-8.43716606587,1.0,0.0,0.0,0.0,1.0,0.0,0.0,0.0,1.0
1463563798033488951,582,1463563796970903535,,31.0097904205,-5.97804641724,-102.10912323,0.00938900001347,1.0,0.0,0.0,0.0,1.0,0.0,0.0,0.0,1.0,44.1463432312,-8.47560977936,33.7195129395,1.0,0.0,0.0,0.0,1.0,0.0,0.0,0.0,1.0,-1.17315874041,-4.97036264648,-8.40364724263,1.0,0.0,0.0,0.0,1.0,0.0,0.0,0.0,1.0
1463563798033817282,583,1463563796981501288,,31.3648929596,-6.21291732788,-101.846626282,0.0101049998775,1.0,0.0,0.0,0.0,1.0,0.0,0.0,0.0,1.0,40.4878044128,-8.35365867615,31.6463413239,1.0,0.0,0.0,0.0,1.0,0.0,0.0,0.0,1.0,-1.10133276367,-4.83149924246,-8.53293530132,1.0,0.0,0.0,0.0,1.0,0.0,0.0,0.0,1.0
1463563798034131707,584,1463563796991865032,,31.6863079071,-6.41788959503,-101.61113739,0.0101340003312,1.0,0.0,0.0,0.0,1.0,0.0,0.0,0.0,1.0,37.1951255798,-7.43902492523,27.9878063202,1.0,0.0,0.0,0.0,1.0,0.0,0.0,0.0,1.0,-1.06302561017,-4.85065256348,-8.56166572124,1.0,0.0,0.0,0.0,1.0,0.0,0.0,0.0,1.0
1463563798034420195,585,1463563797003317312,,32.0013885498,-6.62837409973,-101.398406982,0.0108540002257,1.0,0.0,0.0,0.0,1.0,0.0,0.0,0.0,1.0,32.5,-7.43902492523,24.0853652954,1.0,0.0,0.0,0.0,1.0,0.0,0.0,0.0,1.0,-1.35511813965,-5.39653054199,-8.78193168945,1.0,0.0,0.0,0.0,1.0,0.0,0.0,0.0,1.0
1463563798034717069,586,1463563797011540235,,32.2234115601,-6.78054094315,-101.219520569,0.00946000032127,1.0,0.0,0.0,0.0,1.0,0.0,0.0,0.0,1.0,27.682926178,-5.54878091812,22.0731716156,1.0,0.0,0.0,0.0,1.0,0.0,0.0,0.0,1.0,-1.23540805664,-5.22414802246,-8.65743378765,1.0,0.0,0.0,0.0,1.0,0.0,0.0,0.0,1.0
1463563798034982953,587,1463563797021975958,,32.4300422668,-6.93331623077,-101.051544189,0.0104679996148,1.0,0.0,0.0,0.0,1.0,0.0,0.0,0.0,1.0,22.9878044128,-4.63414621353,18.2926826477,1.0,0.0,0.0,0.0,1.0,0.0,0.0,0.0,1.0,-1.49877023926,-5.40131894531,-8.63828017437,1.0,0.0,0.0,0.0,1.0,0.0,0.0,0.0,1.0
1463563798039701937,588,1463563797031769445,,32.5669670105,-7.03713798523,-100.912826538,0.00958899967372,1.0,0.0,0.0,0.0,1.0,0.0,0.0,0.0,1.0,17.5000019073,-3.7804877758,15.9146347046,1.0,0.0,0.0,0.0,1.0,0.0,0.0,0.0,1.0,-1.17315874041,-5.31512768555,-8.47547329243,1.0,0.0,0.0,0.0,1.0,0.0,0.0,0.0,1.0
1463563798040099070,589,1463563797042498343,,32.6766319275,-7.12638235092,-100.781829834,0.0104679996148,1.0,0.0,0.0,0.0,1.0,0.0,0.0,0.0,1.0,12.9878053665,-1.8902438879,12.5,1.0,0.0,0.0,0.0,1.0,0.0,0.0,0.0,1.0,-1.40300217285,-5.46356818848,-8.49941647808,1.0,0.0,0.0,0.0,1.0,0.0,0.0,0.0,1.0
1463563798040441047,590,1463563797051775374,,32.7348060608,-7.19013118744,-100.670410156,0.00974499993026,1.0,0.0,0.0,0.0,1.0,0.0,0.0,0.0,1.0,8.35365867615,-1.09756100178,10.7317075729,1.0,0.0,0.0,0.0,1.0,0.0,0.0,0.0,1.0,-1.31202250977,-5.32470449219,-8.24563051758,1.0,0.0,0.0,0.0,1.0,0.0,0.0,0.0,1.0
1463563798040768754,591,1463563797062054640,,32.734336853,-7.23330259323,-100.563278198,0.010095000267,1.0,0.0,0.0,0.0,1.0,0.0,0.0,0.0,1.0,3.7804877758,0.731707334518,8.35365867615,1.0,0.0,0.0,0.0,1.0,0.0,0.0,0.0,1.0,-1.4844050293,-5.33428129883,-8.76277807617,1.0,0.0,0.0,0.0,1.0,0.0,0.0,0.0,1.0
1463563798041052033,592,1463563797072589633,,32.6922149658,-7.24968910217,-100.462997437,0.0101870000362,1.0,0.0,0.0,0.0,1.0,0.0,0.0,0.0,1.0,-0.548780500889,2.01219511032,6.64634132385,1.0,0.0,0.0,0.0,1.0,0.0,0.0,0.0,1.0,-1.34075292969,-5.24330163574,-8.56166572124,1.0,0.0,0.0,0.0,1.0,0.0,0.0,0.0,1.0
1463563798046106380,593,1463563797082006872,,32.6119041443,-7.24390363693,-100.377204895,0.00998700037599,1.0,0.0,0.0,0.0,1.0,0.0,0.0,0.0,1.0,-3.47560977936,3.04878044128,4.32926845551,1.0,0.0,0.0,0.0,1.0,0.0,0.0,0.0,1.0,-1.34075292969,-5.09007272949,-8.71968244629,1.0,0.0,0.0,0.0,1.0,0.0,0.0,0.0,1.0
1463563798046533826,594,1463563797092612698,,32.5106925964,-7.2096657753,-100.304443359,0.0102190002799,1.0,0.0,0.0,0.0,1.0,0.0,0.0,0.0,1.0,-6.58536624908,4.51219558716,1.8292683363,1.0,0.0,0.0,0.0,1.0,0.0,0.0,0.0,1.0,-1.29286889648,-5.18105239258,-8.528146898,1.0,0.0,0.0,0.0,1.0,0.0,0.0,0.0,1.0
1463563798046876845,595,1463563797102369935,,32.38671875,-7.16203451157,-100.24621582,0.0100199999288,1.0,0.0,0.0,0.0,1.0,0.0,0.0,0.0,1.0,-8.59756088257,4.93902444839,-0.0609756112099,1.0,0.0,0.0,0.0,1.0,0.0,0.0,0.0,1.0,-1.31681091309,-5.20020600586,-8.8154505127,1.0,0.0,0.0,0.0,1.0,0.0,0.0,0.0,1.0
1463563798047180228,596,1463563797116481732,,32.2530021667,-7.08704853058,-100.19442749,0.010050999932,1.0,0.0,0.0,0.0,1.0,0.0,0.0,0.0,1.0,-10.4878053665,6.64634132385,-1.76829278469,1.0,0.0,0.0,0.0,1.0,0.0,0.0,0.0,1.0,-1.22104284668,-5.2097828125,-8.56645412456,1.0,0.0,0.0,0.0,1.0,0.0,0.0,0.0,1.0
1463563798047460956,597,1463563797123296069,,32.0908737183,-6.99373245239,-100.16204834,0.010658999905,1.0,0.0,0.0,0.0,1.0,0.0,0.0,0.0,1.0,-12.1341466904,6.89024400711,-4.45121955872,1.0,0.0,0.0,0.0,1.0,0.0,0.0,0.0,1.0,-1.32159931641,-5.31033928223,-8.96867941895,1.0,0.0,0.0,0.0,1.0,0.0,0.0,0.0,1.0
1463563798047743558,598,1463563797132509038,,31.9119586945,-6.9078168869,-100.129325867,0.00958499964327,1.0,0.0,0.0,0.0,1.0,0.0,0.0,0.0,1.0,-14.8780498505,6.52439069748,-3.84146332741,1.0,0.0,0.0,0.0,1.0,0.0,0.0,0.0,1.0,-1.10133276367,-4.96557424316,-8.67658681641,1.0,0.0,0.0,0.0,1.0,0.0,0.0,0.0,1.0
1463563798048003974,599,1463563797142739085,,31.6982116699,-6.81225728989,-100.090995789,0.0100589999929,1.0,0.0,0.0,0.0,1.0,0.0,0.0,0.0,1.0,-15.3048791885,7.13414621353,-4.02439022064,1.0,0.0,0.0,0.0,1.0,0.0,0.0,0.0,1.0,-1.13006318359,-4.73573059153,-9.1219083252,1.0,0.0,0.0,0.0,1.0,0.0,0.0,0.0,1.0
1463563798052339887,600,1463563797152812987,,31.5110054016,-6.72044897079,-100.071662903,0.0101579995826,1.0,0.0,0.0,0.0,1.0,0.0,0.0,0.0,1.0,-14.3292694092,6.15853643417,-5.36585378647,1.0,0.0,0.0,0.0,1.0,0.0,0.0,0.0,1.0,-1.20667770978,-5.08049592285,-9.21288798828,1.0,0.0,0.0,0.0,1.0,0.0,0.0,0.0,1.0
1463563798052740093,601,1463563797162747983,,31.324886322,-6.61736011505,-100.056999207,0.0100710000843,1.0,0.0,0.0,0.0,1.0,0.0,0.0,0.0,1.0,-14.3292694092,6.64634132385,-6.15853643417,1.0,0.0,0.0,0.0,1.0,0.0,0.0,0.0,1.0,-1.11569797363,-5.00866987305,-9.193734375,1.0,0.0,0.0,0.0,1.0,0.0,0.0,0.0,1.0
1463563798053081185,602,1463563797172836781,,31.1149940491,-6.52431678772,-100.03768158,0.0100999996066,1.0,0.0,0.0,0.0,1.0,0.0,0.0,0.0,1.0,-14.8170728683,5.79268312454,-5.30487823486,1.0,0.0,0.0,0.0,1.0,0.0,0.0,0.0,1.0,-1.03908344744,-4.56334836426,-9.11711992188,1.0,0.0,0.0,0.0,1.0,0.0,0.0,0.0,1.0
1463563798053383631,603,1463563797183047401,,30.9322795868,-6.42753362656,-100.018089294,0.0101779997349,1.0,0.0,0.0,0.0,1.0,0.0,0.0,0.0,1.0,-13.7804880142,5.18292713165,-4.63414621353,1.0,0.0,0.0,0.0,1.0,0.0,0.0,0.0,1.0,-0.823605371094,-4.87459458008,-9.08360109863,1.0,0.0,0.0,0.0,1.0,0.0,0.0,0.0,1.0
1463563798053673890,604,1463563797193203699,,30.7470912933,-6.35364580154,-100.000068665,0.0100119998679,1.0,0.0,0.0,0.0,1.0,0.0,0.0,0.0,1.0,-14.2682924271,3.65853667259,-3.84146332741,1.0,0.0,0.0,0.0,1.0,0.0,0.0,0.0,1.0,-0.866701000977,-4.74530798269,-8.93994899902,1.0,0.0,0.0,0.0,1.0,0.0,0.0,0.0,1.0
1463563798053973367,605,1463563797203095310,,30.5481338501,-6.28944683075,-99.9765930176,0.010156000033,1.0,0.0,0.0,0.0,1.0,0.0,0.0,0.0,1.0,-14.1463422775,2.80487799644,-2.86585378647,1.0,0.0,0.0,0.0,1.0,0.0,0.0,0.0,1.0,-0.833182177734,-4.59207878418,-9.17458076172,1.0,0.0,0.0,0.0,1.0,0.0,0.0,0.0,1.0
1463563798057681628,606,1463563797218609182,,30.2772369385,-6.23065376282,-99.9413223267,0.0153790004551,1.0,0.0,0.0,0.0,1.0,0.0,0.0,0.0,1.0,-12.0121955872,1.2195122242,-1.95121955872,1.0,0.0,0.0,0.0,1.0,0.0,0.0,0.0,1.0,-0.948103857422,-4.5489831543,-9.23683000488,1.0,0.0,0.0,0.0,1.0,0.0,0.0,0.0,1.0
1463563798058050063,607,1463563797226719241,,30.1584911346,-6.21393060684,-99.9266281128,0.00691299978644,1.0,0.0,0.0,0.0,1.0,0.0,0.0,0.0,1.0,-11.0975618362,0.18292683363,-1.58536589146,1.0,0.0,0.0,0.0,1.0,0.0,0.0,0.0,1.0,-1.00077629395,-4.43884987793,-9.33259748677,1.0,0.0,0.0,0.0,1.0,0.0,0.0,0.0,1.0
1463563798058393239,608,1463563797240825047,,29.9968795776,-6.20218276978,-99.9038314819,0.011106999591,1.0,0.0,0.0,0.0,1.0,0.0,0.0,0.0,1.0,-9.51219558716,-0.670731723309,-1.03658533096,1.0,0.0,0.0,0.0,1.0,0.0,0.0,0.0,1.0,-1.0534486574,-4.54419475098,-9.16500395508,1.0,0.0,0.0,0.0,1.0,0.0,0.0,0.0,1.0
1463563798058748914,609,1463563797249911663,,29.8758220673,-6.19971418381,-99.8888015747,0.00920199975371,1.0,0.0,0.0,0.0,1.0,0.0,0.0,0.0,1.0,-8.78048801422,-1.15853655338,-1.15853655338,1.0,0.0,0.0,0.0,1.0,0.0,0.0,0.0,1.0,-1.13485158691,-4.63517441406,-9.16021555176,1.0,0.0,0.0,0.0,1.0,0.0,0.0,0.0,1.0
1463563798059275161,610,1463563797256692146,,29.7685127258,-6.20060443878,-99.874420166,0.00843000039458,1.0,0.0,0.0,0.0,1.0,0.0,0.0,0.0,1.0,-8.47560977936,-1.40243899822,-0.914634168148,1.0,0.0,0.0,0.0,1.0,0.0,0.0,0.0,1.0,-1.14921679688,-4.66390454172,-9.21288798828,1.0,0.0,0.0,0.0,1.0,0.0,0.0,0.0,1.0
1463563798059688231,611,1463563797263556378,,29.6452484131,-6.19769239426,-99.8638000488,0.00953099969774,1.0,0.0,0.0,0.0,1.0,0.0,0.0,0.0,1.0,-8.71951198578,-1.52439022064,-1.52439022064,1.0,0.0,0.0,0.0,1.0,0.0,0.0,0.0,1.0,-1.11090957031,-4.64475092844,-9.22725319824,1.0,0.0,0.0,0.0,1.0,0.0,0.0,0.0,1.0
1463563798059998282,612,1463563797274352151,,29.5082054138,-6.20344305038,-99.8562545776,0.0101570002735,1.0,0.0,0.0,0.0,1.0,0.0,0.0,0.0,1.0,-9.02439117432,-2.43902444839,-1.46341466904,1.0,0.0,0.0,0.0,1.0,0.0,0.0,0.0,1.0,-1.13006318359,-4.6208092041,-9.35175110005,1.0,0.0,0.0,0.0,1.0,0.0,0.0,0.0,1.0
1463563798060307186,613,1463563797284029649,,29.3688163757,-6.20762681961,-99.8542404175,0.0100389998406,1.0,0.0,0.0,0.0,1.0,0.0,0.0,0.0,1.0,-8.71951198578,-2.62195134163,-2.07317066193,1.0,0.0,0.0,0.0,1.0,0.0,0.0,0.0,1.0,-1.11090957031,-4.40054265137,-9.27513723145,1.0,0.0,0.0,0.0,1.0,0.0,0.0,0.0,1.0
1463563798060590726,614,1463563797294245686,,29.2383899689,-6.22203779221,-99.8589096069,0.010108999908,1.0,0.0,0.0,0.0,1.0,0.0,0.0,0.0,1.0,-8.35365867615,-3.41463422775,-2.31707310677,1.0,0.0,0.0,0.0,1.0,0.0,0.0,0.0,1.0,-1.1875240965,-4.44842668457,-9.20331118164,1.0,0.0,0.0,0.0,1.0,0.0,0.0,0.0,1.0
1463563798060877339,615,1463563797304390369,,29.1101074219,-6.23385667801,-99.8659439087,0.0101359998807,1.0,0.0,0.0,0.0,1.0,0.0,0.0,0.0,1.0,-8.17073154449,-3.65853667259,-2.43902444839,1.0,0.0,0.0,0.0,1.0,0.0,0.0,0.0,1.0,-1.10612116699,-4.40054265137,-9.14106193848,1.0,0.0,0.0,0.0,1.0,0.0,0.0,0.0,1.0
1463563798061180410,616,1463563797314506771,,28.9975280762,-6.24610996246,-99.8784484863,0.0100459996611,1.0,0.0,0.0,0.0,1.0,0.0,0.0,0.0,1.0,-7.50000047684,-3.53658556938,-3.04878044128,1.0,0.0,0.0,0.0,1.0,0.0,0.0,0.0,1.0,-1.1875240965,-4.48194550781,-9.06444748535,1.0,0.0,0.0,0.0,1.0,0.0,0.0,0.0,1.0
1463563798061464159,617,1463563797325096035,,28.8846931458,-6.25499248505,-99.8958435059,0.0101290000603,1.0,0.0,0.0,0.0,1.0,0.0,0.0,0.0,1.0,-7.01219511032,-3.84146332741,-3.47560977936,1.0,0.0,0.0,0.0,1.0,0.0,0.0,0.0,1.0,-1.11569797363,-4.38617744141,-9.10754311523,1.0,0.0,0.0,0.0,1.0,0.0,0.0,0.0,1.0
1463563798061748897,618,1463563797335308425,,28.7864933014,-6.26724481583,-99.915687561,0.0100929997861,1.0,0.0,0.0,0.0,1.0,0.0,0.0,0.0,1.0,-6.64634132385,-3.35365867615,-3.90243911743,1.0,0.0,0.0,0.0,1.0,0.0,0.0,0.0,1.0,-1.2976572998,-4.5489831543,-9.06923588867,1.0,0.0,0.0,0.0,1.0,0.0,0.0,0.0,1.0
1463563798062017854,619,1463563797344557801,,28.6744365692,-6.27456951141,-99.9404983521,0.0100889997557,1.0,0.0,0.0,0.0,1.0,0.0,0.0,0.0,1.0,-7.19512224197,-3.35365867615,-4.57317066193,1.0,0.0,0.0,0.0,1.0,0.0,0.0,0.0,1.0,-1.28808049316,-4.45800349121,-9.28950185688,1.0,0.0,0.0,0.0,1.0,0.0,0.0,0.0,1.0
1463563798062283061,620,1463563797354797796,,28.5662746429,-6.28430891037,-99.9744110107,0.0101600000635,1.0,0.0,0.0,0.0,1.0,0.0,0.0,0.0,1.0,-7.19512224197,-3.41463422775,-5.48780488968,1.0,0.0,0.0,0.0,1.0,0.0,0.0,0.0,1.0,-1.38863696289,-4.45321508789,-9.17458076172,1.0,0.0,0.0,0.0,1.0,0.0,0.0,0.0,1.0
1463563798062555455,621,1463563797365410340,,28.4470405579,-6.27955007553,-100.018638611,0.0103820003569,1.0,0.0,0.0,0.0,1.0,0.0,0.0,0.0,1.0,-7.86585378647,-2.25609779358,-7.19512224197,1.0,0.0,0.0,0.0,1.0,0.0,0.0,0.0,1.0,-1.4604630127,-4.37660063477,-9.17458076172,1.0,0.0,0.0,0.0,1.0,0.0,0.0,0.0,1.0
1463563798062867589,622,1463563797375527055,,28.3399467468,-6.26711750031,-100.068351746,0.00976799987257,1.0,0.0,0.0,0.0,1.0,0.0,0.0,0.0,1.0,-8.23170757294,-2.31707310677,-7.98780536652,1.0,0.0,0.0,0.0,1.0,0.0,0.0,0.0,1.0,-1.37427175293,-4.50588752441,-9.15542714844,1.0,0.0,0.0,0.0,1.0,0.0,0.0,0.0,1.0
1463563798063160660,623,1463563797385590540,,28.2141819,-6.2371468544,-100.131790161,0.0100840004161,1.0,0.0,0.0,0.0,1.0,0.0,0.0,0.0,1.0,-10.0609760284,-2.5,-9.20731735229,1.0,0.0,0.0,0.0,1.0,0.0,0.0,0.0,1.0,-1.13006318359,-4.49631071777,-9.09796630859,1.0,0.0,0.0,0.0,1.0,0.0,0.0,0.0,1.0
1463563798063444044,624,1463563797395498141,,28.0626525879,-6.20856380463,-100.197219849,0.0101669998839,1.0,0.0,0.0,0.0,1.0,0.0,0.0,0.0,1.0,-12.6219520569,-2.19512200356,-9.51219558716,1.0,0.0,0.0,0.0,1.0,0.0,0.0,0.0,1.0,-1.23540805664,-4.52982954102,-9.1697923584,1.0,0.0,0.0,0.0,1.0,0.0,0.0,0.0,1.0
1463563798063759875,625,1463563797405367253,,27.8860015869,-6.17588472366,-100.268386841,0.0100549999624,1.0,0.0,0.0,0.0,1.0,0.0,0.0,0.0,1.0,-15.548781395,-2.56097555161,-10.0,1.0,0.0,0.0,0.0,1.0,0.0,0.0,0.0,1.0,-1.13485158691,-4.55855996094,-9.20809958496,1.0,0.0,0.0,0.0,1.0,0.0,0.0,0.0,1.0
1463563798064099665,626,1463563797415579018,,27.6742992401,-6.14314365387,-100.350906372,0.010095000267,1.0,0.0,0.0,0.0,1.0,0.0,0.0,0.0,1.0,-19.3902435303,-3.17073178291,-10.8536586761,1.0,0.0,0.0,0.0,1.0,0.0,0.0,0.0,1.0,-1.09654436035,-4.56813676758,-9.16500395508,1.0,0.0,0.0,0.0,1.0,0.0,0.0,0.0,1.0
1463563798064428882,627,1463563797425856357,,27.4075279236,-6.10347557068,-100.437301636,0.0101399999112,1.0,0.0,0.0,0.0,1.0,0.0,0.0,0.0,1.0,-24.5731716156,-2.98780488968,-11.341463089,1.0,0.0,0.0,0.0,1.0,0.0,0.0,0.0,1.0,-1.03908344744,-4.52982954102,-9.25119521484,1.0,0.0,0.0,0.0,1.0,0.0,0.0,0.0,1.0
1463563798064727734,628,1463563797435627552,,27.0965099335,-6.09151935577,-100.530380249,0.0102800000459,1.0,0.0,0.0,0.0,1.0,0.0,0.0,0.0,1.0,-29.6341457367,-4.57317066193,-10.9756097794,1.0,0.0,0.0,0.0,1.0,0.0,0.0,0.0,1.0,-1.23061965332,-4.62559760742,-9.11711992188,1.0,0.0,0.0,0.0,1.0,0.0,0.0,0.0,1.0
1463563798065012316,629,1463563797445688850,,26.7429580688,-6.07051277161,-100.628898621,0.00989000033587,1.0,0.0,0.0,0.0,1.0,0.0,0.0,0.0,1.0,-34.7560997009,-3.41463422775,-12.6219520569,1.0,0.0,0.0,0.0,1.0,0.0,0.0,0.0,1.0,-1.36469494629,-4.48673391113,-9.15542714844,1.0,0.0,0.0,0.0,1.0,0.0,0.0,0.0,1.0
1463563798065320283,630,1463563797455612961,,26.3343448639,-6.04401111603,-100.743621826,0.0101479999721,1.0,0.0,0.0,0.0,1.0,0.0,0.0,0.0,1.0,-39.6951217651,-3.47560977936,-14.0243902206,1.0,0.0,0.0,0.0,1.0,0.0,0.0,0.0,1.0,-1.35032973633,-4.42927307129,-9.06444748535,1.0,0.0,0.0,0.0,1.0,0.0,0.0,0.0,1.0
1463563798065628302,631,1463563797465838321,,25.8383178711,-6.04386854172,-100.869598389,0.0100630000234,1.0,0.0,0.0,0.0,1.0,0.0,0.0,0.0,1.0,-44.0853652954,-2.13414645195,-16.5853652954,1.0,0.0,0.0,0.0,1.0,0.0,0.0,0.0,1.0,-2.18351191406,-3.48116921387,-9.23683000488,1.0,0.0,0.0,0.0,1.0,0.0,0.0,0.0,1.0
1463563798065917311,632,1463563797475941858,,25.3675689697,-5.96965408325,-101.027862549,0.0100899999961,1.0,0.0,0.0,0.0,1.0,0.0,0.0,0.0,1.0,-48.0487823486,-3.41463422775,-18.5975627899,1.0,0.0,0.0,0.0,1.0,0.0,0.0,0.0,1.0,-0.814028564453,-4.47236870117,-8.90164177246,1.0,0.0,0.0,0.0,1.0,0.0,0.0,0.0,1.0
1463563798066195278,633,1463563797485910240,,24.8085765839,-5.91602897644,-101.18321228,0.0100880004466,1.0,0.0,0.0,0.0,1.0,0.0,0.0,0.0,1.0,-52.2560997009,-2.62195134163,-19.1463432312,1.0,0.0,0.0,0.0,1.0,0.0,0.0,0.0,1.0,-1.31681091309,-3.69664736328,-9.34217429341,1.0,0.0,0.0,0.0,1.0,0.0,0.0,0.0,1.0
1463563798066473870,634,1463563797496298359,,24.2436733246,-5.86996173859,-101.35382843,0.0101020000875,1.0,0.0,0.0,0.0,1.0,0.0,0.0,0.0,1.0,-54.0853652954,-2.92682933807,-20.4268302917,1.0,0.0,0.0,0.0,1.0,0.0,0.0,0.0,1.0,-1.46525141602,-3.80678063965,-9.31344387349,1.0,0.0,0.0,0.0,1.0,0.0,0.0,0.0,1.0
1463563798066758348,635,1463563797506363251,,23.6654624939,-5.79339694977,-101.536682129,0.0100940000266,1.0,0.0,0.0,0.0,1.0,0.0,0.0,0.0,1.0,-56.5243911743,-0.975609779358,-22.4390239716,1.0,0.0,0.0,0.0,1.0,0.0,0.0,0.0,1.0,-1.34554133301,-3.86424147949,-9.25598361816,1.0,0.0,0.0,0.0,1.0,0.0,0.0,0.0,1.0
1463563798067049596,636,1463563797516248560,,23.0493602753,-5.72691345215,-101.733680725,0.0100999996066,1.0,0.0,0.0,0.0,1.0,0.0,0.0,0.0,1.0,-59.9390258789,-2.19512200356,-23.3536586761,1.0,0.0,0.0,0.0,1.0,0.0,0.0,0.0,1.0,-1.35990654297,-3.7493197998,-9.44751916645,1.0,0.0,0.0,0.0,1.0,0.0,0.0,0.0,1.0
1463563798067314699,637,1463563797526518555,,22.3913879395,-5.64724588394,-101.926086426,0.0101420003921,1.0,0.0,0.0,0.0,1.0,0.0,0.0,0.0,1.0,-62.2560997009,-1.40243899822,-23.1707324982,1.0,0.0,0.0,0.0,1.0,0.0,0.0,0.0,1.0,-1.20188930646,-3.41413156738,-9.63426806499,1.0,0.0,0.0,0.0,1.0,0.0,0.0,0.0,1.0
1463563798067602875,638,1463563797536974955,,21.726436615,-5.57130670547,-102.139045715,0.010095000267,1.0,0.0,0.0,0.0,1.0,0.0,0.0,0.0,1.0,-65.0,-2.25609779358,-24.817073822,1.0,0.0,0.0,0.0,1.0,0.0,0.0,0.0,1.0,-1.16358193377,-3.52905324707,-9.46188437642,1.0,0.0,0.0,0.0,1.0,0.0,0.0,0.0,1.0
1463563798067843811,639,1463563797547269949,,21.0333576202,-5.49725532532,-102.358299255,0.0100840004161,1.0,0.0,0.0,0.0,1.0,0.0,0.0,0.0,1.0,-67.3170776367,-2.80487799644,-25.2439041138,1.0,0.0,0.0,0.0,1.0,0.0,0.0,0.0,1.0,-1.05823706072,-3.27526787109,-9.40921193989,1.0,0.0,0.0,0.0,1.0,0.0,0.0,0.0,1.0
1463563798068117299,640,1463563797557205206,,20.3260231018,-5.42005348206,-102.589393616,0.0100889997557,1.0,0.0,0.0,0.0,1.0,0.0,0.0,0.0,1.0,-69.3902435303,-3.35365867615,-26.0975627899,1.0,0.0,0.0,0.0,1.0,0.0,0.0,0.0,1.0,-0.928950244141,-3.3470939209,-9.65342167827,1.0,0.0,0.0,0.0,1.0,0.0,0.0,0.0,1.0
1463563798068382662,641,1463563797567580513,,19.5839424133,-5.36955213547,-102.835319519,0.010150000453,1.0,0.0,0.0,0.0,1.0,0.0,0.0,0.0,1.0,-71.4634170532,-5.06097555161,-26.8902454376,1.0,0.0,0.0,0.0,1.0,0.0,0.0,0.0,1.0,-1.09654436035,-3.02148249512,-9.66778688823,1.0,0.0,0.0,0.0,1.0,0.0,0.0,0.0,1.0
1463563798068694223,642,1463563797577092335,,18.8364810944,-5.3199801445,-103.100494385,0.0100560002029,1.0,0.0,0.0,0.0,1.0,0.0,0.0,0.0,1.0,-73.0487823486,-5.97560977936,-28.7195110321,1.0,0.0,0.0,0.0,1.0,0.0,0.0,0.0,1.0,-1.01035310059,-2.98317526855,-9.8784760498,1.0,0.0,0.0,0.0,1.0,0.0,0.0,0.0,1.0
1463563798068968388,643,1463563797586983008,,18.0781116486,-5.28377151489,-103.388893127,0.0101030003279,1.0,0.0,0.0,0.0,1.0,0.0,0.0,0.0,1.0,-75.7926864624,-6.7682929039,-30.4878044128,1.0,0.0,0.0,0.0,1.0,0.0,0.0,0.0,1.0,-1.14921679688,-3.16992299805,-9.80665,1.0,0.0,0.0,0.0,1.0,0.0,0.0,0.0,1.0
1463563798069245990,644,1463563797597308315,,17.2720241547,-5.2488656044,-103.691574097,0.0101300003007,1.0,0.0,0.0,0.0,1.0,0.0,0.0,0.0,1.0,-80.7317123413,-7.37804937363,-31.5853652954,1.0,0.0,0.0,0.0,1.0,0.0,0.0,0.0,1.0,-1.03429511719,-3.04542451172,-9.67257470703,1.0,0.0,0.0,0.0,1.0,0.0,0.0,0.0,1.0
1463563798069608488,645,1463563797607332686,,16.4114570618,-5.22958230972,-104.012504578,0.010208000429,1.0,0.0,0.0,0.0,1.0,0.0,0.0,0.0,1.0,-85.5487823486,-7.74390268326,-33.0487823486,1.0,0.0,0.0,0.0,1.0,0.0,0.0,0.0,1.0,-1.27850368652,-2.97838686523,-9.97903251953,1.0,0.0,0.0,0.0,1.0,0.0,0.0,0.0,1.0
1463563798069918070,646,1463563797617652056,,15.4919939041,-5.21824359894,-104.348876953,0.0103550003842,1.0,0.0,0.0,0.0,1.0,0.0,0.0,0.0,1.0,-89.9390258789,-8.41463470459,-33.9024391174,1.0,0.0,0.0,0.0,1.0,0.0,0.0,0.0,1.0,-1.24019645996,-2.7581203125,-9.90720646973,1.0,0.0,0.0,0.0,1.0,0.0,0.0,0.0,1.0
1463563798070194579,647,1463563797627373356,,14.5801038742,-5.20683145523,-104.675643921,0.00970800034702,1.0,0.0,0.0,0.0,1.0,0.0,0.0,0.0,1.0,-93.4146347046,-8.59756088257,-35.1829299927,1.0,0.0,0.0,0.0,1.0,0.0,0.0,0.0,1.0,-1.15879360352,-2.28885678711,-10.0508585693,1.0,0.0,0.0,0.0,1.0,0.0,0.0,0.0,1.0
1463563798070485254,648,1463563797637956578,,13.5963907242,-5.19259595871,-105.035728455,0.0102030001581,1.0,0.0,0.0,0.0,1.0,0.0,0.0,0.0,1.0,-97.2561035156,-9.26829242706,-36.5243911743,1.0,0.0,0.0,0.0,1.0,0.0,0.0,0.0,1.0,-0.986411083984,-2.42293208008,-10.3668931885,1.0,0.0,0.0,0.0,1.0,0.0,0.0,0.0,1.0
1463563798070763169,649,1463563797648352249,,12.5626354218,-5.20306777954,-105.415000916,0.0102530000731,1.0,0.0,0.0,0.0,1.0,0.0,0.0,0.0,1.0,-103.841468811,-11.0975618362,-37.6219520569,1.0,0.0,0.0,0.0,1.0,0.0,0.0,0.0,1.0,-1.05823706072,-2.67671745605,-10.5632177246,1.0,0.0,0.0,0.0,1.0,0.0,0.0,0.0,1.0
1463563798071035980,650,1463563797658202923,,11.5064153671,-5.21287202835,-105.795326233,0.00988500006497,1.0,0.0,0.0,0.0,1.0,0.0,0.0,0.0,1.0,-112.012199402,-12.1341466904,-38.7195129395,1.0,0.0,0.0,0.0,1.0,0.0,0.0,0.0,1.0,-0.775721337891,-2.87304199219,-10.5680061279,1.0,0.0,0.0,0.0,1.0,0.0,0.0,0.0,1.0
1463563798071305406,651,1463563797668385366,,10.3160095215,-5.25985717773,-106.191520691,0.0100579997525,1.0,0.0,0.0,0.0,1.0,0.0,0.0,0.0,1.0,-122.743904114,-14.2073173523,-39.390247345,1.0,0.0,0.0,0.0,1.0,0.0,0.0,0.0,1.0,-0.981622680664,-2.51870014648,-10.6972930176,1.0,0.0,0.0,0.0,1.0,0.0,0.0,0.0,1.0
1463563798071595092,652,1463563797679996447,,8.73547935486,-5.34092855453,-106.680992126,0.0120890000835,1.0,0.0,0.0,0.0,1.0,0.0,0.0,0.0,1.0,-131.463409424,-15.0000009537,-40.8536605835,1.0,0.0,0.0,0.0,1.0,0.0,0.0,0.0,1.0,-1.06781401349,-1.51313544922,-10.5632177246,1.0,0.0,0.0,0.0,1.0,0.0,0.0,0.0,1.0
1463563798071908371,653,1463563797688207599,,7.62372589111,-5.41258430481,-107.020568848,0.0082019995898,1.0,0.0,0.0,0.0,1.0,0.0,0.0,0.0,1.0,-134.634155273,-15.975610733,-41.9512214661,1.0,0.0,0.0,0.0,1.0,0.0,0.0,0.0,1.0,-1.14921679688,-0.895431420898,-10.7834842773,1.0,0.0,0.0,0.0,1.0,0.0,0.0,0.0,1.0
1463563798072191286,654,1463563797698137908,,6.24349403381,-5.50591611862,-107.448455811,0.0100039998069,1.0,0.0,0.0,0.0,1.0,0.0,0.0,0.0,1.0,-135.60975647,-16.9512195587,-43.5365867615,1.0,0.0,0.0,0.0,1.0,0.0,0.0,0.0,1.0,-0.962469067383,-0.373495458984,-10.9319247803,1.0,0.0,0.0,0.0,1.0,0.0,0.0,0.0,1.0
1463563798072471285,655,1463563797708422069,,4.85055446625,-5.63083744049,-107.891517639,0.0101450001821,1.0,0.0,0.0,0.0,1.0,0.0,0.0,0.0,1.0,-136.280487061,-18.2926826477,-44.4512176514,1.0,0.0,0.0,0.0,1.0,0.0,0.0,0.0,1.0,-1.1540052002,-0.344765039063,-11.2814782227,1.0,0.0,0.0,0.0,1.0,0.0,0.0,0.0,1.0
1463563798072767117,656,1463563797718388264,,3.45284676552,-5.77576065063,-108.331069946,0.0100779999048,1.0,0.0,0.0,0.0,1.0,0.0,0.0,0.0,1.0,-136.158538818,-17.5000019073,-44.9390258789,1.0,0.0,0.0,0.0,1.0,0.0,0.0,0.0,1.0,-1.5322890625,0.258573779297,-11.1857101562,1.0,0.0,0.0,0.0,1.0,0.0,0.0,0.0,1.0
1463563798073068469,657,1463563797728436020,,2.07494544983,-5.92425441742,-108.762176514,0.0101030003279,1.0,0.0,0.0,0.0,1.0,0.0,0.0,0.0,1.0,-134.268295288,-16.4634151459,-44.3292694092,1.0,0.0,0.0,0.0,1.0,0.0,0.0,0.0,1.0,-1.63284553223,0.45968671875,-11.3054202393,1.0,0.0,0.0,0.0,1.0,0.0,0.0,0.0,1.0
1463563798073353520,658,1463563797739964289,,0.701814472675,-6.04512119293,-109.165885925,0.0101309996098,1.0,0.0,0.0,0.0,1.0,0.0,0.0,0.0,1.0,-132.073165894,-13.9024391174,-42.0121955872,1.0,0.0,0.0,0.0,1.0,0.0,0.0,0.0,1.0,-1.37427175293,0.948103857422,-11.0899420898,1.0,0.0,0.0,0.0,1.0,0.0,0.0,0.0,1.0
1463563798073645705,659,1463563797749070176,,-0.690762877464,-6.17472648621,-109.551322937,0.0103169996291,1.0,0.0,0.0,0.0,1.0,0.0,0.0,0.0,1.0,-127.926834106,-14.0853662491,-40.1829299927,1.0,0.0,0.0,0.0,1.0,0.0,0.0,0.0,1.0,-1.28329208984,1.89141931152,-10.9606552002,1.0,0.0,0.0,0.0,1.0,0.0,0.0,0.0,1.0
1463563798073944350,660,1463563797758557883,,-1.95825231075,-6.2771396637,-109.889518738,0.00984199997038,1.0,0.0,0.0,0.0,1.0,0.0,0.0,0.0,1.0,-121.219512939,-13.4146347046,-37.5,1.0,0.0,0.0,0.0,1.0,0.0,0.0,0.0,1.0,-0.895431420898,2.32237546422,-11.4873795654,1.0,0.0,0.0,0.0,1.0,0.0,0.0,0.0,1.0
1463563798074260962,661,1463563797768928971,,-3.11033535004,-6.39166164398,-110.221351624,0.0101100001484,1.0,0.0,0.0,0.0,1.0,0.0,0.0,0.0,1.0,-110.548782349,-13.658536911,-35.7926826477,1.0,0.0,0.0,0.0,1.0,0.0,0.0,0.0,1.0,-0.895431420898,1.62326872559,-11.1330377197,1.0,0.0,0.0,0.0,1.0,0.0,0.0,0.0,1.0
1463563798074625023,662,1463563797779723963,,-4.24814891815,-6.50850296021,-110.526535034,0.0102549996227,1.0,0.0,0.0,0.0,1.0,0.0,0.0,0.0,1.0,-104.268295288,-14.6341466904,-33.4146347046,1.0,0.0,0.0,0.0,1.0,0.0,0.0,0.0,1.0,-0.660799658203,2.57616098633,-11.5879360352,1.0,0.0,0.0,0.0,1.0,0.0,0.0,0.0,1.0
1463563798074947365,663,1463563797789711250,,-5.26801395416,-6.62976646423,-110.793106079,0.00997599959373,1.0,0.0,0.0,0.0,1.0,0.0,0.0,0.0,1.0,-93.4756088257,-15.6097564697,-30.975610733,1.0,0.0,0.0,0.0,1.0,0.0,0.0,0.0,1.0,-0.569819995117,3.26090266113,-11.7411649414,1.0,0.0,0.0,0.0,1.0,0.0,0.0,0.0,1.0
1463563798075226582,664,1463563797799095886,,-6.15711450577,-6.76919651031,-111.047943115,0.0100600002334,1.0,0.0,0.0,0.0,1.0,0.0,0.0,0.0,1.0,-83.0487823486,-17.2560977936,-29.6341457367,1.0,0.0,0.0,0.0,1.0,0.0,0.0,0.0,1.0,-0.569819995117,2.80121594238,-12.2343704834,1.0,0.0,0.0,0.0,1.0,0.0,0.0,0.0,1.0
1463563798075567205,665,1463563797809584889,,-6.91619968414,-6.93148374557,-111.286048889,0.0101199997589,1.0,0.0,0.0,0.0,1.0,0.0,0.0,0.0,1.0,-71.0975646973,-18.841463089,-28.1097564697,1.0,0.0,0.0,0.0,1.0,0.0,0.0,0.0,1.0,-0.699106884766,2.66235224609,-12.3397153564,1.0,0.0,0.0,0.0,1.0,0.0,0.0,0.0,1.0
1463563798075852256,666,1463563797819848738,,-7.58728075027,-7.10434770584,-111.50642395,0.0101399999112,1.0,0.0,0.0,0.0,1.0,0.0,0.0,0.0,1.0,-62.682926178,-19.3902435303,-26.5853652954,1.0,0.0,0.0,0.0,1.0,0.0,0.0,0.0,1.0,-0.833182177734,2.75333190918,-12.5647703125,1.0,0.0,0.0,0.0,1.0,0.0,0.0,0.0,1.0
1463563798076174441,667,1463563797829264050,,-8.18296051025,-7.28707361221,-111.687416077,0.0100469999015,1.0,0.0,0.0,0.0,1.0,0.0,0.0,0.0,1.0,-55.9756126404,-19.8780498505,-23.1097564697,1.0,0.0,0.0,0.0,1.0,0.0,0.0,0.0,1.0,-1.10612116699,2.84431157227,-12.8951701416,1.0,0.0,0.0,0.0,1.0,0.0,0.0,0.0,1.0
1463563798076478085,668,1463563797840374040,,-8.7041425705,-7.46546554565,-111.850364685,0.010111999698,1.0,0.0,0.0,0.0,1.0,0.0,0.0,0.0,1.0,-49.390247345,-18.4146347046,-21.0365848541,1.0,0.0,0.0,0.0,1.0,0.0,0.0,0.0,1.0,-1.40779057617,2.69587106934,-13.0675526611,1.0,0.0,0.0,0.0,1.0,0.0,0.0,0.0,1.0
1463563798076761209,669,1463563797849561645,,-9.1556186676,-7.63908910751,-112.001686096,0.0101899998263,1.0,0.0,0.0,0.0,1.0,0.0,0.0,0.0,1.0,-45.365852356,-16.9512195587,-19.2682914734,1.0,0.0,0.0,0.0,1.0,0.0,0.0,0.0,1.0,-1.65199914551,1.99197578125,-12.9191121582,1.0,0.0,0.0,0.0,1.0,0.0,0.0,0.0,1.0
1463563798077073655,670,1463563797860579969,,-9.59766387939,-7.78127813339,-112.123451233,0.0100130001083,1.0,0.0,0.0,0.0,1.0,0.0,0.0,0.0,1.0,-44.8780479431,-13.5975618362,-16.158536911,1.0,0.0,0.0,0.0,1.0,0.0,0.0,0.0,1.0,-1.84832368164,2.04464821777,-12.5839239258,1.0,0.0,0.0,0.0,1.0,0.0,0.0,0.0,1.0
1463563798077396309,671,1463563797870114916,,-10.0448942184,-7.88689756393,-112.226600647,0.0101079996675,1.0,0.0,0.0,0.0,1.0,0.0,0.0,0.0,1.0,-45.7317085266,-9.63414573669,-13.4756097794,1.0,0.0,0.0,0.0,1.0,0.0,0.0,0.0,1.0,-1.95366855469,1.87226569824,-12.3157733398,1.0,0.0,0.0,0.0,1.0,0.0,0.0,0.0,1.0
1463563798077671725,672,1463563797880175849,,-10.5178394318,-7.95731925964,-112.310630798,0.0100899999961,1.0,0.0,0.0,0.0,1.0,0.0,0.0,0.0,1.0,-48.1707305908,-5.18292713165,-10.8536586761,1.0,0.0,0.0,0.0,1.0,0.0,0.0,0.0,1.0,-2.21224233398,1.90578452148,-11.9853735107,1.0,0.0,0.0,0.0,1.0,0.0,0.0,0.0,1.0
1463563798077964483,673,1463563797890272251,,-11.0149374008,-7.98713874817,-112.397926331,0.0101129999384,1.0,0.0,0.0,0.0,1.0,0.0,0.0,0.0,1.0,-50.4268302917,0.853658556938,-10.0609760284,1.0,0.0,0.0,0.0,1.0,0.0,0.0,0.0,1.0,-2.56179577637,1.93930334473,-11.4873795654,1.0,0.0,0.0,0.0,1.0,0.0,0.0,0.0,1.0
1463563798078243909,674,1463563797900425215,,-11.5414123535,-7.95191144943,-112.485336304,0.0100760003552,1.0,0.0,0.0,0.0,1.0,0.0,0.0,0.0,1.0,-53.6585388184,7.62195110321,-8.71951198578,1.0,0.0,0.0,0.0,1.0,0.0,0.0,0.0,1.0,-2.62883342285,1.99676418457,-11.3868230957,1.0,0.0,0.0,0.0,1.0,0.0,0.0,0.0,1.0
1463563798078534532,675,1463563797910382139,,-12.1021356583,-7.83482980728,-112.589759827,0.010111999698,1.0,0.0,0.0,0.0,1.0,0.0,0.0,0.0,1.0,-57.2560997009,15.9146347046,-8.5365858078,1.0,0.0,0.0,0.0,1.0,0.0,0.0,0.0,1.0,-2.56179577637,2.02070620117,-11.1330377197,1.0,0.0,0.0,0.0,1.0,0.0,0.0,0.0,1.0
1463563798078819583,676,1463563797920921038,,-12.6899204254,-7.64608049393,-112.704345703,0.0101140001789,1.0,0.0,0.0,0.0,1.0,0.0,0.0,0.0,1.0,-61.5853691101,23.475610733,-7.50000047684,1.0,0.0,0.0,0.0,1.0,0.0,0.0,0.0,1.0,-2.51391174316,1.73819040527,-10.7068698242,1.0,0.0,0.0,0.0,1.0,0.0,0.0,0.0,1.0
1463563798079084269,677,1463563797930435152,,-13.330827713,-7.39024543762,-112.840515137,0.0100800003856,1.0,0.0,0.0,0.0,1.0,0.0,0.0,0.0,1.0,-66.8292694092,30.9146327972,-7.80487823486,1.0,0.0,0.0,0.0,1.0,0.0,0.0,0.0,1.0,-2.57616098633,1.96324536133,-10.8026378906,1.0,0.0,0.0,0.0,1.0,0.0,0.0,0.0,1.0
1463563798079334632,678,1463563797941881181,,-14.038608551,-7.04514122009,-112.997924805,0.0102519998327,1.0,0.0,0.0,0.0,1.0,0.0,0.0,0.0,1.0,-70.9756088257,39.4512214661,-7.43902492523,1.0,0.0,0.0,0.0,1.0,0.0,0.0,0.0,1.0,-2.4516625,2.31758720703,-10.4626612549,1.0,0.0,0.0,0.0,1.0,0.0,0.0,0.0,1.0
1463563798079886973,679,1463563797950731705,,-14.7529973984,-6.66326570511,-113.177986145,0.00994899962097,1.0,0.0,0.0,0.0,1.0,0.0,0.0,0.0,1.0,-73.4146347046,45.4268302917,-8.29268264771,1.0,0.0,0.0,0.0,1.0,0.0,0.0,0.0,1.0,-2.49475812988,2.53306535645,-10.3237975586,1.0,0.0,0.0,0.0,1.0,0.0,0.0,0.0,1.0
1463563798080196606,680,1463563797961302531,,-15.4931564331,-6.20703554153,-113.385986328,0.0101150004193,1.0,0.0,0.0,0.0,1.0,0.0,0.0,0.0,1.0,-74.1463394165,51.6463432312,-8.65853691101,1.0,0.0,0.0,0.0,1.0,0.0,0.0,0.0,1.0,-2.11647412145,2.6862942627,-9.80665,1.0,0.0,0.0,0.0,1.0,0.0,0.0,0.0,1.0
1463563798089849677,681,1463563797971749400,,-16.2487487793,-5.6875243187,-113.623970032,0.0101640000939,1.0,0.0,0.0,0.0,1.0,0.0,0.0,0.0,1.0,-75.3048782349,56.4024429321,-9.5731716156,1.0,0.0,0.0,0.0,1.0,0.0,0.0,0.0,1.0,-1.66157595215,2.82515795898,-9.73003554687,1.0,0.0,0.0,0.0,1.0,0.0,0.0,0.0,1.0
1463563798089913583,682,1463563797982107988,,-17.0368232727,-5.11115980148,-113.890563965,0.0106229996309,1.0,0.0,0.0,0.0,1.0,0.0,0.0,0.0,1.0,-74.5731735229,58.6585388184,-9.93902492523,1.0,0.0,0.0,0.0,1.0,0.0,0.0,0.0,1.0,-1.29286889648,3.00232888184,-9.53849999858,1.0,0.0,0.0,0.0,1.0,0.0,0.0,0.0,1.0
1463563798090370299,683,1463563797998613364,,-18.1328487396,-4.20562171936,-114.422424316,0.0169830005616,1.0,0.0,0.0,0.0,1.0,0.0,0.0,0.0,1.0,-69.0243911743,58.5975608826,-15.1219511032,1.0,0.0,0.0,0.0,1.0,0.0,0.0,0.0,1.0,-0.871489404297,2.1691467041,-8.53293530132,1.0,0.0,0.0,0.0,1.0,0.0,0.0,0.0,1.0
1463563798090683787,684,1463563798003726409,,-18.4862194061,-3.93656778336,-114.582168579,0.00492500001565,1.0,0.0,0.0,0.0,1.0,0.0,0.0,0.0,1.0,-71.8292694092,59.4512176514,-15.6707315445,1.0,0.0,0.0,0.0,1.0,0.0,0.0,0.0,1.0,-0.627280834961,3.28005627441,-9.20809958496,1.0,0.0,0.0,0.0,1.0,0.0,0.0,0.0,1.0
1463563798090987952,685,1463563798011499855,,-19.0469875336,-3.50521254539,-114.835662842,0.00792699959129,1.0,0.0,0.0,0.0,1.0,0.0,0.0,0.0,1.0,-70.9146347046,59.024394989,-14.8780498505,1.0,0.0,0.0,0.0,1.0,0.0,0.0,0.0,1.0,-0.541089611728,3.24653745117,-9.09796630859,1.0,0.0,0.0,0.0,1.0,0.0,0.0,0.0,1.0
1463563798091301232,686,1463563798021571205,,-19.7413063049,-2.97316908836,-115.165817261,0.0100389998406,1.0,0.0,0.0,0.0,1.0,0.0,0.0,0.0,1.0,-68.4146347046,56.4634132385,-16.158536911,1.0,0.0,0.0,0.0,1.0,0.0,0.0,0.0,1.0,-0.162805712891,3.41413156738,-8.9351605957,1.0,0.0,0.0,0.0,1.0,0.0,0.0,0.0,1.0
1463563798091593209,687,1463563798032178906,,-20.4033184052,-2.48092794418,-115.511009216,0.0101479999721,1.0,0.0,0.0,0.0,1.0,0.0,0.0,0.0,1.0,-64.8780441284,52.7439041138,-18.0487823486,1.0,0.0,0.0,0.0,1.0,0.0,0.0,0.0,1.0,-0.067037651051,3.4428619873,-8.98304462891,1.0,0.0,0.0,0.0,1.0,0.0,0.0,0.0,1.0
1463563798091886385,688,1463563798042034788,,-21.0326194763,-2.04465651512,-115.860328674,0.0100320000201,1.0,0.0,0.0,0.0,1.0,0.0,0.0,0.0,1.0,-61.6463394165,48.4756126404,-20.0,1.0,0.0,0.0,0.0,1.0,0.0,0.0,0.0,1.0,0.0239420166016,3.59130249023,-8.83460412598,1.0,0.0,0.0,0.0,1.0,0.0,0.0,0.0,1.0
1463563798092201487,689,1463563798051968691,,-21.6181983948,-1.65571546555,-116.225502014,0.0101429997012,1.0,0.0,0.0,0.0,1.0,0.0,0.0,0.0,1.0,-59.2682914734,44.6341438293,-22.1951236725,1.0,0.0,0.0,0.0,1.0,0.0,0.0,0.0,1.0,0.0287304199219,3.14598098145,-8.69574042969,1.0,0.0,0.0,0.0,1.0,0.0,0.0,0.0,1.0
1463563798356450219,690,1463563798061574262,,-22.2022686005,-1.31870317459,-116.593109131,0.0100260004401,1.0,0.0,0.0,0.0,1.0,0.0,0.0,0.0,1.0,-56.5853691101,40.8536605835,-24.1463432312,1.0,0.0,0.0,0.0,1.0,0.0,0.0,0.0,1.0,0.0718260498047,3.74453139648,-8.60954975444,1.0,0.0,0.0,0.0,1.0,0.0,0.0,0.0,1.0
1463563798356729540,691,1463563798071876601,,-22.7392864227,-1.04812276363,-116.978477478,0.0101319998503,1.0,0.0,0.0,0.0,1.0,0.0,0.0,0.0,1.0,-53.1707305908,36.5853652954,-27.0121955872,1.0,0.0,0.0,0.0,1.0,0.0,0.0,0.0,1.0,-0.124498486328,3.56736047363,-8.80108530273,1.0,0.0,0.0,0.0,1.0,0.0,0.0,0.0,1.0
1463563798356988445,692,1463563798082003836,,-23.2476634979,-0.826486647129,-117.381248474,0.0101070003584,1.0,0.0,0.0,0.0,1.0,0.0,0.0,0.0,1.0,-49.6951217651,32.317073822,-30.5487804413,1.0,0.0,0.0,0.0,1.0,0.0,0.0,0.0,1.0,0.067037651051,3.69664736328,-8.60476135112,1.0,0.0,0.0,0.0,1.0,0.0,0.0,0.0,1.0
1463563798357262766,693,1463563798092762682,,-23.7192821503,-0.642540454865,-117.772171021,0.010050999932,1.0,0.0,0.0,0.0,1.0,0.0,0.0,0.0,1.0,-48.5365867615,28.7195110321,-30.8536605835,1.0,0.0,0.0,0.0,1.0,0.0,0.0,0.0,1.0,0.119710083008,3.27047946777,-8.36055161274,1.0,0.0,0.0,0.0,1.0,0.0,0.0,0.0,1.0
1463563798357560212,694,1463563798103313456,,-24.2672843933,-0.495178669691,-118.184242249,0.0111980000511,1.0,0.0,0.0,0.0,1.0,0.0,0.0,0.0,1.0,-47.9878044128,23.5975627899,-30.7317066193,1.0,0.0,0.0,0.0,1.0,0.0,0.0,0.0,1.0,0.119710083008,3.64397492676,-8.07324799805,1.0,0.0,0.0,0.0,1.0,0.0,0.0,0.0,1.0
1463563798357814013,695,1463563798112304812,,-24.6910858154,-0.413424700499,-118.50553894,0.00900300033391,1.0,0.0,0.0,0.0,1.0,0.0,0.0,0.0,1.0,-47.6219520569,19.3292694092,-31.341463089,1.0,0.0,0.0,0.0,1.0,0.0,0.0,0.0,1.0,0.201112939453,3.51947644043,-8.19295808105,1.0,0.0,0.0,0.0,1.0,0.0,0.0,0.0,1.0
1463563798358095782,696,1463563798122449235,,-25.1639881134,-0.374978363514,-118.845375061,0.010106000118,1.0,0.0,0.0,0.0,1.0,0.0,0.0,0.0,1.0,-47.2560958862,14.8780498505,-31.0975627899,1.0,0.0,0.0,0.0,1.0,0.0,0.0,0.0,1.0,0.0478840332031,3.7493197998,-8.53772370464,1.0,0.0,0.0,0.0,1.0,0.0,0.0,0.0,1.0
1463563798358403906,697,1463563798132429127,,-25.6218147278,-0.384337633848,-119.179603577,0.0101349996403,1.0,0.0,0.0,0.0,1.0,0.0,0.0,0.0,1.0,-47.1951255798,11.8902444839,-31.7682914734,1.0,0.0,0.0,0.0,1.0,0.0,0.0,0.0,1.0,-0.186747729492,3.56257207031,-8.56166572124,1.0,0.0,0.0,0.0,1.0,0.0,0.0,0.0,1.0
1463563798358695779,698,1463563798142867610,,-26.0968608856,-0.430183023214,-119.5052948,0.0101469997317,1.0,0.0,0.0,0.0,1.0,0.0,0.0,0.0,1.0,-46.2195129395,9.69512176514,-31.8902454376,1.0,0.0,0.0,0.0,1.0,0.0,0.0,0.0,1.0,-0.397437475586,3.9839515625,-8.2743609375,1.0,0.0,0.0,0.0,1.0,0.0,0.0,0.0,1.0
1463563798358974944,699,1463563798152949481,,-26.5565948486,-0.490223169327,-119.824127197,0.0100239999592,1.0,0.0,0.0,0.0,1.0,0.0,0.0,0.0,1.0,-44.8780479431,8.23170757294,-32.317073822,1.0,0.0,0.0,0.0,1.0,0.0,0.0,0.0,1.0,-0.349553442383,4.01747038574,-8.02057556152,1.0,0.0,0.0,0.0,1.0,0.0,0.0,0.0,1.0
1463563798359244318,700,1463563798163027550,,-27.0148696899,-0.559904277325,-120.12525177,0.0101490002126,1.0,0.0,0.0,0.0,1.0,0.0,0.0,0.0,1.0,-42.2560958862,7.01219511032,-30.6097583771,1.0,0.0,0.0,0.0,1.0,0.0,0.0,0.0,1.0,-0.402225878906,4.29519807058,-7.74284816895,1.0,0.0,0.0,0.0,1.0,0.0,0.0,0.0,1.0
1463563798359623951,701,1463563798172804839,,-27.4341449738,-0.639635741711,-120.419563293,0.010053999722,1.0,0.0,0.0,0.0,1.0,0.0,0.0,0.0,1.0,-39.0853652954,6.46341466904,-30.4878044128,1.0,0.0,0.0,0.0,1.0,0.0,0.0,0.0,1.0,-0.478840332031,4.34308181152,-7.76200178223,1.0,0.0,0.0,0.0,1.0,0.0,0.0,0.0,1.0
1463563798360158167,702,1463563798182896501,,-27.8066596985,-0.717243254185,-120.693656921,0.010106000118,1.0,0.0,0.0,0.0,1.0,0.0,0.0,0.0,1.0,-33.7804870605,5.67073154449,-28.5365848541,1.0,0.0,0.0,0.0,1.0,0.0,0.0,0.0,1.0,-0.469263525391,4.63038601074,-7.97747993164,1.0,0.0,0.0,0.0,1.0,0.0,0.0,0.0,1.0
1463563798360450457,703,1463563798193433526,,-28.1121921539,-0.807782888412,-120.961456299,0.0101129999384,1.0,0.0,0.0,0.0,1.0,0.0,0.0,0.0,1.0,-28.2926845551,5.73170757294,-27.8048782349,1.0,0.0,0.0,0.0,1.0,0.0,0.0,0.0,1.0,-0.727837304687,4.51546433105,-8.02536396484,1.0,0.0,0.0,0.0,1.0,0.0,0.0,0.0,1.0
1463563798360748684,704,1463563798204756900,,-28.3716144562,-0.888165950775,-121.224304199,0.0105020003393,1.0,0.0,0.0,0.0,1.0,0.0,0.0,0.0,1.0,-22.4390239716,7.50000047684,-25.2439041138,1.0,0.0,0.0,0.0,1.0,0.0,0.0,0.0,1.0,-0.952892260742,4.56334836426,-7.89128867187,1.0,0.0,0.0,0.0,1.0,0.0,0.0,0.0,1.0
1463563798361080818,705,1463563798213298779,,-28.5924606323,-0.93539839983,-121.452430725,0.0096720000729,1.0,0.0,0.0,0.0,1.0,0.0,0.0,0.0,1.0,-18.1097564697,9.08536529541,-22.8048782349,1.0,0.0,0.0,0.0,1.0,0.0,0.0,0.0,1.0,-0.92416184082,4.99430466309,-7.74763657227,1.0,0.0,0.0,0.0,1.0,0.0,0.0,0.0,1.0
1463563798361400816,706,1463563798223455024,,-28.7268466949,-0.961213231087,-121.678886414,0.0101389996707,1.0,0.0,0.0,0.0,1.0,0.0,0.0,0.0,1.0,-10.9756097794,10.1829271317,-20.7317085266,1.0,0.0,0.0,0.0,1.0,0.0,0.0,0.0,1.0,-0.852335791016,4.65432773508,-7.89128867187,1.0,0.0,0.0,0.0,1.0,0.0,0.0,0.0,1.0
1463563798361706596,707,1463563798233651738,,-28.7919597626,-0.948882997036,-121.890151978,0.0101319998503,1.0,0.0,0.0,0.0,1.0,0.0,0.0,0.0,1.0,-6.09756088257,11.5853662491,-18.2317085266,1.0,0.0,0.0,0.0,1.0,0.0,0.0,0.0,1.0,-0.61770402832,4.28562126394,-7.83861623535,1.0,0.0,0.0,0.0,1.0,0.0,0.0,0.0,1.0
1463563798362001386,708,1463563798243883921,,-28.8333320618,-0.912177860737,-122.070228577,0.010050999932,1.0,0.0,0.0,0.0,1.0,0.0,0.0,0.0,1.0,-4.45121955872,12.6829271317,-14.2682924271,1.0,0.0,0.0,0.0,1.0,0.0,0.0,0.0,1.0,-0.684741674805,4.20900622629,-7.91523068848,1.0,0.0,0.0,0.0,1.0,0.0,0.0,0.0,1.0
1463563798362313103,709,1463563798253553190,,-28.8642883301,-0.853063225746,-122.216667175,0.0101049998775,1.0,0.0,0.0,0.0,1.0,0.0,0.0,0.0,1.0,-0.914634168148,12.4390249252,-10.548781395,1.0,0.0,0.0,0.0,1.0,0.0,0.0,0.0,1.0,-0.588973571866,4.6208092041,-7.84819304199,1.0,0.0,0.0,0.0,1.0,0.0,0.0,0.0,1.0
1463563798362609715,710,1463563798264108443,,-28.853012085,-0.770048439503,-122.327796936,0.0100790001452,1.0,0.0,0.0,0.0,1.0,0.0,0.0,0.0,1.0,2.37804889679,12.4390249252,-6.58536624908,1.0,0.0,0.0,0.0,1.0,0.0,0.0,0.0,1.0,-0.493205541992,4.40054265137,-7.76200178223,1.0,0.0,0.0,0.0,1.0,0.0,0.0,0.0,1.0
1463563798362918099,711,1463563798273705004,,-28.8087902069,-0.664124429226,-122.414527893,0.0101159997284,1.0,0.0,0.0,0.0,1.0,0.0,0.0,0.0,1.0,4.63414621353,12.5609760284,-3.71951246262,1.0,0.0,0.0,0.0,1.0,0.0,0.0,0.0,1.0,-0.373495458984,4.36702382812,-8.04930598145,1.0,0.0,0.0,0.0,1.0,0.0,0.0,0.0,1.0
1463563798363242837,712,1463563798283893124,,-28.7425823212,-0.540021538734,-122.465774536,0.0100849997252,1.0,0.0,0.0,0.0,1.0,0.0,0.0,0.0,1.0,7.25609779358,12.2560977936,0.0609756112099,1.0,0.0,0.0,0.0,1.0,0.0,0.0,0.0,1.0,-0.31124621582,4.39096584473,-7.98226833496,1.0,0.0,0.0,0.0,1.0,0.0,0.0,0.0,1.0
1463563798363576481,713,1463563798294445878,,-28.6445198059,-0.412055194378,-122.493133545,0.010106000118,1.0,0.0,0.0,0.0,1.0,0.0,0.0,0.0,1.0,10.9146347046,11.2804880142,2.19512200356,1.0,0.0,0.0,0.0,1.0,0.0,0.0,0.0,1.0,-0.263362164351,4.45800349121,-7.96311472168,1.0,0.0,0.0,0.0,1.0,0.0,0.0,0.0,1.0
1463563798363891010,714,1463563798304156709,,-28.5060367584,-0.287979066372,-122.492477417,0.0101049998775,1.0,0.0,0.0,0.0,1.0,0.0,0.0,0.0,1.0,15.3048791885,9.93902492523,4.57317066193,1.0,0.0,0.0,0.0,1.0,0.0,0.0,0.0,1.0,-0.296881024126,4.45321508789,-7.86734665527,1.0,0.0,0.0,0.0,1.0,0.0,0.0,0.0,1.0
1463563798364188821,715,1463563798314099049,,-28.3142261505,-0.170031830668,-122.476539612,0.0100990002975,1.0,0.0,0.0,0.0,1.0,0.0,0.0,0.0,1.0,20.4268302917,8.65853691101,5.54878091812,1.0,0.0,0.0,0.0,1.0,0.0,0.0,0.0,1.0,-0.277727392578,4.5729251709,-8.18338127441,1.0,0.0,0.0,0.0,1.0,0.0,0.0,0.0,1.0
1463563798364492049,716,1463563798325517162,,-28.0695838928,-0.0581915155053,-122.431282043,0.0102289998904,1.0,0.0,0.0,0.0,1.0,0.0,0.0,0.0,1.0,26.0975627899,6.52439069748,7.56097555161,1.0,0.0,0.0,0.0,1.0,0.0,0.0,0.0,1.0,-0.229843359375,4.69742336497,-8.21690009766,1.0,0.0,0.0,0.0,1.0,0.0,0.0,0.0,1.0
1463563798364770953,717,1463563798334433206,,-27.772600174,0.0518991984427,-122.370849609,0.00997100025415,1.0,0.0,0.0,0.0,1.0,0.0,0.0,0.0,1.0,31.341463089,6.0365858078,9.08536529541,1.0,0.0,0.0,0.0,1.0,0.0,0.0,0.0,1.0,-0.244208569336,4.70221176829,-8.52335849468,1.0,0.0,0.0,0.0,1.0,0.0,0.0,0.0,1.0
1463563798400730388,718,1463563798344818200,,-27.4022693634,0.152250215411,-122.290679932,0.0100880004466,1.0,0.0,0.0,0.0,1.0,0.0,0.0,0.0,1.0,37.7439041138,4.69512224197,10.4268293381,1.0,0.0,0.0,0.0,1.0,0.0,0.0,0.0,1.0,-0.301669427446,4.45321508789,-8.3509748061,1.0,0.0,0.0,0.0,1.0,0.0,0.0,0.0,1.0
1463563798401186531,719,1463563798354804395,,-26.9858837128,0.266502976418,-122.179595947,0.0101389996707,1.0,0.0,0.0,0.0,1.0,0.0,0.0,0.0,1.0,42.6219520569,3.90243911743,13.2926826477,1.0,0.0,0.0,0.0,1.0,0.0,0.0,0.0,1.0,-0.15322890625,4.38617744141,-8.16422766113,1.0,0.0,0.0,0.0,1.0,0.0,0.0,0.0,1.0
1463563798401591841,720,1463563798364913192,,-26.5157756805,0.389871060848,-122.026405334,0.0101260002702,1.0,0.0,0.0,0.0,1.0,0.0,0.0,0.0,1.0,47.0731697083,2.86585378647,17.317073822,1.0,0.0,0.0,0.0,1.0,0.0,0.0,0.0,1.0,-0.114921679688,4.13239206543,-8.12592043457,1.0,0.0,0.0,0.0,1.0,0.0,0.0,0.0,1.0
1463563798401926787,721,1463563798374893032,,-26.0107307434,0.511295974255,-121.837608337,0.0100659998134,1.0,0.0,0.0,0.0,1.0,0.0,0.0,0.0,1.0,50.182926178,1.03658533096,20.3048782349,1.0,0.0,0.0,0.0,1.0,0.0,0.0,0.0,1.0,-0.0430956298828,3.94564433594,-8.12592043457,1.0,0.0,0.0,0.0,1.0,0.0,0.0,0.0,1.0
1463563798564927699,722,1463563798385073861,,-25.4688587189,0.635940372944,-121.610565186,0.010095000267,1.0,0.0,0.0,0.0,1.0,0.0,0.0,0.0,1.0,53.5365867615,-0.670731723309,23.475610733,1.0,0.0,0.0,0.0,1.0,0.0,0.0,0.0,1.0,0.076614453125,4.02704719238,-8.51378168804,1.0,0.0,0.0,0.0,1.0,0.0,0.0,0.0,1.0
1463563798566227119,723,1463563798394971305,,-24.8772354126,0.741588830948,-121.358726501,0.0101429997012,1.0,0.0,0.0,0.0,1.0,0.0,0.0,0.0,1.0,56.7073173523,-2.19512200356,25.182926178,1.0,0.0,0.0,0.0,1.0,0.0,0.0,0.0,1.0,-0.0814028564453,3.84987626953,-8.92079538574,1.0,0.0,0.0,0.0,1.0,0.0,0.0,0.0,1.0
1463563798579147151,724,1463563798405184009,,-24.2389812469,0.835936367512,-121.09021759,0.0101380003616,1.0,0.0,0.0,0.0,1.0,0.0,0.0,0.0,1.0,59.8780517578,-3.41463422775,26.2804889679,1.0,0.0,0.0,0.0,1.0,0.0,0.0,0.0,1.0,-0.0957680664062,3.50511123047,-8.97346782227,1.0,0.0,0.0,0.0,1.0,0.0,0.0,0.0,1.0
1463563798579755221,725,1463563798415575982,,-23.6069469452,0.91118478775,-120.813301086,0.0100419996306,1.0,0.0,0.0,0.0,1.0,0.0,0.0,0.0,1.0,60.5487823486,-4.45121955872,26.8902454376,1.0,0.0,0.0,0.0,1.0,0.0,0.0,0.0,1.0,-0.215478149414,3.45722719727,-8.80108530273,1.0,0.0,0.0,0.0,1.0,0.0,0.0,0.0,1.0
1463563798580062198,726,1463563798425560666,,-22.9435424805,0.986210167408,-120.521392822,0.0103049995378,1.0,0.0,0.0,0.0,1.0,0.0,0.0,0.0,1.0,62.0121917725,-5.06097555161,27.317073822,1.0,0.0,0.0,0.0,1.0,0.0,0.0,0.0,1.0,-0.119710083008,3.33272871094,-8.73404765625,1.0,0.0,0.0,0.0,1.0,0.0,0.0,0.0,1.0
1463563798580368863,727,1463563798435464517,,-22.2985363007,1.06115877628,-120.220237732,0.00988600030541,1.0,0.0,0.0,0.0,1.0,0.0,0.0,0.0,1.0,60.9756088257,-4.69512224197,29.6341457367,1.0,0.0,0.0,0.0,1.0,0.0,0.0,0.0,1.0,-0.201112939453,2.85388837891,-8.59518454448,1.0,0.0,0.0,0.0,1.0,0.0,0.0,0.0,1.0
1463563798580682247,728,1463563798445740084,,-21.6659088135,1.1351236105,-119.897964478,0.0100870002061,1.0,0.0,0.0,0.0,1.0,0.0,0.0,0.0,1.0,60.3048782349,-4.81707286835,31.0975627899,1.0,0.0,0.0,0.0,1.0,0.0,0.0,0.0,1.0,-0.239420166016,2.98796367187,-8.36055161274,1.0,0.0,0.0,0.0,1.0,0.0,0.0,0.0,1.0
1463563798581012349,729,1463563798455761070,,-21.0323562622,1.20940899849,-119.56137085,0.010108999908,1.0,0.0,0.0,0.0,1.0,0.0,0.0,0.0,1.0,58.2926826477,-5.12195110321,32.2560958862,1.0,0.0,0.0,0.0,1.0,0.0,0.0,0.0,1.0,-0.186747729492,2.53306535645,-8.23126530762,1.0,0.0,0.0,0.0,1.0,0.0,0.0,0.0,1.0
1463563798581283441,730,1463563798466043877,,-20.4164676666,1.27756381035,-119.22833252,0.0101239997894,1.0,0.0,0.0,0.0,1.0,0.0,0.0,0.0,1.0,55.0609779358,-5.36585378647,31.5853652954,1.0,0.0,0.0,0.0,1.0,0.0,0.0,0.0,1.0,-0.148440512063,2.31758720703,-8.59518454448,1.0,0.0,0.0,0.0,1.0,0.0,0.0,0.0,1.0
1463563798581910313,731,1463563798475971113,,-19.8466968536,1.31756830215,-118.908988953,0.0100929997861,1.0,0.0,0.0,0.0,1.0,0.0,0.0,0.0,1.0,52.2560997009,-6.70731735229,29.6951236725,1.0,0.0,0.0,0.0,1.0,0.0,0.0,0.0,1.0,-0.225054956055,2.53306535645,-8.79150849609,1.0,0.0,0.0,0.0,1.0,0.0,0.0,0.0,1.0
1463563798582408227,732,1463563798485909912,,-19.2920150757,1.32236862183,-118.620895386,0.0101159997284,1.0,0.0,0.0,0.0,1.0,0.0,0.0,0.0,1.0,51.8292694092,-7.50000047684,26.0365848541,1.0,0.0,0.0,0.0,1.0,0.0,0.0,0.0,1.0,-0.430956298828,2.72460148926,-9.11711992188,1.0,0.0,0.0,0.0,1.0,0.0,0.0,0.0,1.0
1463563798582885151,733,1463563798496593810,,-18.7435626984,1.29920089245,-118.382698059,0.0100769996643,1.0,0.0,0.0,0.0,1.0,0.0,0.0,0.0,1.0,51.7073173523,-6.95121955872,21.0975627899,1.0,0.0,0.0,0.0,1.0,0.0,0.0,0.0,1.0,-0.651222851562,2.60010300293,-8.92079538574,1.0,0.0,0.0,0.0,1.0,0.0,0.0,0.0,1.0
1463563798583483533,734,1463563798506519588,,-18.2010040283,1.27131092548,-118.177787781,0.0101870000362,1.0,0.0,0.0,0.0,1.0,0.0,0.0,0.0,1.0,53.1097602844,-5.30487823486,17.9878044128,1.0,0.0,0.0,0.0,1.0,0.0,0.0,0.0,1.0,-0.780509741211,2.88740720215,-8.77714328613,1.0,0.0,0.0,0.0,1.0,0.0,0.0,0.0,1.0
1463563798584013739,735,1463563798516692448,,-17.6613311768,1.25417542458,-117.998954773,0.0100819999352,1.0,0.0,0.0,0.0,1.0,0.0,0.0,0.0,1.0,54.0243911743,-4.51219558716,15.7317075729,1.0,0.0,0.0,0.0,1.0,0.0,0.0,0.0,1.0,-0.593762048251,2.90177241211,-8.79629689941,1.0,0.0,0.0,0.0,1.0,0.0,0.0,0.0,1.0
1463563798584456340,736,1463563798526395050,,-17.071855545,1.26010966301,-117.821548462,0.0100239999592,1.0,0.0,0.0,0.0,1.0,0.0,0.0,0.0,1.0,54.2682914734,-2.92682933807,16.0365848541,1.0,0.0,0.0,0.0,1.0,0.0,0.0,0.0,1.0,-0.440533105469,1.95845695801,-8.75320126953,1.0,0.0,0.0,0.0,1.0,0.0,0.0,0.0,1.0
1463563798584764203,737,1463563798536508223,,-16.504693985,1.2843517065,-117.64932251,0.010111999698,1.0,0.0,0.0,0.0,1.0,0.0,0.0,0.0,1.0,51.2804870605,-2.62195134163,15.3658533096,1.0,0.0,0.0,0.0,1.0,0.0,0.0,0.0,1.0,-0.138863696289,1.80043964844,-8.66222219097,1.0,0.0,0.0,0.0,1.0,0.0,0.0,0.0,1.0
1463563798585082951,738,1463563798546750457,,-15.9913234711,1.29314863682,-117.48625946,0.0101009998471,1.0,0.0,0.0,0.0,1.0,0.0,0.0,0.0,1.0,48.7804870605,-2.68292689323,14.4512205124,1.0,0.0,0.0,0.0,1.0,0.0,0.0,0.0,1.0,-0.3064578125,2.18830031738,-8.80587370605,1.0,0.0,0.0,0.0,1.0,0.0,0.0,0.0,1.0
1463563798586547266,739,1463563798556601652,,-15.4906339645,1.28450250626,-117.337562561,0.0100760003552,1.0,0.0,0.0,0.0,1.0,0.0,0.0,0.0,1.0,47.7439041138,-3.10975623131,12.8658542633,1.0,0.0,0.0,0.0,1.0,0.0,0.0,0.0,1.0,-0.426167895508,2.12605122035,-8.85375773926,1.0,0.0,0.0,0.0,1.0,0.0,0.0,0.0,1.0
1463563798590582816,740,1463563798567102218,,-15.0006895065,1.26889252663,-117.212844849,0.0101319998503,1.0,0.0,0.0,0.0,1.0,0.0,0.0,0.0,1.0,45.365852356,-2.37804889679,10.4878053665,1.0,0.0,0.0,0.0,1.0,0.0,0.0,0.0,1.0,-0.536301208408,1.89620771484,-9.01177504883,1.0,0.0,0.0,0.0,1.0,0.0,0.0,0.0,1.0
1463563798591265625,741,1463563798576843310,,-14.5451698303,1.2554397583,-117.099334717,0.0100630000234,1.0,0.0,0.0,0.0,1.0,0.0,0.0,0.0,1.0,43.6585388184,-2.07317066193,9.51219558716,1.0,0.0,0.0,0.0,1.0,0.0,0.0,0.0,1.0,-0.507570751953,2.07816689489,-9.17458076172,1.0,0.0,0.0,0.0,1.0,0.0,0.0,0.0,1.0
1463563798784805064,742,1463563798587077471,,-14.1113080978,1.24006044865,-117.003471375,0.0101450001821,1.0,0.0,0.0,0.0,1.0,0.0,0.0,0.0,1.0,43.5975608826,-1.52439022064,7.80487823486,1.0,0.0,0.0,0.0,1.0,0.0,0.0,0.0,1.0,-0.545877978516,2.40377861293,-9.14106193848,1.0,0.0,0.0,0.0,1.0,0.0,0.0,0.0,1.0
1463563798784845168,743,1463563798597049239,,-13.6800718307,1.23271584511,-116.90272522,0.0100739998743,1.0,0.0,0.0,0.0,1.0,0.0,0.0,0.0,1.0,45.4268302917,-0.914634168148,8.5365858078,1.0,0.0,0.0,0.0,1.0,0.0,0.0,0.0,1.0,-0.541089611728,2.66235224609,-9.21288798828,1.0,0.0,0.0,0.0,1.0,0.0,0.0,0.0,1.0
1463563798784883762,744,1463563798607354494,,-13.1760702133,1.24304640293,-116.783493042,0.0101300003007,1.0,0.0,0.0,0.0,1.0,0.0,0.0,0.0,1.0,46.6463432312,0.0609756112099,10.4268293381,1.0,0.0,0.0,0.0,1.0,0.0,0.0,0.0,1.0,-0.450109912109,1.59453830566,-9.11711992188,1.0,0.0,0.0,0.0,1.0,0.0,0.0,0.0,1.0
1463563798784920793,745,1463563798617332459,,-12.6974935532,1.27567350864,-116.649337769,0.0101239997894,1.0,0.0,0.0,0.0,1.0,0.0,0.0,0.0,1.0,42.5609779358,-0.792682945728,11.6463422775,1.0,0.0,0.0,0.0,1.0,0.0,0.0,0.0,1.0,0.0191536132812,1.26892687988,-9.22725319824,1.0,0.0,0.0,0.0,1.0,0.0,0.0,0.0,1.0
1463563798784960793,746,1463563798627282507,,-12.2915782928,1.30084955692,-116.512695312,0.0100440001115,1.0,0.0,0.0,0.0,1.0,0.0,0.0,0.0,1.0,39.2073173523,-2.31707310677,11.7073173523,1.0,0.0,0.0,0.0,1.0,0.0,0.0,0.0,1.0,0.167594116211,1.77649763184,-9.21288798828,1.0,0.0,0.0,0.0,1.0,0.0,0.0,0.0,1.0
1463563798785015063,747,1463563798637843959,,-11.9005622864,1.28493332863,-116.384132385,0.0101290000603,1.0,0.0,0.0,0.0,1.0,0.0,0.0,0.0,1.0,37.5609779358,-4.75609779358,10.2439022064,1.0,0.0,0.0,0.0,1.0,0.0,0.0,0.0,1.0,-0.0430956298828,1.75255561523,-9.31823227681,1.0,0.0,0.0,0.0,1.0,0.0,0.0,0.0,1.0
1463563798785056417,748,1463563798647678331,,-11.5250473022,1.24285459518,-116.270233154,0.0100830001757,1.0,0.0,0.0,0.0,1.0,0.0,0.0,0.0,1.0,35.4268302917,-5.48780488968,8.65853691101,1.0,0.0,0.0,0.0,1.0,0.0,0.0,0.0,1.0,-0.292092584273,1.54665427246,-9.30386706685,1.0,0.0,0.0,0.0,1.0,0.0,0.0,0.0,1.0
1463563798785096677,749,1463563798657751972,,-11.1763286591,1.18062543869,-116.179336548,0.0101009998471,1.0,0.0,0.0,0.0,1.0,0.0,0.0,0.0,1.0,32.9268302917,-5.79268312454,6.28048801422,1.0,0.0,0.0,0.0,1.0,0.0,0.0,0.0,1.0,-0.497993945312,1.5322890625,-9.43794235981,1.0,0.0,0.0,0.0,1.0,0.0,0.0,0.0,1.0
1463563798785641049,750,1463563798668233685,,-10.8670406342,1.12434053421,-116.102119446,0.0101180002093,1.0,0.0,0.0,0.0,1.0,0.0,0.0,0.0,1.0,31.158536911,-6.15853643417,4.87804889679,1.0,0.0,0.0,0.0,1.0,0.0,0.0,0.0,1.0,-0.292092584273,1.83395847168,-9.39005832661,1.0,0.0,0.0,0.0,1.0,0.0,0.0,0.0,1.0
1463563798785694330,751,1463563798677850297,,-10.558716774,1.05524528027,-116.030693054,0.0101030003279,1.0,0.0,0.0,0.0,1.0,0.0,0.0,0.0,1.0,32.0121955872,-7.50000047684,4.08536577225,1.0,0.0,0.0,0.0,1.0,0.0,0.0,0.0,1.0,-0.263362164351,1.93451494141,-9.39484672993,1.0,0.0,0.0,0.0,1.0,0.0,0.0,0.0,1.0
1463563798785742715,752,1463563798688006334,,-10.2341547012,0.978503346443,-115.965354919,0.0100769996643,1.0,0.0,0.0,0.0,1.0,0.0,0.0,0.0,1.0,32.317073822,-7.25609779358,3.53658556938,1.0,0.0,0.0,0.0,1.0,0.0,0.0,0.0,1.0,-0.430956298828,1.67594116211,-9.60074924175,1.0,0.0,0.0,0.0,1.0,0.0,0.0,0.0,1.0
1463563798785782038,753,1463563798698337839,,-9.91456985474,0.907841444016,-115.896987915,0.0101220002398,1.0,0.0,0.0,0.0,1.0,0.0,0.0,0.0,1.0,32.1951217651,-7.92682981491,3.71951246262,1.0,0.0,0.0,0.0,1.0,0.0,0.0,0.0,1.0,-0.220266552734,1.70945998535,-9.60553764507,1.0,0.0,0.0,0.0,1.0,0.0,0.0,0.0,1.0
1463563798785821309,754,1463563798708193930,,-9.61267280579,0.83643078804,-115.824508667,0.0100779999048,1.0,0.0,0.0,0.0,1.0,0.0,0.0,0.0,1.0,31.6463413239,-8.96341514587,4.02439022064,1.0,0.0,0.0,0.0,1.0,0.0,0.0,0.0,1.0,-0.076614453125,1.82438166504,-9.5193463853,1.0,0.0,0.0,0.0,1.0,0.0,0.0,0.0,1.0
1463563798785860423,755,1463563798718173614,,-9.30822944641,0.741683185101,-115.751724243,0.0100990002975,1.0,0.0,0.0,0.0,1.0,0.0,0.0,0.0,1.0,30.8536605835,-10.6097564697,3.7804877758,1.0,0.0,0.0,0.0,1.0,0.0,0.0,0.0,1.0,-0.191536132812,1.61369191895,-9.60074924175,1.0,0.0,0.0,0.0,1.0,0.0,0.0,0.0,1.0
1463563798785902350,756,1463563798728754544,,-9.00275230408,0.621469318867,-115.688957214,0.0101030003279,1.0,0.0,0.0,0.0,1.0,0.0,0.0,0.0,1.0,30.7317066193,-12.5609760284,2.5,1.0,0.0,0.0,0.0,1.0,0.0,0.0,0.0,1.0,-0.272938989258,1.55144267578,-9.80186159668,1.0,0.0,0.0,0.0,1.0,0.0,0.0,0.0,1.0
1463563798785938808,757,1463563798738615843,,-8.71178245544,0.493813633919,-115.634025574,0.010111999698,1.0,0.0,0.0,0.0,1.0,0.0,0.0,0.0,1.0,29.8780498505,-12.9878053665,1.70731711388,1.0,0.0,0.0,0.0,1.0,0.0,0.0,0.0,1.0,-0.320823022461,1.6041151123,-9.81622680664,1.0,0.0,0.0,0.0,1.0,0.0,0.0,0.0,1.0
1463563798785977089,758,1463563798748723391,,-8.43766117096,0.353041261435,-115.573204041,0.0101129999384,1.0,0.0,0.0,0.0,1.0,0.0,0.0,0.0,1.0,29.1463413239,-13.2317075729,2.31707310677,1.0,0.0,0.0,0.0,1.0,0.0,0.0,0.0,1.0,-0.545877978516,1.73340200195,-9.90241806641,1.0,0.0,0.0,0.0,1.0,0.0,0.0,0.0,1.0
1463563798786053130,759,1463563798758837970,,-8.13823032379,0.202218621969,-115.513816833,0.0101250000298,1.0,0.0,0.0,0.0,1.0,0.0,0.0,0.0,1.0,30.5487804413,-13.3536586761,2.19512200356,1.0,0.0,0.0,0.0,1.0,0.0,0.0,0.0,1.0,-0.723048901367,1.51313544922,-10.0556469727,1.0,0.0,0.0,0.0,1.0,0.0,0.0,0.0,1.0
1463563798801434867,760,1463563798768904268,,-7.84942293167,0.0640274882317,-115.456665039,0.0100560002029,1.0,0.0,0.0,0.0,1.0,0.0,0.0,0.0,1.0,29.8780498505,-12.8658542633,2.13414645195,1.0,0.0,0.0,0.0,1.0,0.0,0.0,0.0,1.0,-0.61770402832,1.47961662598,-9.98860932617,1.0,0.0,0.0,0.0,1.0,0.0,0.0,0.0,1.0
1463563798908166979,761,1463563798780167382,,-7.57306003571,-0.0618401169777,-115.3956604,0.0100959995762,1.0,0.0,0.0,0.0,1.0,0.0,0.0,0.0,1.0,29.8170719147,-13.1707324982,2.5,1.0,0.0,0.0,0.0,1.0,0.0,0.0,0.0,1.0,-0.363918652344,1.65199914551,-9.95509050293,1.0,0.0,0.0,0.0,1.0,0.0,0.0,0.0,1.0
1463563798908459373,762,1463563798789569465,,-7.30305528641,-0.19385202229,-115.330032349,0.0101129999384,1.0,0.0,0.0,0.0,1.0,0.0,0.0,0.0,1.0,30.0609760284,-13.2317075729,2.98780488968,1.0,0.0,0.0,0.0,1.0,0.0,0.0,0.0,1.0,-0.483628735352,1.75255561523,-9.8784760498,1.0,0.0,0.0,0.0,1.0,0.0,0.0,0.0,1.0
1463563798909868949,763,1463563798799239932,,-7.02210378647,-0.331901460886,-115.264343262,0.0101030003279,1.0,0.0,0.0,0.0,1.0,0.0,0.0,0.0,1.0,30.6707305908,-13.2317075729,3.04878044128,1.0,0.0,0.0,0.0,1.0,0.0,0.0,0.0,1.0,-0.61770402832,1.63284553223,-10.0077629395,1.0,0.0,0.0,0.0,1.0,0.0,0.0,0.0,1.0
1463563798913541741,764,1463563798809135605,,-6.74574708939,-0.461082875729,-115.196350098,0.010095000267,1.0,0.0,0.0,0.0,1.0,0.0,0.0,0.0,1.0,30.7926845551,-12.5,3.41463422775,1.0,0.0,0.0,0.0,1.0,0.0,0.0,0.0,1.0,-0.612915625,1.66157595215,-9.89762966309,1.0,0.0,0.0,0.0,1.0,0.0,0.0,0.0,1.0
1463563798913910645,765,1463563798819282007,,-6.47999238968,-0.584778487682,-115.120376587,0.0100929997861,1.0,0.0,0.0,0.0,1.0,0.0,0.0,0.0,1.0,30.7926845551,-12.2560977936,4.2682929039,1.0,0.0,0.0,0.0,1.0,0.0,0.0,0.0,1.0,-0.598550451572,1.80522805176,-9.94551369629,1.0,0.0,0.0,0.0,1.0,0.0,0.0,0.0,1.0
1463563798914278091,766,1463563798829603876,,-6.18483924866,-0.70528203249,-115.044883728,0.0101159997284,1.0,0.0,0.0,0.0,1.0,0.0,0.0,0.0,1.0,32.9878044128,-12.0731716156,4.2682929039,1.0,0.0,0.0,0.0,1.0,0.0,0.0,0.0,1.0,-0.588973571866,1.65199914551,-10.0412817627,1.0,0.0,0.0,0.0,1.0,0.0,0.0,0.0,1.0
1463563798914582204,767,1463563798840325796,,-5.86400842667,-0.822562754154,-114.962425232,0.010108999908,1.0,0.0,0.0,0.0,1.0,0.0,0.0,0.0,1.0,33.5365867615,-11.8292684555,5.06097555161,1.0,0.0,0.0,0.0,1.0,0.0,0.0,0.0,1.0,-0.598550451572,1.22104284668,-9.96945571289,1.0,0.0,0.0,0.0,1.0,0.0,0.0,0.0,1.0
1463563798914855431,768,1463563798850950424,,-5.57793283463,-0.934853613377,-114.854438782,0.0100790001452,1.0,0.0,0.0,0.0,1.0,0.0,0.0,0.0,1.0,32.6219520569,-11.8902444839,7.62195110321,1.0,0.0,0.0,0.0,1.0,0.0,0.0,0.0,1.0,-0.574608398438,1.61369191895,-10.1035310059,1.0,0.0,0.0,0.0,1.0,0.0,0.0,0.0,1.0
1463563798915110169,769,1463563798861789686,,-5.26680755615,-1.04352986813,-114.737411499,0.0101140001789,1.0,0.0,0.0,0.0,1.0,0.0,0.0,0.0,1.0,34.0243911743,-11.2804880142,8.59756088257,1.0,0.0,0.0,0.0,1.0,0.0,0.0,0.0,1.0,-0.632069238281,1.36469494629,-10.0125513428,1.0,0.0,0.0,0.0,1.0,0.0,0.0,0.0,1.0
1463563798915383345,770,1463563798869945422,,-4.96546220779,-1.1554274559,-114.609863281,0.0100910002366,1.0,0.0,0.0,0.0,1.0,0.0,0.0,0.0,1.0,33.9634132385,-11.2195119858,9.69512176514,1.0,0.0,0.0,0.0,1.0,0.0,0.0,0.0,1.0,-0.727837304687,1.44609780273,-9.96466730957,1.0,0.0,0.0,0.0,1.0,0.0,0.0,0.0,1.0
1463563798915696520,771,1463563798880895882,,-4.66501331329,-1.26058626175,-114.468780518,0.0101070003584,1.0,0.0,0.0,0.0,1.0,0.0,0.0,0.0,1.0,33.7195129395,-10.0,11.1585359573,1.0,0.0,0.0,0.0,1.0,0.0,0.0,0.0,1.0,-0.852335791016,1.36469494629,-9.96945571289,1.0,0.0,0.0,0.0,1.0,0.0,0.0,0.0,1.0
1463563798915972873,772,1463563798889850050,,-4.3596663475,-1.34852659702,-114.317634583,0.0100870002061,1.0,0.0,0.0,0.0,1.0,0.0,0.0,0.0,1.0,33.7195129395,-8.84146404266,12.3170728683,1.0,0.0,0.0,0.0,1.0,0.0,0.0,0.0,1.0,-0.775721337891,1.20188930646,-9.94551369629,1.0,0.0,0.0,0.0,1.0,0.0,0.0,0.0,1.0
1463563799010549011,773,1463563798900340877,,-4.07037401199,-1.43913531303,-114.15411377,0.0101020000875,1.0,0.0,0.0,0.0,1.0,0.0,0.0,0.0,1.0,33.4146347046,-8.5365858078,13.5365858078,1.0,0.0,0.0,0.0,1.0,0.0,0.0,0.0,1.0,-0.895431420898,1.37906015625,-9.95987890625,1.0,0.0,0.0,0.0,1.0,0.0,0.0,0.0,1.0
1463563799012982852,774,1463563798910259207,,-3.77280640602,-1.51094663143,-113.98739624,0.010108999908,1.0,0.0,0.0,0.0,1.0,0.0,0.0,0.0,1.0,34.8780479431,-7.68292665482,13.9024391174,1.0,0.0,0.0,0.0,1.0,0.0,0.0,0.0,1.0,-0.713472094727,1.42694418945,-9.86411083984,1.0,0.0,0.0,0.0,1.0,0.0,0.0,0.0,1.0
1463563799013564255,775,1463563798920450035,,-3.46752667427,-1.57471370697,-113.806549072,0.0100899999961,1.0,0.0,0.0,0.0,1.0,0.0,0.0,0.0,1.0,35.4878044128,-7.50000047684,15.3658533096,1.0,0.0,0.0,0.0,1.0,0.0,0.0,0.0,1.0,-0.622492431641,1.33117612305,-9.90241806641,1.0,0.0,0.0,0.0,1.0,0.0,0.0,0.0,1.0
1463563799013940294,776,1463563798930526594,,-3.15855693817,-1.63197624683,-113.602355957,0.0100969998166,1.0,0.0,0.0,0.0,1.0,0.0,0.0,0.0,1.0,35.1829299927,-7.74390268326,17.6829280853,1.0,0.0,0.0,0.0,1.0,0.0,0.0,0.0,1.0,-0.493205541992,1.17315874041,-10.1370498291,1.0,0.0,0.0,0.0,1.0,0.0,0.0,0.0,1.0
1463563799014219720,777,1463563798940774349,,-2.84994769096,-1.69207143784,-113.386154175,0.0101049998775,1.0,0.0,0.0,0.0,1.0,0.0,0.0,0.0,1.0,34.6951217651,-8.5365858078,18.841463089,1.0,0.0,0.0,0.0,1.0,0.0,0.0,0.0,1.0,-0.407014282227,1.04387185076,-10.2759135254,1.0,0.0,0.0,0.0,1.0,0.0,0.0,0.0,1.0
1463563799014531333,778,1463563798950896480,,-2.54656267166,-1.76013803482,-113.175605774,0.0101100001484,1.0,0.0,0.0,0.0,1.0,0.0,0.0,0.0,1.0,34.4512214661,-9.75609779358,18.2317085266,1.0,0.0,0.0,0.0,1.0,0.0,0.0,0.0,1.0,-0.316034619141,1.04866025408,-10.3716815918,1.0,0.0,0.0,0.0,1.0,0.0,0.0,0.0,1.0
1463563799014573364,779,1463563798960777206,,-2.25424790382,-1.8489279747,-112.958892822,0.0100999996066,1.0,0.0,0.0,0.0,1.0,0.0,0.0,0.0,1.0,33.5975608826,-10.9146347046,18.841463089,1.0,0.0,0.0,0.0,1.0,0.0,0.0,0.0,1.0,-0.493205541992,1.0534486574,-10.673351001,1.0,0.0,0.0,0.0,1.0,0.0,0.0,0.0,1.0
1463563799014834195,780,1463563798971126575,,-1.93858337402,-1.96040904522,-112.744110107,0.0101169999689,1.0,0.0,0.0,0.0,1.0,0.0,0.0,0.0,1.0,32.9878044128,-11.7073173523,18.7195110321,1.0,0.0,0.0,0.0,1.0,0.0,0.0,0.0,1.0,-0.751779321289,0.445321508789,-10.5871597412,1.0,0.0,0.0,0.0,1.0,0.0,0.0,0.0,1.0
1463563799028509171,781,1463563798981598652,,-1.66524994373,-2.06396961212,-112.543693542,0.0100809996948,1.0,0.0,0.0,0.0,1.0,0.0,0.0,0.0,1.0,30.5487804413,-12.9878053665,17.317073822,1.0,0.0,0.0,0.0,1.0,0.0,0.0,0.0,1.0,-0.383072265625,0.732625708008,-11.1234609131,1.0,0.0,0.0,0.0,1.0,0.0,0.0,0.0,1.0
1463563799028828024,782,1463563798995537116,,-1.42551326752,-2.1853723526,-112.347587585,0.0101789999753,1.0,0.0,0.0,0.0,1.0,0.0,0.0,0.0,1.0,28.5975608826,-14.5121955872,16.6463413239,1.0,0.0,0.0,0.0,1.0,0.0,0.0,0.0,1.0,-0.407014282227,0.991199487305,-11.0851536865,1.0,0.0,0.0,0.0,1.0,0.0,0.0,0.0,1.0
1463563799028869377,783,1463563799001056772,,-1.18893814087,-2.30738902092,-112.163841248,0.0100119998679,1.0,0.0,0.0,0.0,1.0,0.0,0.0,0.0,1.0,27.8048782349,-15.3048791885,15.7926826477,1.0,0.0,0.0,0.0,1.0,0.0,0.0,0.0,1.0,-0.3064578125,0.77093293457,-11.0755768799,1.0,0.0,0.0,0.0,1.0,0.0,0.0,0.0,1.0
1463563799029136928,784,1463563799010978332,,-0.959084093571,-2.45327830315,-111.989097595,0.0100969998166,1.0,0.0,0.0,0.0,1.0,0.0,0.0,0.0,1.0,25.7926845551,-16.8292694092,14.8170728683,1.0,0.0,0.0,0.0,1.0,0.0,0.0,0.0,1.0,-0.45489831543,0.497993945312,-11.03248125,1.0,0.0,0.0,0.0,1.0,0.0,0.0,0.0,1.0
1463563799112337609,785,1463563799021750459,,-0.752508699894,-2.61292290688,-111.820556641,0.0103959999979,1.0,0.0,0.0,0.0,1.0,0.0,0.0,0.0,1.0,23.5975627899,-18.5365848541,13.7195129395,1.0,0.0,0.0,0.0,1.0,0.0,0.0,0.0,1.0,-0.325611425781,0.61770402832,-11.5352635986,1.0,0.0,0.0,0.0,1.0,0.0,0.0,0.0,1.0
1463563799112621566,786,1463563799031857434,,-0.57385712862,-2.79372906685,-111.668540955,0.0098959999159,1.0,0.0,0.0,0.0,1.0,0.0,0.0,0.0,1.0,21.4024391174,-19.6951236725,12.9268293381,1.0,0.0,0.0,0.0,1.0,0.0,0.0,0.0,1.0,-0.670376464844,0.474051928711,-10.9893856201,1.0,0.0,0.0,0.0,1.0,0.0,0.0,0.0,1.0
1463563799112920939,787,1463563799042329875,,-0.417238414288,-2.98794937134,-111.526916504,0.0102099999785,1.0,0.0,0.0,0.0,1.0,0.0,0.0,0.0,1.0,18.9634151459,-20.6097564697,11.4634151459,1.0,0.0,0.0,0.0,1.0,0.0,0.0,0.0,1.0,-0.675164868164,0.507570751953,-11.1952869629,1.0,0.0,0.0,0.0,1.0,0.0,0.0,0.0,1.0
1463563799114829730,788,1463563799052607526,,-0.292273551226,-3.19432687759,-111.393730164,0.0102829998359,1.0,0.0,0.0,0.0,1.0,0.0,0.0,0.0,1.0,16.4634151459,-20.9146347046,10.548781395,1.0,0.0,0.0,0.0,1.0,0.0,0.0,0.0,1.0,-0.837970581055,0.603338854892,-10.9941740234,1.0,0.0,0.0,0.0,1.0,0.0,0.0,0.0,1.0
1463563799115183062,789,1463563799062431794,,-0.185508713126,-3.38178873062,-111.274993896,0.00985800009221,1.0,0.0,0.0,0.0,1.0,0.0,0.0,0.0,1.0,14.6951217651,-20.7317085266,9.69512176514,1.0,0.0,0.0,0.0,1.0,0.0,0.0,0.0,1.0,-0.708683691406,0.497993945312,-11.0947304932,1.0,0.0,0.0,0.0,1.0,0.0,0.0,0.0,1.0
1463563799115481810,790,1463563799072174865,,-0.100140281022,-3.57244443893,-111.157936096,0.00998399965465,1.0,0.0,0.0,0.0,1.0,0.0,0.0,0.0,1.0,12.5609760284,-21.0365848541,9.39024448395,1.0,0.0,0.0,0.0,1.0,0.0,0.0,0.0,1.0,-0.684741674805,0.493205541992,-10.898405957,1.0,0.0,0.0,0.0,1.0,0.0,0.0,0.0,1.0
1463563799115754361,791,1463563799083124126,,-0.0458487682045,-3.76935815811,-111.050613403,0.0101250000298,1.0,0.0,0.0,0.0,1.0,0.0,0.0,0.0,1.0,11.1585359573,-21.158536911,8.17073154449,1.0,0.0,0.0,0.0,1.0,0.0,0.0,0.0,1.0,-0.76135612793,0.828393774414,-10.8744639404,1.0,0.0,0.0,0.0,1.0,0.0,0.0,0.0,1.0
1463563799116051442,792,1463563799096886914,,0.0335001796484,-4.05428314209,-110.918655396,0.0147029999644,1.0,0.0,0.0,0.0,1.0,0.0,0.0,0.0,1.0,10.7317075729,-20.7317085266,6.58536624908,1.0,0.0,0.0,0.0,1.0,0.0,0.0,0.0,1.0,-0.871489404297,0.746990917969,-10.9462899902,1.0,0.0,0.0,0.0,1.0,0.0,0.0,0.0,1.0
1463563799179227027,793,1463563799102896203,,0.0638778731227,-4.15968418121,-110.874252319,0.00556100020185,1.0,0.0,0.0,0.0,1.0,0.0,0.0,0.0,1.0,10.6097564697,-19.7560977936,5.60975599289,1.0,0.0,0.0,0.0,1.0,0.0,0.0,0.0,1.0,-1.03908344744,0.708683691406,-11.01811604,1.0,0.0,0.0,0.0,1.0,0.0,0.0,0.0,1.0
1463563799181544983,794,1463563799119202206,,0.157011598349,-4.45326137543,-110.753814697,0.0170259997249,1.0,0.0,0.0,0.0,1.0,0.0,0.0,0.0,1.0,10.7926826477,-17.3780498505,4.69512224197,1.0,0.0,0.0,0.0,1.0,0.0,0.0,0.0,1.0,-1.18273554705,0.742202514648,-10.9558667969,1.0,0.0,0.0,0.0,1.0,0.0,0.0,0.0,1.0
1463563799181914303,795,1463563799122228491,,0.172389149666,-4.50268173218,-110.733718872,0.00312300003134,1.0,0.0,0.0,0.0,1.0,0.0,0.0,0.0,1.0,10.6097564697,-16.9512195587,4.02439022064,1.0,0.0,0.0,0.0,1.0,0.0,0.0,0.0,1.0,-1.04387185076,0.799663354492,-10.9462899902,1.0,0.0,0.0,0.0,1.0,0.0,0.0,0.0,1.0
1463563799182191750,796,1463563799132805724,,0.220295369625,-4.64845991135,-110.668464661,0.0100750001147,1.0,0.0,0.0,0.0,1.0,0.0,0.0,0.0,1.0,10.9146347046,-15.6097564697,4.02439022064,1.0,0.0,0.0,0.0,1.0,0.0,0.0,0.0,1.0,-1.04866025408,0.885854614258,-10.9319247803,1.0,0.0,0.0,0.0,1.0,0.0,0.0,0.0,1.0
1463563799182490863,797,1463563799142840251,,0.271630108356,-4.78027820587,-110.604431152,0.010098000057,1.0,0.0,0.0,0.0,1.0,0.0,0.0,0.0,1.0,11.7682924271,-14.0243902206,3.84146332741,1.0,0.0,0.0,0.0,1.0,0.0,0.0,0.0,1.0,-1.10612116699,0.976834277344,-10.9031943604,1.0,0.0,0.0,0.0,1.0,0.0,0.0,0.0,1.0
1463563799182739820,798,1463563799153052069,,0.353038102388,-4.89217042923,-110.550819397,0.0100999996066,1.0,0.0,0.0,0.0,1.0,0.0,0.0,0.0,1.0,13.2317075729,-12.2560977936,2.92682933807,1.0,0.0,0.0,0.0,1.0,0.0,0.0,0.0,1.0,-1.08217922346,0.679953271484,-10.8217915039,1.0,0.0,0.0,0.0,1.0,0.0,0.0,0.0,1.0
1463563799183003881,799,1463563799163207637,,0.420266926289,-4.98812484741,-110.486068726,0.010108999908,1.0,0.0,0.0,0.0,1.0,0.0,0.0,0.0,1.0,11.7682924271,-10.6707315445,4.02439022064,1.0,0.0,0.0,0.0,1.0,0.0,0.0,0.0,1.0,-1.09654436035,0.632069238281,-10.7834842773,1.0,0.0,0.0,0.0,1.0,0.0,0.0,0.0,1.0
1463563799185026057,800,1463563799173105186,,0.474525898695,-5.0623292923,-110.40486145,0.0101269995794,1.0,0.0,0.0,0.0,1.0,0.0,0.0,0.0,1.0,9.93902492523,-8.47560977936,5.67073154449,1.0,0.0,0.0,0.0,1.0,0.0,0.0,0.0,1.0,-1.13006318359,0.493205541992,-10.912771167,1.0,0.0,0.0,0.0,1.0,0.0,0.0,0.0,1.0
1463563799363017979,801,1463563799183451951,,0.512079715729,-5.11635684967,-110.31678772,0.0101979998872,1.0,0.0,0.0,0.0,1.0,0.0,0.0,0.0,1.0,8.90243911743,-6.7682929039,6.21951246262,1.0,0.0,0.0,0.0,1.0,0.0,0.0,0.0,1.0,-1.07739082014,0.593762048251,-10.8936175537,1.0,0.0,0.0,0.0,1.0,0.0,0.0,0.0,1.0
1463563799363335529,802,1463563799193256532,,0.537943542004,-5.15250635147,-110.218711853,0.0101250000298,1.0,0.0,0.0,0.0,1.0,0.0,0.0,0.0,1.0,7.74390268326,-5.12195110321,7.25609779358,1.0,0.0,0.0,0.0,1.0,0.0,0.0,0.0,1.0,-1.05823706072,0.555454785156,-10.7834842773,1.0,0.0,0.0,0.0,1.0,0.0,0.0,0.0,1.0
1463563799363631100,803,1463563799203382256,,0.542975842953,-5.17649793625,-110.113876343,0.00996400043368,1.0,0.0,0.0,0.0,1.0,0.0,0.0,0.0,1.0,5.97560977936,-3.59756112099,8.04878044128,1.0,0.0,0.0,0.0,1.0,0.0,0.0,0.0,1.0,-1.13963999023,0.593762048251,-10.8505219238,1.0,0.0,0.0,0.0,1.0,0.0,0.0,0.0,1.0
1463563799363947817,804,1463563799213754698,,0.538337290287,-5.1851940155,-110.006668091,0.0100779999048,1.0,0.0,0.0,0.0,1.0,0.0,0.0,0.0,1.0,5.48780488968,-2.07317066193,8.10975551605,1.0,0.0,0.0,0.0,1.0,0.0,0.0,0.0,1.0,-1.13485158691,0.679953271484,-10.8026378906,1.0,0.0,0.0,0.0,1.0,0.0,0.0,0.0,1.0
1463563799364252555,805,1463563799224298910,,0.528332352638,-5.18050050735,-109.90007782,0.0101180002093,1.0,0.0,0.0,0.0,1.0,0.0,0.0,0.0,1.0,5.0,-0.731707334518,7.98780536652,1.0,0.0,0.0,0.0,1.0,0.0,0.0,0.0,1.0,-1.13006318359,0.684741674805,-10.7116582275,1.0,0.0,0.0,0.0,1.0,0.0,0.0,0.0,1.0
1463563799364743230,806,1463563799233725472,,0.515950858593,-5.15475273132,-109.795715332,0.0101340003312,1.0,0.0,0.0,0.0,1.0,0.0,0.0,0.0,1.0,4.75609779358,0.365853667259,7.74390268326,1.0,0.0,0.0,0.0,1.0,0.0,0.0,0.0,1.0,-0.938527050781,0.684741674805,-10.6637741943,1.0,0.0,0.0,0.0,1.0,0.0,0.0,0.0,1.0
1463563799365066301,807,1463563799244104425,,0.513571023941,-5.12556886673,-109.694740295,0.0100870002061,1.0,0.0,0.0,0.0,1.0,0.0,0.0,0.0,1.0,5.24390268326,0.731707334518,7.50000047684,1.0,0.0,0.0,0.0,1.0,0.0,0.0,0.0,1.0,-0.952892260742,0.60812722168,-10.8457335205,1.0,0.0,0.0,0.0,1.0,0.0,0.0,0.0,1.0
1463563799365370882,808,1463563799254085671,,0.502768933773,-5.08352088928,-109.597999573,0.0100750001147,1.0,0.0,0.0,0.0,1.0,0.0,0.0,0.0,1.0,5.24390268326,1.2804877758,7.01219511032,1.0,0.0,0.0,0.0,1.0,0.0,0.0,0.0,1.0,-0.804451757813,0.775721337891,-10.8122146973,1.0,0.0,0.0,0.0,1.0,0.0,0.0,0.0,1.0
1463563799366642698,809,1463563799264041605,,0.507661581039,-5.03506851196,-109.505149841,0.0100910002366,1.0,0.0,0.0,0.0,1.0,0.0,0.0,0.0,1.0,5.79268312454,1.40243899822,6.70731735229,1.0,0.0,0.0,0.0,1.0,0.0,0.0,0.0,1.0,-0.703895288086,0.593762048251,-10.8696755371,1.0,0.0,0.0,0.0,1.0,0.0,0.0,0.0,1.0
1463563799367008998,810,1463563799276607003,,0.513342142105,-4.98437404633,-109.408416748,0.0101290000603,1.0,0.0,0.0,0.0,1.0,0.0,0.0,0.0,1.0,5.0,1.46341466904,7.13414621353,1.0,0.0,0.0,0.0,1.0,0.0,0.0,0.0,1.0,-0.660799658203,0.416591088867,-10.7739074707,1.0,0.0,0.0,0.0,1.0,0.0,0.0,0.0,1.0
1463563799367314934,811,1463563799288873341,,0.511698842049,-4.94137144089,-109.311828613,0.0100880004466,1.0,0.0,0.0,0.0,1.0,0.0,0.0,0.0,1.0,3.90243911743,1.2804877758,7.19512224197,1.0,0.0,0.0,0.0,1.0,0.0,0.0,0.0,1.0,-0.756567724609,0.344765039063,-10.7547538574,1.0,0.0,0.0,0.0,1.0,0.0,0.0,0.0,1.0
1463563799367626338,812,1463563799297384700,,0.492415606976,-4.8985915184,-109.218299866,0.010095000267,1.0,0.0,0.0,0.0,1.0,0.0,0.0,0.0,1.0,2.19512200356,0.487804889679,6.89024400711,1.0,0.0,0.0,0.0,1.0,0.0,0.0,0.0,1.0,-0.603338854892,0.359130249023,-10.7595422607,1.0,0.0,0.0,0.0,1.0,0.0,0.0,0.0,1.0
1463563799367936805,813,1463563799303948309,,0.461996346712,-4.8652844429,-109.125808716,0.0100809996948,1.0,0.0,0.0,0.0,1.0,0.0,0.0,0.0,1.0,1.52439022064,0.304878056049,6.7682929039,1.0,0.0,0.0,0.0,1.0,0.0,0.0,0.0,1.0,-0.732625708008,0.445321508789,-10.6637741943,1.0,0.0,0.0,0.0,1.0,0.0,0.0,0.0,1.0
1463563799368278210,814,1463563799314886685,,0.424494922161,-4.8354883194,-109.03730011,0.0103080002591,1.0,0.0,0.0,0.0,1.0,0.0,0.0,0.0,1.0,1.8902438879,0.426829278469,6.09756088257,1.0,0.0,0.0,0.0,1.0,0.0,0.0,0.0,1.0,-0.837970581055,0.656011254883,-10.7739074707,1.0,0.0,0.0,0.0,1.0,0.0,0.0,0.0,1.0
1463563799368563989,815,1463563799324632100,,0.395372629166,-4.80332517624,-108.963279724,0.0102209998295,1.0,0.0,0.0,0.0,1.0,0.0,0.0,0.0,1.0,2.68292689323,0.304878056049,4.75609779358,1.0,0.0,0.0,0.0,1.0,0.0,0.0,0.0,1.0,-0.76135612793,0.684741674805,-10.7547538574,1.0,0.0,0.0,0.0,1.0,0.0,0.0,0.0,1.0
1463563799368847009,816,1463563799334901678,,0.386879742146,-4.77026367188,-108.906822205,0.00991300027817,1.0,0.0,0.0,0.0,1.0,0.0,0.0,0.0,1.0,3.7804877758,0.0,3.29268312454,1.0,0.0,0.0,0.0,1.0,0.0,0.0,0.0,1.0,-0.660799658203,0.541089611728,-10.7068698242,1.0,0.0,0.0,0.0,1.0,0.0,0.0,0.0,1.0
1463563799404182749,817,1463563799345292453,,0.385138392448,-4.75239896774,-108.85735321,0.0101690003648,1.0,0.0,0.0,0.0,1.0,0.0,0.0,0.0,1.0,4.08536577225,-0.731707334518,2.5,1.0,0.0,0.0,0.0,1.0,0.0,0.0,0.0,1.0,-0.823605371094,0.488417138672,-10.7978494873,1.0,0.0,0.0,0.0,1.0,0.0,0.0,0.0,1.0
1463563799404478945,818,1463563799355055055,,0.383818805218,-4.73781919479,-108.813751221,0.00998600013554,1.0,0.0,0.0,0.0,1.0,0.0,0.0,0.0,1.0,4.75609779358,-0.975609779358,1.95121955872,1.0,0.0,0.0,0.0,1.0,0.0,0.0,0.0,1.0,-0.823605371094,0.612915625,-10.7020814209,1.0,0.0,0.0,0.0,1.0,0.0,0.0,0.0,1.0
1463563799404774881,819,1463563799365265362,,0.395098686218,-4.71638202667,-108.774253845,0.0101720001549,1.0,0.0,0.0,0.0,1.0,0.0,0.0,0.0,1.0,5.30487823486,-0.731707334518,1.52439022064,1.0,0.0,0.0,0.0,1.0,0.0,0.0,0.0,1.0,-0.751779321289,0.493205541992,-10.8026378906,1.0,0.0,0.0,0.0,1.0,0.0,0.0,0.0,1.0
