%time,field.header.seq,field.header.stamp,field.header.frame_id,field.orientation.x,field.orientation.y,field.orientation.z,field.orientation.w,field.orientation_covariance0,field.orientation_covariance1,field.orientation_covariance2,field.orientation_covariance3,field.orientation_covariance4,field.orientation_covariance5,field.orientation_covariance6,field.orientation_covariance7,field.orientation_covariance8,field.angular_velocity.x,field.angular_velocity.y,field.angular_velocity.z,field.angular_velocity_covariance0,field.angular_velocity_covariance1,field.angular_velocity_covariance2,field.angular_velocity_covariance3,field.angular_velocity_covariance4,field.angular_velocity_covariance5,field.angular_velocity_covariance6,field.angular_velocity_covariance7,field.angular_velocity_covariance8,field.linear_acceleration.x,field.linear_acceleration.y,field.linear_acceleration.z,field.linear_acceleration_covariance0,field.linear_acceleration_covariance1,field.linear_acceleration_covariance2,field.linear_acceleration_covariance3,field.linear_acceleration_covariance4,field.linear_acceleration_covariance5,field.linear_acceleration_covariance6,field.linear_acceleration_covariance7,field.linear_acceleration_covariance8
1480335202842061007,440,1480335202552907955,,4.3438372612,-3.36643338203,177.903488159,0.00109899998643,1.0,0.0,0.0,0.0,1.0,0.0,0.0,0.0,1.0,0.0609756112099,2.86585378647,-0.426829278469,1.0,0.0,0.0,0.0,1.0,0.0,0.0,0.0,1.0,0.143652099609,-0.502782348633,10.2471831055,1.0,0.0,0.0,0.0,1.0,0.0,0.0,0.0,1.0
1480335202851086025,441,1480335202574617694,,4.35430622101,-3.3683052063,177.876525879,0.00132399995346,1.0,0.0,0.0,0.0,1.0,0.0,0.0,0.0,1.0,-0.243902444839,2.68292689323,-0.670731723309,1.0,0.0,0.0,0.0,1.0,0.0,0.0,0.0,1.0,0.100556469727,-0.560243188477,10.2902787354,1.0,0.0,0.0,0.0,1.0,0.0,0.0,0.0,1.0
1480335202851157014,442,1480335202598143249,,4.36736345291,-3.36752605438,177.851837158,0.00115100003313,1.0,0.0,0.0,0.0,1.0,0.0,0.0,0.0,1.0,0.0609756112099,3.65853667259,-0.304878056049,1.0,0.0,0.0,0.0,1.0,0.0,0.0,0.0,1.0,0.0287304199219,-0.545877978516,10.2423947021,1.0,0.0,0.0,0.0,1.0,0.0,0.0,0.0,1.0
1480335202851246180,443,1480335202621159798,,4.39249706268,-3.36357617378,177.829956055,0.00499399984255,1.0,0.0,0.0,0.0,1.0,0.0,0.0,0.0,1.0,0.0609756112099,3.17073178291,-0.487804889679,1.0,0.0,0.0,0.0,1.0,0.0,0.0,0.0,1.0,0.0478840332031,-0.536301208408,10.3046439453,1.0,0.0,0.0,0.0,1.0,0.0,0.0,0.0,1.0
1480335202851282169,444,1480335202643766143,,4.4130320549,-3.36512684822,177.811340332,0.00446600001305,1.0,0.0,0.0,0.0,1.0,0.0,0.0,0.0,1.0,-0.12195122242,2.74390244484,-0.18292683363,1.0,0.0,0.0,0.0,1.0,0.0,0.0,0.0,1.0,-0.00478840332031,-0.61770402832,10.299855542,1.0,0.0,0.0,0.0,1.0,0.0,0.0,0.0,1.0
1480335202851317950,445,1480335202666325614,,4.42368125916,-3.36593604088,177.794586182,0.00220500002615,1.0,0.0,0.0,0.0,1.0,0.0,0.0,0.0,1.0,0.18292683363,2.98780488968,-0.365853667259,1.0,0.0,0.0,0.0,1.0,0.0,0.0,0.0,1.0,0.0335188255255,-0.521935925381,10.1992990723,1.0,0.0,0.0,0.0,1.0,0.0,0.0,0.0,1.0
1480335202851351699,446,1480335202686611929,,4.43078279495,-3.36758852005,177.774108887,0.00162100000307,1.0,0.0,0.0,0.0,1.0,0.0,0.0,0.0,1.0,0.0609756112099,2.68292689323,-0.670731723309,1.0,0.0,0.0,0.0,1.0,0.0,0.0,0.0,1.0,0.067037651051,-0.517147558594,10.2136642822,1.0,0.0,0.0,0.0,1.0,0.0,0.0,0.0,1.0
1480335202851402324,447,1480335202707844277,,4.43942737579,-3.36914896965,177.751754761,0.00155199994333,1.0,0.0,0.0,0.0,1.0,0.0,0.0,0.0,1.0,0.18292683363,2.37804889679,-0.426829278469,1.0,0.0,0.0,0.0,1.0,0.0,0.0,0.0,1.0,-0.067037651051,-0.636857641602,10.2280294922,1.0,0.0,0.0,0.0,1.0,0.0,0.0,0.0,1.0
1480335202851436021,448,1480335202730370988,,4.44691610336,-3.37022137642,177.734024048,0.00515699991956,1.0,0.0,0.0,0.0,1.0,0.0,0.0,0.0,1.0,0.304878056049,2.31707310677,-0.243902444839,1.0,0.0,0.0,0.0,1.0,0.0,0.0,0.0,1.0,-0.0191536132812,-0.545877978516,10.2423947021,1.0,0.0,0.0,0.0,1.0,0.0,0.0,0.0,1.0
1480335202851495865,449,1480335202749093047,,4.44356536865,-3.37366890907,177.717651367,0.00113099999726,1.0,0.0,0.0,0.0,1.0,0.0,0.0,0.0,1.0,-0.18292683363,2.43902444839,-0.365853667259,1.0,0.0,0.0,0.0,1.0,0.0,0.0,0.0,1.0,0.0287304199219,-0.732625708008,10.1514150391,1.0,0.0,0.0,0.0,1.0,0.0,0.0,0.0,1.0
1480335202851990599,450,1480335202770451904,,4.44019556046,-3.36894631386,177.702789307,0.00196000002325,1.0,0.0,0.0,0.0,1.0,0.0,0.0,0.0,1.0,0.12195122242,2.43902444839,-0.18292683363,1.0,0.0,0.0,0.0,1.0,0.0,0.0,0.0,1.0,0.0239420166016,-0.555454785156,10.1370498291,1.0,0.0,0.0,0.0,1.0,0.0,0.0,0.0,1.0
1480335202852085963,451,1480335202793044500,,4.44100904465,-3.36322021484,177.687774658,0.00165899994317,1.0,0.0,0.0,0.0,1.0,0.0,0.0,0.0,1.0,-0.304878056049,2.56097555161,0.0,1.0,0.0,0.0,0.0,1.0,0.0,0.0,0.0,1.0,0.0814028564453,-0.627280834961,10.2471831055,1.0,0.0,0.0,0.0,1.0,0.0,0.0,0.0,1.0
1480335202852129192,452,1480335202816560680,,4.44383001328,-3.3670938015,177.670974731,0.00161699997261,1.0,0.0,0.0,0.0,1.0,0.0,0.0,0.0,1.0,0.243902444839,2.68292689323,-0.18292683363,1.0,0.0,0.0,0.0,1.0,0.0,0.0,0.0,1.0,0.105344873047,-0.612915625,10.1992990723,1.0,0.0,0.0,0.0,1.0,0.0,0.0,0.0,1.0
1480335202852197368,453,1480335202833989314,,4.44729185104,-3.36740684509,177.649810791,0.0010890000267,1.0,0.0,0.0,0.0,1.0,0.0,0.0,0.0,1.0,-0.0609756112099,2.74390244484,-0.487804889679,1.0,0.0,0.0,0.0,1.0,0.0,0.0,0.0,1.0,0.0383072265625,-0.541089611728,10.1945106689,1.0,0.0,0.0,0.0,1.0,0.0,0.0,0.0,1.0
1480335202862301802,454,1480335202855512180,,4.45133066177,-3.36937475204,177.630004883,0.0010450000409,1.0,0.0,0.0,0.0,1.0,0.0,0.0,0.0,1.0,0.0609756112099,3.04878044128,-0.243902444839,1.0,0.0,0.0,0.0,1.0,0.0,0.0,0.0,1.0,0.076614453125,-0.632069238281,10.2423947021,1.0,0.0,0.0,0.0,1.0,0.0,0.0,0.0,1.0
1480335202880839437,455,1480335202875916619,,4.46412467957,-3.37463092804,177.617263794,0.00101600005291,1.0,0.0,0.0,0.0,1.0,0.0,0.0,0.0,1.0,0.0609756112099,3.17073178291,0.12195122242,1.0,0.0,0.0,0.0,1.0,0.0,0.0,0.0,1.0,0.105344873047,-0.641646044922,10.180145459,1.0,0.0,0.0,0.0,1.0,0.0,0.0,0.0,1.0
1480335202910203060,456,1480335202902568707,,4.47832393646,-3.37886428833,177.603637695,0.00105800002348,1.0,0.0,0.0,0.0,1.0,0.0,0.0,0.0,1.0,-0.243902444839,3.17073178291,-0.12195122242,1.0,0.0,0.0,0.0,1.0,0.0,0.0,0.0,1.0,-0.0335188255255,-0.603338854892,10.3094323486,1.0,0.0,0.0,0.0,1.0,0.0,0.0,0.0,1.0
1480335202924532558,457,1480335202919602293,,4.50428724289,-3.37712788582,177.586074829,0.00235299998894,1.0,0.0,0.0,0.0,1.0,0.0,0.0,0.0,1.0,0.0,2.68292689323,-0.243902444839,1.0,0.0,0.0,0.0,1.0,0.0,0.0,0.0,1.0,0.0287304199219,-0.512359155273,10.1945106689,1.0,0.0,0.0,0.0,1.0,0.0,0.0,0.0,1.0
1480335202943238524,458,1480335202940975317,,4.51490306854,-3.3744263649,177.569488525,0.00123199995141,1.0,0.0,0.0,0.0,1.0,0.0,0.0,0.0,1.0,-0.0609756112099,2.56097555161,-0.243902444839,1.0,0.0,0.0,0.0,1.0,0.0,0.0,0.0,1.0,0.0478840332031,-0.521935925381,10.2232410889,1.0,0.0,0.0,0.0,1.0,0.0,0.0,0.0,1.0
1480335202964776286,459,1480335202962625838,,4.5194401741,-3.36436653137,177.554641724,0.00234099989757,1.0,0.0,0.0,0.0,1.0,0.0,0.0,0.0,1.0,0.12195122242,2.62195134163,-0.18292683363,1.0,0.0,0.0,0.0,1.0,0.0,0.0,0.0,1.0,0.0383072265625,-0.421379492187,10.2040874756,1.0,0.0,0.0,0.0,1.0,0.0,0.0,0.0,1.0
1480335202985567804,460,1480335202983419856,,4.5204000473,-3.35897898674,177.538909912,0.0011340000201,1.0,0.0,0.0,0.0,1.0,0.0,0.0,0.0,1.0,0.12195122242,2.37804889679,-0.18292683363,1.0,0.0,0.0,0.0,1.0,0.0,0.0,0.0,1.0,0.0718260498047,-0.579396801758,10.1609918457,1.0,0.0,0.0,0.0,1.0,0.0,0.0,0.0,1.0
1480335203007975349,461,1480335203005627872,,4.52040243149,-3.36333680153,177.523254395,0.00218300009146,1.0,0.0,0.0,0.0,1.0,0.0,0.0,0.0,1.0,0.0609756112099,2.37804889679,-0.18292683363,1.0,0.0,0.0,0.0,1.0,0.0,0.0,0.0,1.0,-0.00957680664062,-0.569819995117,10.1418382324,1.0,0.0,0.0,0.0,1.0,0.0,0.0,0.0,1.0
1480335203031350906,462,1480335203026189810,,4.51998806,-3.36000061035,177.506713867,0.00122099998407,1.0,0.0,0.0,0.0,1.0,0.0,0.0,0.0,1.0,0.0,2.19512200356,-0.0609756112099,1.0,0.0,0.0,0.0,1.0,0.0,0.0,0.0,1.0,0.0383072265625,-0.632069238281,10.180145459,1.0,0.0,0.0,0.0,1.0,0.0,0.0,0.0,1.0
1480335203051087591,463,1480335203048255691,,4.519135952,-3.36024618149,177.49105835,0.00170300004538,1.0,0.0,0.0,0.0,1.0,0.0,0.0,0.0,1.0,-0.12195122242,2.25609779358,-0.12195122242,1.0,0.0,0.0,0.0,1.0,0.0,0.0,0.0,1.0,0.0335188255255,-0.627280834961,10.2280294922,1.0,0.0,0.0,0.0,1.0,0.0,0.0,0.0,1.0
1480335203072432177,464,1480335203069590121,,4.51713705063,-3.36098027229,177.479141235,0.00122900004499,1.0,0.0,0.0,0.0,1.0,0.0,0.0,0.0,1.0,-0.0609756112099,2.01219511032,0.0609756112099,1.0,0.0,0.0,0.0,1.0,0.0,0.0,0.0,1.0,0.00478840332031,-0.627280834961,10.2615483154,1.0,0.0,0.0,0.0,1.0,0.0,0.0,0.0,1.0
1480335203093213384,465,1480335203090416744,,4.51291465759,-3.35938692093,177.469100952,0.00134099996649,1.0,0.0,0.0,0.0,1.0,0.0,0.0,0.0,1.0,0.0609756112099,2.19512200356,0.243902444839,1.0,0.0,0.0,0.0,1.0,0.0,0.0,0.0,1.0,0.0239420166016,-0.612915625,10.2328178955,1.0,0.0,0.0,0.0,1.0,0.0,0.0,0.0,1.0
1480335203114372243,466,1480335203111560760,,4.50786018372,-3.35958075523,177.45942688,0.0010450000409,1.0,0.0,0.0,0.0,1.0,0.0,0.0,0.0,1.0,0.0609756112099,2.01219511032,-0.0609756112099,1.0,0.0,0.0,0.0,1.0,0.0,0.0,0.0,1.0,0.0430956298828,-0.531512805087,10.0891657959,1.0,0.0,0.0,0.0,1.0,0.0,0.0,0.0,1.0
1480335203134985795,467,1480335203132171030,,4.50212621689,-3.35913944244,177.449066162,0.00133500003722,1.0,0.0,0.0,0.0,1.0,0.0,0.0,0.0,1.0,-0.12195122242,2.01219511032,0.18292683363,1.0,0.0,0.0,0.0,1.0,0.0,0.0,0.0,1.0,0.00957680664062,-0.627280834961,10.2423947021,1.0,0.0,0.0,0.0,1.0,0.0,0.0,0.0,1.0
1480335203155413827,468,1480335203152596459,,4.49462366104,-3.35811781883,177.4400177,0.00116900005378,1.0,0.0,0.0,0.0,1.0,0.0,0.0,0.0,1.0,0.18292683363,2.13414645195,0.0,1.0,0.0,0.0,0.0,1.0,0.0,0.0,0.0,1.0,0.00957680664062,-0.550666381836,10.1992990723,1.0,0.0,0.0,0.0,1.0,0.0,0.0,0.0,1.0
1480335203175794413,469,1480335203172970846,,4.48989343643,-3.36069488525,177.42755127,0.00119099998847,1.0,0.0,0.0,0.0,1.0,0.0,0.0,0.0,1.0,0.18292683363,2.25609779358,0.0,1.0,0.0,0.0,0.0,1.0,0.0,0.0,0.0,1.0,0.0478840332031,-0.622492431641,10.2471831055,1.0,0.0,0.0,0.0,1.0,0.0,0.0,0.0,1.0
1480335203198984242,470,1480335203193828302,,4.47934913635,-3.35836935043,177.411956787,0.00107799994294,1.0,0.0,0.0,0.0,1.0,0.0,0.0,0.0,1.0,-0.0609756112099,1.95121955872,-0.304878056049,1.0,0.0,0.0,0.0,1.0,0.0,0.0,0.0,1.0,0.105344873047,-0.593762048251,10.285490332,1.0,0.0,0.0,0.0,1.0,0.0,0.0,0.0,1.0
1480335203218392909,471,1480335203214785652,,4.47691726685,-3.35578012466,177.397918701,0.00128399999812,1.0,0.0,0.0,0.0,1.0,0.0,0.0,0.0,1.0,-0.0609756112099,2.68292689323,-0.0609756112099,1.0,0.0,0.0,0.0,1.0,0.0,0.0,0.0,1.0,0.134075302102,-0.574608398438,10.2615483154,1.0,0.0,0.0,0.0,1.0,0.0,0.0,0.0,1.0
1480335203240140461,472,1480335203235568942,,4.48266267776,-3.35277748108,177.383361816,0.00110100000165,1.0,0.0,0.0,0.0,1.0,0.0,0.0,0.0,1.0,0.0,2.62195134163,-0.18292683363,1.0,0.0,0.0,0.0,1.0,0.0,0.0,0.0,1.0,0.0287304199219,-0.593762048251,10.0556469727,1.0,0.0,0.0,0.0,1.0,0.0,0.0,0.0,1.0
1480335203262410923,473,1480335203256898320,,4.48700666428,-3.34205293655,177.372314453,0.00112300005276,1.0,0.0,0.0,0.0,1.0,0.0,0.0,0.0,1.0,-0.12195122242,2.62195134163,-0.0609756112099,1.0,0.0,0.0,0.0,1.0,0.0,0.0,0.0,1.0,0.162805712891,-0.517147558594,10.1992990723,1.0,0.0,0.0,0.0,1.0,0.0,0.0,0.0,1.0
1480335203282154171,474,1480335203278393634,,4.4897351265,-3.32923555374,177.360641479,0.00139300001319,1.0,0.0,0.0,0.0,1.0,0.0,0.0,0.0,1.0,0.0609756112099,2.62195134163,-0.0609756112099,1.0,0.0,0.0,0.0,1.0,0.0,0.0,0.0,1.0,0.0957680664062,-0.483628735352,10.1562034424,1.0,0.0,0.0,0.0,1.0,0.0,0.0,0.0,1.0
1480335203303786619,475,1480335203299534681,,4.49287700653,-3.31935071945,177.343688965,0.00133200001437,1.0,0.0,0.0,0.0,1.0,0.0,0.0,0.0,1.0,0.0,2.98780488968,-0.487804889679,1.0,0.0,0.0,0.0,1.0,0.0,0.0,0.0,1.0,0.0814028564453,-0.502782348633,10.180145459,1.0,0.0,0.0,0.0,1.0,0.0,0.0,0.0,1.0
1480335203325651357,476,1480335203319480635,,4.50239372253,-3.31329131126,177.320098877,0.00175499997567,1.0,0.0,0.0,0.0,1.0,0.0,0.0,0.0,1.0,-0.18292683363,3.10975623131,-0.731707334518,1.0,0.0,0.0,0.0,1.0,0.0,0.0,0.0,1.0,0.105344873047,-0.555454785156,10.1897222656,1.0,0.0,0.0,0.0,1.0,0.0,0.0,0.0,1.0
1480335203345031587,477,1480335203341735369,,4.52054738998,-3.31456875801,177.295074463,0.00143199996091,1.0,0.0,0.0,0.0,1.0,0.0,0.0,0.0,1.0,0.0,2.80487799644,-0.304878056049,1.0,0.0,0.0,0.0,1.0,0.0,0.0,0.0,1.0,0.0574608398438,-0.555454785156,10.2040874756,1.0,0.0,0.0,0.0,1.0,0.0,0.0,0.0,1.0
1480335203366251123,478,1480335203361694448,,4.53124666214,-3.32401371002,177.274505615,0.00123699998949,1.0,0.0,0.0,0.0,1.0,0.0,0.0,0.0,1.0,0.304878056049,2.98780488968,0.0,1.0,0.0,0.0,0.0,1.0,0.0,0.0,0.0,1.0,0.0383072265625,-0.660799658203,10.0700121826,1.0,0.0,0.0,0.0,1.0,0.0,0.0,0.0,1.0
1480335203386553428,479,1480335203383385489,,4.54070949554,-3.33593201637,177.254165649,0.0021279999055,1.0,0.0,0.0,0.0,1.0,0.0,0.0,0.0,1.0,-0.12195122242,2.92682933807,-0.243902444839,1.0,0.0,0.0,0.0,1.0,0.0,0.0,0.0,1.0,0.0574608398438,-0.632069238281,10.1992990723,1.0,0.0,0.0,0.0,1.0,0.0,0.0,0.0,1.0
1480335203408727954,480,1480335203405839180,,4.54999065399,-3.35153055191,177.233917236,0.0018380000256,1.0,0.0,0.0,0.0,1.0,0.0,0.0,0.0,1.0,0.0,3.35365867615,-0.243902444839,1.0,0.0,0.0,0.0,1.0,0.0,0.0,0.0,1.0,0.119710083008,-0.689530078125,10.2136642822,1.0,0.0,0.0,0.0,1.0,0.0,0.0,0.0,1.0
1480335203429734939,481,1480335203426877259,,4.56841850281,-3.36318159103,177.212844849,0.0016459999606,1.0,0.0,0.0,0.0,1.0,0.0,0.0,0.0,1.0,0.0609756112099,3.53658556938,-0.548780500889,1.0,0.0,0.0,0.0,1.0,0.0,0.0,0.0,1.0,0.110133276367,-0.646434448242,10.3190091553,1.0,0.0,0.0,0.0,1.0,0.0,0.0,0.0,1.0
1480335203450583333,482,1480335203447308677,,4.59230279922,-3.36522126198,177.190475464,0.00119800004177,1.0,0.0,0.0,0.0,1.0,0.0,0.0,0.0,1.0,0.0,3.84146332741,-0.670731723309,1.0,0.0,0.0,0.0,1.0,0.0,0.0,0.0,1.0,-0.0383072265625,-0.569819995117,10.2759135254,1.0,0.0,0.0,0.0,1.0,0.0,0.0,0.0,1.0
1480335203474724507,483,1480335203471979950,,4.62906932831,-3.36630773544,177.16506958,0.00450700009242,1.0,0.0,0.0,0.0,1.0,0.0,0.0,0.0,1.0,0.0,3.41463422775,-0.12195122242,1.0,0.0,0.0,0.0,1.0,0.0,0.0,0.0,1.0,-0.0478840332031,-0.569819995117,10.2280294922,1.0,0.0,0.0,0.0,1.0,0.0,0.0,0.0,1.0
1480335203495666910,484,1480335203492842197,,4.66282367706,-3.36271119118,177.147766113,0.00101000000723,1.0,0.0,0.0,0.0,1.0,0.0,0.0,0.0,1.0,0.0609756112099,2.74390244484,-0.18292683363,1.0,0.0,0.0,0.0,1.0,0.0,0.0,0.0,1.0,-0.196324536133,-0.603338854892,10.1035310059,1.0,0.0,0.0,0.0,1.0,0.0,0.0,0.0,1.0
1480335203516405825,485,1480335203513381479,,4.67941141129,-3.36322069168,177.131713867,0.00108800001908,1.0,0.0,0.0,0.0,1.0,0.0,0.0,0.0,1.0,0.18292683363,1.34146344662,-0.304878056049,1.0,0.0,0.0,0.0,1.0,0.0,0.0,0.0,1.0,-0.220266552734,-0.545877978516,10.165780249,1.0,0.0,0.0,0.0,1.0,0.0,0.0,0.0,1.0
1480335203537296457,486,1480335203534205445,,4.66460943222,-3.36850452423,177.116012573,0.00103299994953,1.0,0.0,0.0,0.0,1.0,0.0,0.0,0.0,1.0,0.0609756112099,0.731707334518,-0.304878056049,1.0,0.0,0.0,0.0,1.0,0.0,0.0,0.0,1.0,-0.162805712891,-0.622492431641,10.2280294922,1.0,0.0,0.0,0.0,1.0,0.0,0.0,0.0,1.0
1480335203559862803,487,1480335203555172379,,4.62214946747,-3.36964416504,177.104019165,0.0012309999438,1.0,0.0,0.0,0.0,1.0,0.0,0.0,0.0,1.0,0.0,-0.304878056049,-0.0609756112099,1.0,0.0,0.0,0.0,1.0,0.0,0.0,0.0,1.0,0.105344873047,-0.574608398438,10.2088758789,1.0,0.0,0.0,0.0,1.0,0.0,0.0,0.0,1.0
1480335203584264808,488,1480335203577393155,,4.5645160675,-3.36790657043,177.090362549,0.000989999971353,1.0,0.0,0.0,0.0,1.0,0.0,0.0,0.0,1.0,-0.304878056049,0.18292683363,0.0,1.0,0.0,0.0,0.0,1.0,0.0,0.0,0.0,1.0,0.138863696289,-0.488417138672,10.1035310059,1.0,0.0,0.0,0.0,1.0,0.0,0.0,0.0,1.0
1480335203610849656,489,1480335203603872796,,4.51320648193,-3.34266805649,177.087600708,0.00282400008291,1.0,0.0,0.0,0.0,1.0,0.0,0.0,0.0,1.0,0.18292683363,1.2195122242,0.12195122242,1.0,0.0,0.0,0.0,1.0,0.0,0.0,0.0,1.0,0.205901342773,-0.445321508789,10.1274730225,1.0,0.0,0.0,0.0,1.0,0.0,0.0,0.0,1.0
1480335203623392348,490,1480335203620941017,,4.48669528961,-3.33797836304,177.082504272,0.00131800002418,1.0,0.0,0.0,0.0,1.0,0.0,0.0,0.0,1.0,0.12195122242,1.40243899822,0.18292683363,1.0,0.0,0.0,0.0,1.0,0.0,0.0,0.0,1.0,0.15322890625,-0.632069238281,10.2519715088,1.0,0.0,0.0,0.0,1.0,0.0,0.0,0.0,1.0
1480335203647026027,491,1480335203644665060,,4.46311044693,-3.34136748314,177.06741333,0.00407900009304,1.0,0.0,0.0,0.0,1.0,0.0,0.0,0.0,1.0,0.0609756112099,2.25609779358,-0.304878056049,1.0,0.0,0.0,0.0,1.0,0.0,0.0,0.0,1.0,0.148440512063,-0.550666381836,10.2040874756,1.0,0.0,0.0,0.0,1.0,0.0,0.0,0.0,1.0
1480335203668643319,492,1480335203665274445,,4.44651651382,-3.33579087257,177.045898438,0.0018380000256,1.0,0.0,0.0,0.0,1.0,0.0,0.0,0.0,1.0,-0.0609756112099,2.80487799644,-0.548780500889,1.0,0.0,0.0,0.0,1.0,0.0,0.0,0.0,1.0,0.143652099609,-0.574608398438,10.2759135254,1.0,0.0,0.0,0.0,1.0,0.0,0.0,0.0,1.0
1480335203691272216,493,1480335203685540917,,4.44983959198,-3.33931326866,177.024139404,0.00118200003635,1.0,0.0,0.0,0.0,1.0,0.0,0.0,0.0,1.0,-0.304878056049,3.47560977936,-0.304878056049,1.0,0.0,0.0,0.0,1.0,0.0,0.0,0.0,1.0,0.129286889648,-0.593762048251,10.1945106689,1.0,0.0,0.0,0.0,1.0,0.0,0.0,0.0,1.0
1480335203709561259,494,1480335203706582433,,4.47438526154,-3.33707904816,176.999938965,0.00099400000181,1.0,0.0,0.0,0.0,1.0,0.0,0.0,0.0,1.0,0.0609756112099,3.17073178291,-0.792682945728,1.0,0.0,0.0,0.0,1.0,0.0,0.0,0.0,1.0,-0.0287304199219,-0.517147558594,10.2184526855,1.0,0.0,0.0,0.0,1.0,0.0,0.0,0.0,1.0
1480335203729920074,495,1480335203727161506,,4.49750089645,-3.33837938309,176.975479126,0.000995000009425,1.0,0.0,0.0,0.0,1.0,0.0,0.0,0.0,1.0,0.12195122242,3.04878044128,-0.609756112099,1.0,0.0,0.0,0.0,1.0,0.0,0.0,0.0,1.0,-0.076614453125,-0.588973571866,10.2519715088,1.0,0.0,0.0,0.0,1.0,0.0,0.0,0.0,1.0
1480335203750467480,496,1480335203748076097,,4.52219057083,-3.3388094902,176.958145142,0.0010300000431,1.0,0.0,0.0,0.0,1.0,0.0,0.0,0.0,1.0,-0.0609756112099,2.07317066193,-0.487804889679,1.0,0.0,0.0,0.0,1.0,0.0,0.0,0.0,1.0,-0.0957680664062,-0.579396801758,10.1945106689,1.0,0.0,0.0,0.0,1.0,0.0,0.0,0.0,1.0
1480335203770940408,497,1480335203768874022,,4.52342700958,-3.33491945267,176.943130493,0.00101600005291,1.0,0.0,0.0,0.0,1.0,0.0,0.0,0.0,1.0,0.0609756112099,1.70731711388,0.0,1.0,0.0,0.0,0.0,1.0,0.0,0.0,0.0,1.0,-0.076614453125,-0.541089611728,10.2040874756,1.0,0.0,0.0,0.0,1.0,0.0,0.0,0.0,1.0
1480335203792896968,498,1480335203790108349,,4.50200128555,-3.33933973312,176.932525635,0.000991999986582,1.0,0.0,0.0,0.0,1.0,0.0,0.0,0.0,1.0,-0.304878056049,1.15853655338,-0.0609756112099,1.0,0.0,0.0,0.0,1.0,0.0,0.0,0.0,1.0,0.0335188255255,-0.584185168546,10.1131078125,1.0,0.0,0.0,0.0,1.0,0.0,0.0,0.0,1.0
1480335203813572134,499,1480335203810785338,,4.46896696091,-3.34518504143,176.914627075,0.00101699994411,1.0,0.0,0.0,0.0,1.0,0.0,0.0,0.0,1.0,-0.12195122242,1.2804877758,-0.548780500889,1.0,0.0,0.0,0.0,1.0,0.0,0.0,0.0,1.0,0.0909796630859,-0.60812722168,10.2040874756,1.0,0.0,0.0,0.0,1.0,0.0,0.0,0.0,1.0
1480335203834290216,500,1480335203831801385,,4.44547843933,-3.35277962685,176.895690918,0.000972000008915,1.0,0.0,0.0,0.0,1.0,0.0,0.0,0.0,1.0,-0.0609756112099,1.03658533096,-0.243902444839,1.0,0.0,0.0,0.0,1.0,0.0,0.0,0.0,1.0,0.0191536132812,-0.555454785156,10.2519715088,1.0,0.0,0.0,0.0,1.0,0.0,0.0,0.0,1.0
1480335203856015892,501,1480335203852416448,,4.42188835144,-3.35652518272,176.877609253,0.00110999995377,1.0,0.0,0.0,0.0,1.0,0.0,0.0,0.0,1.0,-0.18292683363,0.426829278469,-0.426829278469,1.0,0.0,0.0,0.0,1.0,0.0,0.0,0.0,1.0,0.0574608398438,-0.579396801758,10.2088758789,1.0,0.0,0.0,0.0,1.0,0.0,0.0,0.0,1.0
1480335203876594236,502,1480335203873660202,,4.38511180878,-3.35656785965,176.860733032,0.000968999986071,1.0,0.0,0.0,0.0,1.0,0.0,0.0,0.0,1.0,0.12195122242,0.975609779358,-0.304878056049,1.0,0.0,0.0,0.0,1.0,0.0,0.0,0.0,1.0,0.0526724365234,-0.60812722168,10.0939541992,1.0,0.0,0.0,0.0,1.0,0.0,0.0,0.0,1.0
1480335203899844377,503,1480335203894850258,,4.34973096848,-3.35547184944,176.846954346,0.000964000006206,1.0,0.0,0.0,0.0,1.0,0.0,0.0,0.0,1.0,0.304878056049,1.2804877758,0.0,1.0,0.0,0.0,0.0,1.0,0.0,0.0,0.0,1.0,0.15801730957,-0.603338854892,10.2088758789,1.0,0.0,0.0,0.0,1.0,0.0,0.0,0.0,1.0
1480335203920837404,504,1480335203917328948,,4.32294130325,-3.35280871391,176.830673218,0.00193300005049,1.0,0.0,0.0,0.0,1.0,0.0,0.0,0.0,1.0,-0.0609756112099,2.01219511032,-0.18292683363,1.0,0.0,0.0,0.0,1.0,0.0,0.0,0.0,1.0,0.15322890625,-0.574608398438,10.2136642822,1.0,0.0,0.0,0.0,1.0,0.0,0.0,0.0,1.0
1480335203943540936,505,1480335203937571618,,4.31430864334,-3.35458612442,176.815689087,0.00106200005393,1.0,0.0,0.0,0.0,1.0,0.0,0.0,0.0,1.0,-0.12195122242,2.56097555161,-0.243902444839,1.0,0.0,0.0,0.0,1.0,0.0,0.0,0.0,1.0,0.124498486328,-0.636857641602,10.2280294922,1.0,0.0,0.0,0.0,1.0,0.0,0.0,0.0,1.0
1480335203962158101,506,1480335203958347148,,4.31431150436,-3.35329341888,176.797637939,0.00112899998203,1.0,0.0,0.0,0.0,1.0,0.0,0.0,0.0,1.0,-0.18292683363,2.98780488968,-0.426829278469,1.0,0.0,0.0,0.0,1.0,0.0,0.0,0.0,1.0,0.225054956055,-0.545877978516,10.2471831055,1.0,0.0,0.0,0.0,1.0,0.0,0.0,0.0,1.0
1480335203983088837,507,1480335203979197364,,4.32130432129,-3.35422897339,176.774124146,0.00139099999797,1.0,0.0,0.0,0.0,1.0,0.0,0.0,0.0,1.0,0.12195122242,3.53658556938,-0.487804889679,1.0,0.0,0.0,0.0,1.0,0.0,0.0,0.0,1.0,0.100556469727,-0.61770402832,10.3429511719,1.0,0.0,0.0,0.0,1.0,0.0,0.0,0.0,1.0
1480335204004459152,508,1480335204000139142,,4.35315322876,-3.36177659035,176.7474823,0.0012080000015,1.0,0.0,0.0,0.0,1.0,0.0,0.0,0.0,1.0,-0.0609756112099,3.90243911743,-0.731707334518,1.0,0.0,0.0,0.0,1.0,0.0,0.0,0.0,1.0,-0.00957680664062,-0.61770402832,10.2471831055,1.0,0.0,0.0,0.0,1.0,0.0,0.0,0.0,1.0
1480335204024048130,509,1480335204021227168,,4.39555549622,-3.36834025383,176.724105835,0.00115000002552,1.0,0.0,0.0,0.0,1.0,0.0,0.0,0.0,1.0,-0.18292683363,3.47560977936,-0.487804889679,1.0,0.0,0.0,0.0,1.0,0.0,0.0,0.0,1.0,-0.134075302102,-0.555454785156,10.1897222656,1.0,0.0,0.0,0.0,1.0,0.0,0.0,0.0,1.0
1480335204044717567,510,1480335204041892334,,4.42481040955,-3.36801600456,176.703308105,0.00122500001453,1.0,0.0,0.0,0.0,1.0,0.0,0.0,0.0,1.0,-0.304878056049,2.56097555161,-0.243902444839,1.0,0.0,0.0,0.0,1.0,0.0,0.0,0.0,1.0,-0.0287304199219,-0.622492431641,10.1705686523,1.0,0.0,0.0,0.0,1.0,0.0,0.0,0.0,1.0
1480335204065698563,511,1480335204063044943,,4.43165063858,-3.36102032661,176.689285278,0.00118499994278,1.0,0.0,0.0,0.0,1.0,0.0,0.0,0.0,1.0,0.0609756112099,1.8902438879,-0.18292683363,1.0,0.0,0.0,0.0,1.0,0.0,0.0,0.0,1.0,-0.0478840332031,-0.430956298828,10.1274730225,1.0,0.0,0.0,0.0,1.0,0.0,0.0,0.0,1.0
1480335204087495593,512,1480335204084412394,,4.42000484467,-3.35256791115,176.676208496,0.00120199995581,1.0,0.0,0.0,0.0,1.0,0.0,0.0,0.0,1.0,0.12195122242,1.15853655338,-0.304878056049,1.0,0.0,0.0,0.0,1.0,0.0,0.0,0.0,1.0,0.0430956298828,-0.579396801758,10.1178962158,1.0,0.0,0.0,0.0,1.0,0.0,0.0,0.0,1.0
1480335204110837035,513,1480335204106593430,,4.39664268494,-3.34918761253,176.661514282,0.00245900009759,1.0,0.0,0.0,0.0,1.0,0.0,0.0,0.0,1.0,-0.12195122242,1.15853655338,-0.12195122242,1.0,0.0,0.0,0.0,1.0,0.0,0.0,0.0,1.0,0.0861912597656,-0.517147558594,10.1562034424,1.0,0.0,0.0,0.0,1.0,0.0,0.0,0.0,1.0
1480335204133011093,514,1480335204130395858,,4.36617565155,-3.34950208664,176.641464233,0.00553999980912,1.0,0.0,0.0,0.0,1.0,0.0,0.0,0.0,1.0,0.12195122242,1.34146344662,-0.487804889679,1.0,0.0,0.0,0.0,1.0,0.0,0.0,0.0,1.0,0.119710083008,-0.598550451572,10.1083194092,1.0,0.0,0.0,0.0,1.0,0.0,0.0,0.0,1.0
1480335204159498495,515,1480335204151265709,,4.34430599213,-3.34691596031,176.625869751,0.00117299996782,1.0,0.0,0.0,0.0,1.0,0.0,0.0,0.0,1.0,-0.0609756112099,1.58536589146,-0.365853667259,1.0,0.0,0.0,0.0,1.0,0.0,0.0,0.0,1.0,0.0335188255255,-0.502782348633,10.2040874756,1.0,0.0,0.0,0.0,1.0,0.0,0.0,0.0,1.0
1480335204175084543,516,1480335204172173060,,4.32139110565,-3.34704208374,176.61265564,0.00117199996021,1.0,0.0,0.0,0.0,1.0,0.0,0.0,0.0,1.0,-0.12195122242,1.70731711388,-0.304878056049,1.0,0.0,0.0,0.0,1.0,0.0,0.0,0.0,1.0,0.110133276367,-0.61770402832,10.2471831055,1.0,0.0,0.0,0.0,1.0,0.0,0.0,0.0,1.0
1480335204202027929,517,1480335204192728227,,4.30079269409,-3.3469004631,176.596328735,0.0010150000453,1.0,0.0,0.0,0.0,1.0,0.0,0.0,0.0,1.0,-0.304878056049,1.8292683363,-0.304878056049,1.0,0.0,0.0,0.0,1.0,0.0,0.0,0.0,1.0,0.191536132812,-0.612915625,10.2280294922,1.0,0.0,0.0,0.0,1.0,0.0,0.0,0.0,1.0
1480335204222458931,518,1480335204213081417,,4.28487730026,-3.3492641449,176.578704834,0.00100499996915,1.0,0.0,0.0,0.0,1.0,0.0,0.0,0.0,1.0,-0.0609756112099,1.8292683363,-0.487804889679,1.0,0.0,0.0,0.0,1.0,0.0,0.0,0.0,1.0,0.067037651051,-0.560243188477,10.299855542,1.0,0.0,0.0,0.0,1.0,0.0,0.0,0.0,1.0
1480335204239795483,519,1480335204234488138,,4.27298069,-3.35106801987,176.555450439,0.00101799995173,1.0,0.0,0.0,0.0,1.0,0.0,0.0,0.0,1.0,0.0,1.76829278469,-0.670731723309,1.0,0.0,0.0,0.0,1.0,0.0,0.0,0.0,1.0,0.0861912597656,-0.60812722168,10.1992990723,1.0,0.0,0.0,0.0,1.0,0.0,0.0,0.0,1.0
1480335204260750958,520,1480335204255267209,,4.26442861557,-3.35045218468,176.53465271,0.00103100005072,1.0,0.0,0.0,0.0,1.0,0.0,0.0,0.0,1.0,0.0,2.07317066193,-0.548780500889,1.0,0.0,0.0,0.0,1.0,0.0,0.0,0.0,1.0,0.119710083008,-0.574608398438,10.165780249,1.0,0.0,0.0,0.0,1.0,0.0,0.0,0.0,1.0
1480335204282036222,521,1480335204275979614,,4.25156164169,-3.34967660904,176.515960693,0.000987999956124,1.0,0.0,0.0,0.0,1.0,0.0,0.0,0.0,1.0,-0.12195122242,2.56097555161,-0.304878056049,1.0,0.0,0.0,0.0,1.0,0.0,0.0,0.0,1.0,0.253785375977,-0.641646044922,10.285490332,1.0,0.0,0.0,0.0,1.0,0.0,0.0,0.0,1.0
1480335204302020926,522,1480335204296579468,,4.25219678879,-3.34285616875,176.497406006,0.0010529999854,1.0,0.0,0.0,0.0,1.0,0.0,0.0,0.0,1.0,0.18292683363,3.23170733452,-0.304878056049,1.0,0.0,0.0,0.0,1.0,0.0,0.0,0.0,1.0,0.0574608398438,-0.517147558594,10.2615483154,1.0,0.0,0.0,0.0,1.0,0.0,0.0,0.0,1.0
1480335204322797966,523,1480335204317473798,,4.26769161224,-3.340685606,176.481750488,0.00118200003635,1.0,0.0,0.0,0.0,1.0,0.0,0.0,0.0,1.0,0.243902444839,3.29268312454,0.0609756112099,1.0,0.0,0.0,0.0,1.0,0.0,0.0,0.0,1.0,0.100556469727,-0.603338854892,10.1945106689,1.0,0.0,0.0,0.0,1.0,0.0,0.0,0.0,1.0
1480335204342895273,524,1480335204338375108,,4.2891626358,-3.34140539169,176.463897705,0.00142600003164,1.0,0.0,0.0,0.0,1.0,0.0,0.0,0.0,1.0,0.0609756112099,3.41463422775,-0.365853667259,1.0,0.0,0.0,0.0,1.0,0.0,0.0,0.0,1.0,0.0861912597656,-0.526724328702,10.1753570557,1.0,0.0,0.0,0.0,1.0,0.0,0.0,0.0,1.0
1480335204369714858,525,1480335204361578114,,4.30896282196,-3.34202504158,176.445327759,0.00116400001571,1.0,0.0,0.0,0.0,1.0,0.0,0.0,0.0,1.0,0.243902444839,3.23170733452,-0.18292683363,1.0,0.0,0.0,0.0,1.0,0.0,0.0,0.0,1.0,0.0143652099609,-0.545877978516,10.2232410889,1.0,0.0,0.0,0.0,1.0,0.0,0.0,0.0,1.0
1480335204389180817,526,1480335204382920409,,4.33380365372,-3.34168744087,176.426223755,0.00396700017154,1.0,0.0,0.0,0.0,1.0,0.0,0.0,0.0,1.0,0.0,3.35365867615,-0.0609756112099,1.0,0.0,0.0,0.0,1.0,0.0,0.0,0.0,1.0,0.0383072265625,-0.641646044922,10.165780249,1.0,0.0,0.0,0.0,1.0,0.0,0.0,0.0,1.0
1480335204409203750,527,1480335204405455192,,4.35593128204,-3.34190440178,176.406311035,0.00578199978918,1.0,0.0,0.0,0.0,1.0,0.0,0.0,0.0,1.0,0.0,3.17073178291,-0.426829278469,1.0,0.0,0.0,0.0,1.0,0.0,0.0,0.0,1.0,0.0,-0.60812722168,10.3333743652,1.0,0.0,0.0,0.0,1.0,0.0,0.0,0.0,1.0
1480335204430397869,528,1480335204427186962,,4.37690210342,-3.34254479408,176.385787964,0.00157299998682,1.0,0.0,0.0,0.0,1.0,0.0,0.0,0.0,1.0,-0.0609756112099,2.43902444839,-0.18292683363,1.0,0.0,0.0,0.0,1.0,0.0,0.0,0.0,1.0,-0.134075302102,-0.555454785156,10.3333743652,1.0,0.0,0.0,0.0,1.0,0.0,0.0,0.0,1.0
1480335204451126471,529,1480335204448298999,,4.3858537674,-3.33951044083,176.367935181,0.00118200003635,1.0,0.0,0.0,0.0,1.0,0.0,0.0,0.0,1.0,-0.0609756112099,2.01219511032,-0.548780500889,1.0,0.0,0.0,0.0,1.0,0.0,0.0,0.0,1.0,-0.0239420166016,-0.598550451572,10.2088758789,1.0,0.0,0.0,0.0,1.0,0.0,0.0,0.0,1.0
1480335204472394392,530,1480335204469404421,,4.37591409683,-3.34103631973,176.35017395,0.0011269999668,1.0,0.0,0.0,0.0,1.0,0.0,0.0,0.0,1.0,0.12195122242,1.2804877758,-0.426829278469,1.0,0.0,0.0,0.0,1.0,0.0,0.0,0.0,1.0,0.0143652099609,-0.632069238281,10.2088758789,1.0,0.0,0.0,0.0,1.0,0.0,0.0,0.0,1.0
1480335204493426950,531,1480335204490680258,,4.35138511658,-3.33992290497,176.335662842,0.00118499994278,1.0,0.0,0.0,0.0,1.0,0.0,0.0,0.0,1.0,0.0609756112099,0.609756112099,-0.0609756112099,1.0,0.0,0.0,0.0,1.0,0.0,0.0,0.0,1.0,0.0430956298828,-0.483628735352,10.2759135254,1.0,0.0,0.0,0.0,1.0,0.0,0.0,0.0,1.0
1480335204521221943,532,1480335204511898283,,4.31625509262,-3.3373503685,176.324523926,0.00102600001264,1.0,0.0,0.0,0.0,1.0,0.0,0.0,0.0,1.0,0.0609756112099,0.670731723309,-0.0609756112099,1.0,0.0,0.0,0.0,1.0,0.0,0.0,0.0,1.0,0.119710083008,-0.526724328702,10.285490332,1.0,0.0,0.0,0.0,1.0,0.0,0.0,0.0,1.0
1480335204541459874,533,1480335204532576730,,4.28353691101,-3.33746290207,176.312255859,0.00101100001484,1.0,0.0,0.0,0.0,1.0,0.0,0.0,0.0,1.0,0.18292683363,0.914634168148,-0.12195122242,1.0,0.0,0.0,0.0,1.0,0.0,0.0,0.0,1.0,0.138863696289,-0.593762048251,10.285490332,1.0,0.0,0.0,0.0,1.0,0.0,0.0,0.0,1.0
1480335204563362892,534,1480335204552945961,,4.24267435074,-3.33564543724,176.29914856,0.000992999994196,1.0,0.0,0.0,0.0,1.0,0.0,0.0,0.0,1.0,-0.0609756112099,1.09756100178,-0.487804889679,1.0,0.0,0.0,0.0,1.0,0.0,0.0,0.0,1.0,0.148440512063,-0.598550451572,10.2471831055,1.0,0.0,0.0,0.0,1.0,0.0,0.0,0.0,1.0
1480335204583946392,535,1480335204573687689,,4.21542215347,-3.33644723892,176.278839111,0.00105500000063,1.0,0.0,0.0,0.0,1.0,0.0,0.0,0.0,1.0,0.0,1.58536589146,-0.0609756112099,1.0,0.0,0.0,0.0,1.0,0.0,0.0,0.0,1.0,0.225054956055,-0.579396801758,10.1418382324,1.0,0.0,0.0,0.0,1.0,0.0,0.0,0.0,1.0
1480335204600757689,536,1480335204594350667,,4.20405244827,-3.3359375,176.259384155,0.00123199995141,1.0,0.0,0.0,0.0,1.0,0.0,0.0,0.0,1.0,-0.0609756112099,2.56097555161,-0.548780500889,1.0,0.0,0.0,0.0,1.0,0.0,0.0,0.0,1.0,0.177170922852,-0.598550451572,10.1992990723,1.0,0.0,0.0,0.0,1.0,0.0,0.0,0.0,1.0
1480335204623122682,537,1480335204615277185,,4.19613838196,-3.3357667923,176.238937378,0.00097499997355,1.0,0.0,0.0,0.0,1.0,0.0,0.0,0.0,1.0,-0.0609756112099,3.04878044128,-0.426829278469,1.0,0.0,0.0,0.0,1.0,0.0,0.0,0.0,1.0,0.248996972656,-0.512359155273,10.2040874756,1.0,0.0,0.0,0.0,1.0,0.0,0.0,0.0,1.0
1480335204642940929,538,1480335204636362346,,4.21049356461,-3.33530020714,176.215454102,0.00112799997441,1.0,0.0,0.0,0.0,1.0,0.0,0.0,0.0,1.0,-0.12195122242,3.53658556938,-0.426829278469,1.0,0.0,0.0,0.0,1.0,0.0,0.0,0.0,1.0,0.067037651051,-0.569819995117,10.1178962158,1.0,0.0,0.0,0.0,1.0,0.0,0.0,0.0,1.0
1480335204665541597,539,1480335204658829266,,4.23552179337,-3.33819651604,176.195297241,0.00109399994835,1.0,0.0,0.0,0.0,1.0,0.0,0.0,0.0,1.0,0.12195122242,3.53658556938,-0.304878056049,1.0,0.0,0.0,0.0,1.0,0.0,0.0,0.0,1.0,0.0957680664062,-0.665588061523,10.2615483154,1.0,0.0,0.0,0.0,1.0,0.0,0.0,0.0,1.0
1480335204682238572,540,1480335204679411932,,4.26843500137,-3.33776426315,176.173171997,0.00142400001641,1.0,0.0,0.0,0.0,1.0,0.0,0.0,0.0,1.0,-0.0609756112099,3.17073178291,-0.609756112099,1.0,0.0,0.0,0.0,1.0,0.0,0.0,0.0,1.0,-0.0909796630859,-0.569819995117,10.2759135254,1.0,0.0,0.0,0.0,1.0,0.0,0.0,0.0,1.0
1480335204706440475,541,1480335204702486398,,4.28285360336,-3.33914756775,176.146133423,0.00207199994475,1.0,0.0,0.0,0.0,1.0,0.0,0.0,0.0,1.0,0.0,2.56097555161,-0.731707334518,1.0,0.0,0.0,0.0,1.0,0.0,0.0,0.0,1.0,-0.0143652099609,-0.579396801758,10.2232410889,1.0,0.0,0.0,0.0,1.0,0.0,0.0,0.0,1.0
1480335204727192567,542,1480335204723636976,,4.28979969025,-3.33984303474,176.116928101,0.004226999823,1.0,0.0,0.0,0.0,1.0,0.0,0.0,0.0,1.0,-0.0609756112099,2.56097555161,-0.243902444839,1.0,0.0,0.0,0.0,1.0,0.0,0.0,0.0,1.0,0.0814028564453,-0.569819995117,10.2807019287,1.0,0.0,0.0,0.0,1.0,0.0,0.0,0.0,1.0
1480335204748582830,543,1480335204744820210,,4.30023765564,-3.33532547951,176.095077515,0.00488399993628,1.0,0.0,0.0,0.0,1.0,0.0,0.0,0.0,1.0,0.12195122242,2.92682933807,-0.548780500889,1.0,0.0,0.0,0.0,1.0,0.0,0.0,0.0,1.0,0.00957680664062,-0.545877978516,10.2759135254,1.0,0.0,0.0,0.0,1.0,0.0,0.0,0.0,1.0
1480335204769677262,544,1480335204766608229,,4.31405687332,-3.33332586288,176.078842163,0.00181699998211,1.0,0.0,0.0,0.0,1.0,0.0,0.0,0.0,1.0,0.0,2.56097555161,0.0609756112099,1.0,0.0,0.0,0.0,1.0,0.0,0.0,0.0,1.0,-0.0143652099609,-0.526724328702,10.285490332,1.0,0.0,0.0,0.0,1.0,0.0,0.0,0.0,1.0
1480335204791119452,545,1480335204787709589,,4.32016468048,-3.32895803452,176.068191528,0.0012450000504,1.0,0.0,0.0,0.0,1.0,0.0,0.0,0.0,1.0,0.0,1.8902438879,0.0,1.0,0.0,0.0,0.0,1.0,0.0,0.0,0.0,1.0,-0.15322890625,-0.536301208408,10.2232410889,1.0,0.0,0.0,0.0,1.0,0.0,0.0,0.0,1.0
1480335204811544776,546,1480335204808440900,,4.30713891983,-3.33023786545,176.059432983,0.00112499995157,1.0,0.0,0.0,0.0,1.0,0.0,0.0,0.0,1.0,0.12195122242,1.34146344662,0.12195122242,1.0,0.0,0.0,0.0,1.0,0.0,0.0,0.0,1.0,0.0191536132812,-0.632069238281,10.1705686523,1.0,0.0,0.0,0.0,1.0,0.0,0.0,0.0,1.0
1480335204832451659,547,1480335204829625071,,4.28357791901,-3.33183026314,176.050872803,0.00133600004483,1.0,0.0,0.0,0.0,1.0,0.0,0.0,0.0,1.0,-0.0609756112099,1.03658533096,0.243902444839,1.0,0.0,0.0,0.0,1.0,0.0,0.0,0.0,1.0,0.0239420166016,-0.665588061523,10.1274730225,1.0,0.0,0.0,0.0,1.0,0.0,0.0,0.0,1.0
1480335204854236501,548,1480335204851417362,,4.25013303757,-3.33537101746,176.040740967,0.0014009999577,1.0,0.0,0.0,0.0,1.0,0.0,0.0,0.0,1.0,0.12195122242,1.09756100178,-0.243902444839,1.0,0.0,0.0,0.0,1.0,0.0,0.0,0.0,1.0,0.067037651051,-0.622492431641,10.1131078125,1.0,0.0,0.0,0.0,1.0,0.0,0.0,0.0,1.0
1480335204874352610,549,1480335204871949612,,4.21456623077,-3.33647537231,176.026641846,0.00115799997002,1.0,0.0,0.0,0.0,1.0,0.0,0.0,0.0,1.0,0.0,1.58536589146,-0.0609756112099,1.0,0.0,0.0,0.0,1.0,0.0,0.0,0.0,1.0,0.201112939453,-0.593762048251,10.0939541992,1.0,0.0,0.0,0.0,1.0,0.0,0.0,0.0,1.0
1480335204901628702,550,1480335204893055919,,4.18864440918,-3.33217740059,176.015792847,0.0010300000431,1.0,0.0,0.0,0.0,1.0,0.0,0.0,0.0,1.0,0.426829278469,2.07317066193,0.0,1.0,0.0,0.0,0.0,1.0,0.0,0.0,0.0,1.0,0.239420166016,-0.545877978516,10.2184526855,1.0,0.0,0.0,0.0,1.0,0.0,0.0,0.0,1.0
1480335204922950163,551,1480335204913886917,,4.17317581177,-3.33303618431,175.995437622,0.00100100005511,1.0,0.0,0.0,0.0,1.0,0.0,0.0,0.0,1.0,0.0609756112099,2.80487799644,-0.487804889679,1.0,0.0,0.0,0.0,1.0,0.0,0.0,0.0,1.0,0.134075302102,-0.579396801758,10.3285859619,1.0,0.0,0.0,0.0,1.0,0.0,0.0,0.0,1.0
1480335204940192081,552,1480335204935001297,,4.18111228943,-3.3298368454,175.975616455,0.00120900000911,1.0,0.0,0.0,0.0,1.0,0.0,0.0,0.0,1.0,0.18292683363,3.47560977936,-0.18292683363,1.0,0.0,0.0,0.0,1.0,0.0,0.0,0.0,1.0,0.162805712891,-0.560243188477,10.1178962158,1.0,0.0,0.0,0.0,1.0,0.0,0.0,0.0,1.0
1480335204963092017,553,1480335204955821618,,4.19582891464,-3.32908201218,175.954910278,0.00098600005731,1.0,0.0,0.0,0.0,1.0,0.0,0.0,0.0,1.0,-0.12195122242,3.23170733452,-0.426829278469,1.0,0.0,0.0,0.0,1.0,0.0,0.0,0.0,1.0,0.15801730957,-0.545877978516,10.2567599121,1.0,0.0,0.0,0.0,1.0,0.0,0.0,0.0,1.0
1480335204982801515,554,1480335204976296161,,4.21793937683,-3.32708311081,175.93447876,0.000964000006206,1.0,0.0,0.0,0.0,1.0,0.0,0.0,0.0,1.0,-0.12195122242,3.41463422775,-0.426829278469,1.0,0.0,0.0,0.0,1.0,0.0,0.0,0.0,1.0,0.114921679688,-0.598550451572,10.2088758789,1.0,0.0,0.0,0.0,1.0,0.0,0.0,0.0,1.0
1480335205003510066,555,1480335204997395854,,4.24364042282,-3.32982778549,175.919113159,0.000999000039883,1.0,0.0,0.0,0.0,1.0,0.0,0.0,0.0,1.0,-0.12195122242,3.10975623131,-0.12195122242,1.0,0.0,0.0,0.0,1.0,0.0,0.0,0.0,1.0,-0.0143652099609,-0.584185168546,10.2567599121,1.0,0.0,0.0,0.0,1.0,0.0,0.0,0.0,1.0
1480335205023317115,556,1480335205018425860,,4.26236009598,-3.32931685448,175.900039673,0.00144699995872,1.0,0.0,0.0,0.0,1.0,0.0,0.0,0.0,1.0,0.243902444839,2.80487799644,-0.365853667259,1.0,0.0,0.0,0.0,1.0,0.0,0.0,0.0,1.0,0.0191536132812,-0.641646044922,10.1466266357,1.0,0.0,0.0,0.0,1.0,0.0,0.0,0.0,1.0
1480335205045182321,557,1480335205039763832,,4.27147865295,-3.32961463928,175.879486084,0.00121300003957,1.0,0.0,0.0,0.0,1.0,0.0,0.0,0.0,1.0,-0.18292683363,2.56097555161,-0.487804889679,1.0,0.0,0.0,0.0,1.0,0.0,0.0,0.0,1.0,-0.0287304199219,-0.550666381836,10.3716815918,1.0,0.0,0.0,0.0,1.0,0.0,0.0,0.0,1.0
1480335205066254358,558,1480335205059996814,,4.27441501617,-3.327064991,175.863586426,0.00132200005464,1.0,0.0,0.0,0.0,1.0,0.0,0.0,0.0,1.0,0.243902444839,2.25609779358,-0.243902444839,1.0,0.0,0.0,0.0,1.0,0.0,0.0,0.0,1.0,0.0383072265625,-0.526724328702,10.1609918457,1.0,0.0,0.0,0.0,1.0,0.0,0.0,0.0,1.0
1480335205086105730,559,1480335205082828001,,4.27010297775,-3.32951450348,175.846511841,0.00183600001037,1.0,0.0,0.0,0.0,1.0,0.0,0.0,0.0,1.0,-0.18292683363,1.76829278469,-0.0609756112099,1.0,0.0,0.0,0.0,1.0,0.0,0.0,0.0,1.0,0.0239420166016,-0.603338854892,10.285490332,1.0,0.0,0.0,0.0,1.0,0.0,0.0,0.0,1.0
1480335205108698065,560,1480335205103119941,,4.26263189316,-3.33197951317,175.830932617,0.00142600003164,1.0,0.0,0.0,0.0,1.0,0.0,0.0,0.0,1.0,-0.0609756112099,1.8902438879,-0.487804889679,1.0,0.0,0.0,0.0,1.0,0.0,0.0,0.0,1.0,0.148440512063,-0.593762048251,10.2807019287,1.0,0.0,0.0,0.0,1.0,0.0,0.0,0.0,1.0
1480335205130640406,561,1480335205126499612,,4.24833869934,-3.33320116997,175.814422607,0.00144499994349,1.0,0.0,0.0,0.0,1.0,0.0,0.0,0.0,1.0,-0.0609756112099,1.8902438879,-0.18292683363,1.0,0.0,0.0,0.0,1.0,0.0,0.0,0.0,1.0,0.15801730957,-0.593762048251,10.2088758789,1.0,0.0,0.0,0.0,1.0,0.0,0.0,0.0,1.0
1480335205150821774,562,1480335205146935249,,4.23456954956,-3.32865571976,175.793289185,0.00279300007969,1.0,0.0,0.0,0.0,1.0,0.0,0.0,0.0,1.0,-0.18292683363,2.13414645195,-0.548780500889,1.0,0.0,0.0,0.0,1.0,0.0,0.0,0.0,1.0,0.129286889648,-0.560243188477,10.2136642822,1.0,0.0,0.0,0.0,1.0,0.0,0.0,0.0,1.0
1480335205169849924,563,1480335205167053701,,4.22899532318,-3.32922577858,175.775283813,0.00117800000589,1.0,0.0,0.0,0.0,1.0,0.0,0.0,0.0,1.0,0.18292683363,2.43902444839,-0.365853667259,1.0,0.0,0.0,0.0,1.0,0.0,0.0,0.0,1.0,0.067037651051,-0.593762048251,10.3190091553,1.0,0.0,0.0,0.0,1.0,0.0,0.0,0.0,1.0
1480335205190968107,564,1480335205188312455,,4.22820234299,-3.32645654678,175.75982666,0.00107999995816,1.0,0.0,0.0,0.0,1.0,0.0,0.0,0.0,1.0,0.0609756112099,2.31707310677,-0.12195122242,1.0,0.0,0.0,0.0,1.0,0.0,0.0,0.0,1.0,0.0191536132812,-0.574608398438,10.1992990723,1.0,0.0,0.0,0.0,1.0,0.0,0.0,0.0,1.0
1480335205212143320,565,1480335205209581105,,4.21764469147,-3.32862758636,175.745147705,0.00128800002858,1.0,0.0,0.0,0.0,1.0,0.0,0.0,0.0,1.0,-0.0609756112099,2.07317066193,-0.12195122242,1.0,0.0,0.0,0.0,1.0,0.0,0.0,0.0,1.0,0.172382519531,-0.622492431641,10.3477395752,1.0,0.0,0.0,0.0,1.0,0.0,0.0,0.0,1.0
1480335205233431396,566,1480335205230265489,,4.21296834946,-3.33113145828,175.729324341,0.00182799994946,1.0,0.0,0.0,0.0,1.0,0.0,0.0,0.0,1.0,-0.12195122242,2.74390244484,-0.365853667259,1.0,0.0,0.0,0.0,1.0,0.0,0.0,0.0,1.0,0.215478149414,-0.541089611728,10.2567599121,1.0,0.0,0.0,0.0,1.0,0.0,0.0,0.0,1.0
1480335205253846617,567,1480335205251327787,,4.22039937973,-3.3314166069,175.708755493,0.00115999998525,1.0,0.0,0.0,0.0,1.0,0.0,0.0,0.0,1.0,-0.304878056049,2.92682933807,-0.426829278469,1.0,0.0,0.0,0.0,1.0,0.0,0.0,0.0,1.0,0.167594116211,-0.517147558594,10.2471831055,1.0,0.0,0.0,0.0,1.0,0.0,0.0,0.0,1.0
1480335205273956892,568,1480335205271451916,,4.24031400681,-3.33350014687,175.688842773,0.00148099998478,1.0,0.0,0.0,0.0,1.0,0.0,0.0,0.0,1.0,0.0609756112099,3.10975623131,-0.365853667259,1.0,0.0,0.0,0.0,1.0,0.0,0.0,0.0,1.0,0.0191536132812,-0.555454785156,10.2711251221,1.0,0.0,0.0,0.0,1.0,0.0,0.0,0.0,1.0
1480335205294873410,569,1480335205292245362,,4.25703334808,-3.33247613907,175.670333862,0.00122199999169,1.0,0.0,0.0,0.0,1.0,0.0,0.0,0.0,1.0,0.12195122242,2.62195134163,-0.18292683363,1.0,0.0,0.0,0.0,1.0,0.0,0.0,0.0,1.0,0.0335188255255,-0.584185168546,10.3190091553,1.0,0.0,0.0,0.0,1.0,0.0,0.0,0.0,1.0
1480335205317981833,570,1480335205313442502,,4.26689052582,-3.33212280273,175.652313232,0.00144200003706,1.0,0.0,0.0,0.0,1.0,0.0,0.0,0.0,1.0,0.0,2.62195134163,-0.12195122242,1.0,0.0,0.0,0.0,1.0,0.0,0.0,0.0,1.0,0.0335188255255,-0.689530078125,10.3333743652,1.0,0.0,0.0,0.0,1.0,0.0,0.0,0.0,1.0
1480335205340879217,571,1480335205334297770,,4.27440357208,-3.33278203011,175.634277344,0.00103299994953,1.0,0.0,0.0,0.0,1.0,0.0,0.0,0.0,1.0,0.18292683363,2.56097555161,-0.304878056049,1.0,0.0,0.0,0.0,1.0,0.0,0.0,0.0,1.0,0.0957680664062,-0.555454785156,10.1466266357,1.0,0.0,0.0,0.0,1.0,0.0,0.0,0.0,1.0
1480335205358066552,572,1480335205354748250,,4.28096294403,-3.33005738258,175.620285034,0.00120199995581,1.0,0.0,0.0,0.0,1.0,0.0,0.0,0.0,1.0,-0.12195122242,2.07317066193,-0.12195122242,1.0,0.0,0.0,0.0,1.0,0.0,0.0,0.0,1.0,0.0430956298828,-0.545877978516,10.1705686523,1.0,0.0,0.0,0.0,1.0,0.0,0.0,0.0,1.0
1480335205379761239,573,1480335205375904714,,4.28403997421,-3.32822751999,175.603881836,0.00101000000723,1.0,0.0,0.0,0.0,1.0,0.0,0.0,0.0,1.0,-0.12195122242,1.64634156227,-0.304878056049,1.0,0.0,0.0,0.0,1.0,0.0,0.0,0.0,1.0,-0.0335188255255,-0.660799658203,10.285490332,1.0,0.0,0.0,0.0,1.0,0.0,0.0,0.0,1.0
1480335205404232566,574,1480335205397645911,,4.27049350739,-3.32960271835,175.589828491,0.00109100004192,1.0,0.0,0.0,0.0,1.0,0.0,0.0,0.0,1.0,0.0609756112099,0.975609779358,-0.243902444839,1.0,0.0,0.0,0.0,1.0,0.0,0.0,0.0,1.0,-0.0287304199219,-0.660799658203,10.3429511719,1.0,0.0,0.0,0.0,1.0,0.0,0.0,0.0,1.0
1480335205426977973,575,1480335205420414598,,4.24278211594,-3.32794284821,175.569763184,0.0015190000413,1.0,0.0,0.0,0.0,1.0,0.0,0.0,0.0,1.0,-0.0609756112099,1.09756100178,-0.365853667259,1.0,0.0,0.0,0.0,1.0,0.0,0.0,0.0,1.0,0.119710083008,-0.531512805087,10.1514150391,1.0,0.0,0.0,0.0,1.0,0.0,0.0,0.0,1.0
1480335205448736149,576,1480335205441239710,,4.21258640289,-3.32487750053,175.556137085,0.00282999989577,1.0,0.0,0.0,0.0,1.0,0.0,0.0,0.0,1.0,0.0609756112099,1.40243899822,0.0,1.0,0.0,0.0,0.0,1.0,0.0,0.0,0.0,1.0,0.15801730957,-0.517147558594,10.2040874756,1.0,0.0,0.0,0.0,1.0,0.0,0.0,0.0,1.0
1480335205469473449,577,1480335205462244561,,4.18452644348,-3.32574892044,175.54699707,0.00118799996562,1.0,0.0,0.0,0.0,1.0,0.0,0.0,0.0,1.0,0.18292683363,1.8902438879,0.0,1.0,0.0,0.0,0.0,1.0,0.0,0.0,0.0,1.0,0.134075302102,-0.593762048251,10.285490332,1.0,0.0,0.0,0.0,1.0,0.0,0.0,0.0,1.0
1480335205488910242,578,1480335205484428774,,4.16693162918,-3.3250234127,175.536819458,0.00280499993823,1.0,0.0,0.0,0.0,1.0,0.0,0.0,0.0,1.0,0.243902444839,2.07317066193,0.0,1.0,0.0,0.0,0.0,1.0,0.0,0.0,0.0,1.0,0.225054956055,-0.598550451572,10.2232410889,1.0,0.0,0.0,0.0,1.0,0.0,0.0,0.0,1.0
1480335205506450125,579,1480335205504537331,,4.15740394592,-3.32330989838,175.527816772,0.00141400005668,1.0,0.0,0.0,0.0,1.0,0.0,0.0,0.0,1.0,-0.0609756112099,1.95121955872,0.304878056049,1.0,0.0,0.0,0.0,1.0,0.0,0.0,0.0,1.0,0.138863696289,-0.598550451572,10.1753570557,1.0,0.0,0.0,0.0,1.0,0.0,0.0,0.0,1.0
1480335205530500050,580,1480335205528130906,,4.1481013298,-3.32737517357,175.512893677,0.00411299988627,1.0,0.0,0.0,0.0,1.0,0.0,0.0,0.0,1.0,-0.0609756112099,2.25609779358,-0.12195122242,1.0,0.0,0.0,0.0,1.0,0.0,0.0,0.0,1.0,0.239420166016,-0.574608398438,10.1609918457,1.0,0.0,0.0,0.0,1.0,0.0,0.0,0.0,1.0
1480335205552476609,581,1480335205548961487,,4.13640594482,-3.32912659645,175.493560791,0.00142600003164,1.0,0.0,0.0,0.0,1.0,0.0,0.0,0.0,1.0,-0.243902444839,3.04878044128,-0.426829278469,1.0,0.0,0.0,0.0,1.0,0.0,0.0,0.0,1.0,0.287304199219,-0.588973571866,10.1753570557,1.0,0.0,0.0,0.0,1.0,0.0,0.0,0.0,1.0
1480335205573336878,582,1480335205570068055,,4.14175987244,-3.32599496841,175.470428467,0.00117499998305,1.0,0.0,0.0,0.0,1.0,0.0,0.0,0.0,1.0,-0.0609756112099,3.29268312454,-0.609756112099,1.0,0.0,0.0,0.0,1.0,0.0,0.0,0.0,1.0,0.225054956055,-0.507570751953,10.1322614258,1.0,0.0,0.0,0.0,1.0,0.0,0.0,0.0,1.0
1480335205594100428,583,1480335205591268580,,4.16359901428,-3.32626366615,175.446014404,0.00103699997999,1.0,0.0,0.0,0.0,1.0,0.0,0.0,0.0,1.0,0.0,3.84146332741,-0.365853667259,1.0,0.0,0.0,0.0,1.0,0.0,0.0,0.0,1.0,0.196324536133,-0.579396801758,10.2376062988,1.0,0.0,0.0,0.0,1.0,0.0,0.0,0.0,1.0
1480335205614335910,584,1480335205612142390,,4.19744920731,-3.32375311852,175.423095703,0.00102199998219,1.0,0.0,0.0,0.0,1.0,0.0,0.0,0.0,1.0,0.12195122242,3.65853667259,-0.243902444839,1.0,0.0,0.0,0.0,1.0,0.0,0.0,0.0,1.0,0.0861912597656,-0.493205541992,10.2376062988,1.0,0.0,0.0,0.0,1.0,0.0,0.0,0.0,1.0
1480335205634716079,585,1480335205632591829,,4.2263917923,-3.31880187988,175.40802002,0.000972000008915,1.0,0.0,0.0,0.0,1.0,0.0,0.0,0.0,1.0,0.18292683363,3.41463422775,-0.243902444839,1.0,0.0,0.0,0.0,1.0,0.0,0.0,0.0,1.0,0.0718260498047,-0.488417138672,10.2902787354,1.0,0.0,0.0,0.0,1.0,0.0,0.0,0.0,1.0
1480335205658078927,586,1480335205654003966,,4.24643373489,-3.31947088242,175.38923645,0.000976999988779,1.0,0.0,0.0,0.0,1.0,0.0,0.0,0.0,1.0,-0.0609756112099,3.53658556938,-0.304878056049,1.0,0.0,0.0,0.0,1.0,0.0,0.0,0.0,1.0,0.167594116211,-0.517147558594,10.2184526855,1.0,0.0,0.0,0.0,1.0,0.0,0.0,0.0,1.0
1480335205676807914,587,1480335205674426478,,4.26284694672,-3.32027816772,175.371917725,0.00105700001586,1.0,0.0,0.0,0.0,1.0,0.0,0.0,0.0,1.0,0.0,4.02439022064,-0.487804889679,1.0,0.0,0.0,0.0,1.0,0.0,0.0,0.0,1.0,0.191536132812,-0.584185168546,10.0748005859,1.0,0.0,0.0,0.0,1.0,0.0,0.0,0.0,1.0
1480335205700549508,588,1480335205697515736,,4.29717588425,-3.31800079346,175.346115112,0.000973000016529,1.0,0.0,0.0,0.0,1.0,0.0,0.0,0.0,1.0,-0.12195122242,4.20731735229,-0.609756112099,1.0,0.0,0.0,0.0,1.0,0.0,0.0,0.0,1.0,0.0574608398438,-0.60812722168,10.2567599121,1.0,0.0,0.0,0.0,1.0,0.0,0.0,0.0,1.0
1480335205726430822,589,1480335205722793409,,4.35196447372,-3.32047104836,175.313903809,0.00679899984971,1.0,0.0,0.0,0.0,1.0,0.0,0.0,0.0,1.0,0.0,3.35365867615,-0.304878056049,1.0,0.0,0.0,0.0,1.0,0.0,0.0,0.0,1.0,-0.148440512063,-0.550666381836,10.2232410889,1.0,0.0,0.0,0.0,1.0,0.0,0.0,0.0,1.0
1480335205746093393,590,1480335205743139255,,4.37891864777,-3.32003378868,175.295532227,0.001215999946,1.0,0.0,0.0,0.0,1.0,0.0,0.0,0.0,1.0,0.0,2.25609779358,-0.18292683363,1.0,0.0,0.0,0.0,1.0,0.0,0.0,0.0,1.0,-0.148440512063,-0.574608398438,10.1083194092,1.0,0.0,0.0,0.0,1.0,0.0,0.0,0.0,1.0
1480335205766868714,591,1480335205763684683,,4.38299751282,-3.31842470169,175.281738281,0.00118200003635,1.0,0.0,0.0,0.0,1.0,0.0,0.0,0.0,1.0,0.12195122242,1.2195122242,0.0609756112099,1.0,0.0,0.0,0.0,1.0,0.0,0.0,0.0,1.0,-0.076614453125,-0.560243188477,10.3381627686,1.0,0.0,0.0,0.0,1.0,0.0,0.0,0.0,1.0
1480335205787117061,592,1480335205784160527,,4.3653383255,-3.31651306152,175.26902771,0.000967999978457,1.0,0.0,0.0,0.0,1.0,0.0,0.0,0.0,1.0,-0.18292683363,0.792682945728,-0.18292683363,1.0,0.0,0.0,0.0,1.0,0.0,0.0,0.0,1.0,0.0191536132812,-0.488417138672,10.3429511719,1.0,0.0,0.0,0.0,1.0,0.0,0.0,0.0,1.0
1480335205808493679,593,1480335205805390688,,4.3348441124,-3.31664681435,175.254547119,0.00125099997967,1.0,0.0,0.0,0.0,1.0,0.0,0.0,0.0,1.0,-0.243902444839,-0.18292683363,-0.18292683363,1.0,0.0,0.0,0.0,1.0,0.0,0.0,0.0,1.0,-0.0814028564453,-0.603338854892,10.1609918457,1.0,0.0,0.0,0.0,1.0,0.0,0.0,0.0,1.0
1480335205829579518,594,1480335205825720909,,4.28967285156,-3.31648468971,175.244308472,0.00103399995714,1.0,0.0,0.0,0.0,1.0,0.0,0.0,0.0,1.0,-0.0609756112099,-0.243902444839,0.12195122242,1.0,0.0,0.0,0.0,1.0,0.0,0.0,0.0,1.0,0.0143652099609,-0.574608398438,10.1992990723,1.0,0.0,0.0,0.0,1.0,0.0,0.0,0.0,1.0
1480335205852339715,595,1480335205848846572,,4.22462129593,-3.31564760208,175.23526001,0.00374000007287,1.0,0.0,0.0,0.0,1.0,0.0,0.0,0.0,1.0,0.12195122242,0.0609756112099,0.243902444839,1.0,0.0,0.0,0.0,1.0,0.0,0.0,0.0,1.0,0.287304199219,-0.622492431641,10.1178962158,1.0,0.0,0.0,0.0,1.0,0.0,0.0,0.0,1.0
1480335205872418376,596,1480335205868338155,,4.16682815552,-3.31019353867,175.229141235,0.00132200005464,1.0,0.0,0.0,0.0,1.0,0.0,0.0,0.0,1.0,0.243902444839,1.2195122242,0.0,1.0,0.0,0.0,0.0,1.0,0.0,0.0,0.0,1.0,0.282515795898,-0.569819995117,10.2328178955,1.0,0.0,0.0,0.0,1.0,0.0,0.0,0.0,1.0
1480335205892785472,597,1480335205889464827,,4.12760829926,-3.30737829208,175.212295532,0.00115100003313,1.0,0.0,0.0,0.0,1.0,0.0,0.0,0.0,1.0,0.0,2.25609779358,-0.304878056049,1.0,0.0,0.0,0.0,1.0,0.0,0.0,0.0,1.0,0.378283862305,-0.555454785156,10.299855542,1.0,0.0,0.0,0.0,1.0,0.0,0.0,0.0,1.0
1480335205913641730,598,1480335205910667332,,4.12433385849,-3.30883765221,175.190490723,0.00113600003533,1.0,0.0,0.0,0.0,1.0,0.0,0.0,0.0,1.0,-0.0609756112099,3.90243911743,-0.18292683363,1.0,0.0,0.0,0.0,1.0,0.0,0.0,0.0,1.0,0.253785375977,-0.507570751953,10.2711251221,1.0,0.0,0.0,0.0,1.0,0.0,0.0,0.0,1.0
1480335205933930754,599,1480335205931416090,,4.14854192734,-3.3087208271,175.164520264,0.00153100001626,1.0,0.0,0.0,0.0,1.0,0.0,0.0,0.0,1.0,0.12195122242,4.20731735229,-0.609756112099,1.0,0.0,0.0,0.0,1.0,0.0,0.0,0.0,1.0,0.167594116211,-0.579396801758,10.1705686523,1.0,0.0,0.0,0.0,1.0,0.0,0.0,0.0,1.0
1480335205955116540,600,1480335205952505627,,4.18848133087,-3.30745840073,175.138687134,0.00108499999624,1.0,0.0,0.0,0.0,1.0,0.0,0.0,0.0,1.0,0.12195122242,4.45121955872,-0.304878056049,1.0,0.0,0.0,0.0,1.0,0.0,0.0,0.0,1.0,0.0335188255255,-0.550666381836,10.2471831055,1.0,0.0,0.0,0.0,1.0,0.0,0.0,0.0,1.0
1480335205977695437,601,1480335205973681049,,4.2386932373,-3.30635762215,175.118896484,0.00102199998219,1.0,0.0,0.0,0.0,1.0,0.0,0.0,0.0,1.0,-0.0609756112099,4.20731735229,-0.304878056049,1.0,0.0,0.0,0.0,1.0,0.0,0.0,0.0,1.0,0.00478840332031,-0.541089611728,10.1370498291,1.0,0.0,0.0,0.0,1.0,0.0,0.0,0.0,1.0
1480335205999234917,602,1480335205994882303,,4.28165054321,-3.30317473412,175.097473145,0.000966000021435,1.0,0.0,0.0,0.0,1.0,0.0,0.0,0.0,1.0,-0.12195122242,3.47560977936,-0.609756112099,1.0,0.0,0.0,0.0,1.0,0.0,0.0,0.0,1.0,-0.0622492431641,-0.598550451572,10.3046439453,1.0,0.0,0.0,0.0,1.0,0.0,0.0,0.0,1.0
1480335206021730430,603,1480335206015225493,,4.30676937103,-3.30676674843,175.077713013,0.00107700005174,1.0,0.0,0.0,0.0,1.0,0.0,0.0,0.0,1.0,0.12195122242,2.74390244484,-0.426829278469,1.0,0.0,0.0,0.0,1.0,0.0,0.0,0.0,1.0,-0.0957680664062,-0.598550451572,10.0748005859,1.0,0.0,0.0,0.0,1.0,0.0,0.0,0.0,1.0
1480335206038754225,604,1480335206036100865,,4.31879663467,-3.30989170074,175.060775757,0.00105399999302,1.0,0.0,0.0,0.0,1.0,0.0,0.0,0.0,1.0,-0.18292683363,1.64634156227,-0.365853667259,1.0,0.0,0.0,0.0,1.0,0.0,0.0,0.0,1.0,-0.0335188255255,-0.541089611728,10.1322614258,1.0,0.0,0.0,0.0,1.0,0.0,0.0,0.0,1.0
1480335206064836214,605,1480335206057739094,,4.30883646011,-3.31315875053,175.045776367,0.00116600003093,1.0,0.0,0.0,0.0,1.0,0.0,0.0,0.0,1.0,-0.0609756112099,0.792682945728,-0.18292683363,1.0,0.0,0.0,0.0,1.0,0.0,0.0,0.0,1.0,-0.0430956298828,-0.526724328702,10.299855542,1.0,0.0,0.0,0.0,1.0,0.0,0.0,0.0,1.0
1480335206086239341,606,1480335206083413952,,4.26412200928,-3.31046581268,175.025695801,0.00725300004706,1.0,0.0,0.0,0.0,1.0,0.0,0.0,0.0,1.0,0.12195122242,0.18292683363,-0.426829278469,1.0,0.0,0.0,0.0,1.0,0.0,0.0,0.0,1.0,0.143652099609,-0.579396801758,10.2040874756,1.0,0.0,0.0,0.0,1.0,0.0,0.0,0.0,1.0
1480335206108202880,607,1480335206105009161,,4.21471261978,-3.31093263626,175.016082764,0.00224300008267,1.0,0.0,0.0,0.0,1.0,0.0,0.0,0.0,1.0,-0.0609756112099,0.487804889679,0.12195122242,1.0,0.0,0.0,0.0,1.0,0.0,0.0,0.0,1.0,0.196324536133,-0.536301208408,10.299855542,1.0,0.0,0.0,0.0,1.0,0.0,0.0,0.0,1.0
1480335206132418689,608,1480335206125614171,,4.17082643509,-3.31087446213,175.010681152,0.00158999999985,1.0,0.0,0.0,0.0,1.0,0.0,0.0,0.0,1.0,0.0609756112099,0.548780500889,0.365853667259,1.0,0.0,0.0,0.0,1.0,0.0,0.0,0.0,1.0,0.210689746094,-0.493205541992,10.2807019287,1.0,0.0,0.0,0.0,1.0,0.0,0.0,0.0,1.0
1480335206151039760,609,1480335206146457095,,4.12556600571,-3.312718153,174.999023438,0.00107999995816,1.0,0.0,0.0,0.0,1.0,0.0,0.0,0.0,1.0,-0.304878056049,1.2195122242,-0.0609756112099,1.0,0.0,0.0,0.0,1.0,0.0,0.0,0.0,1.0,0.320823022461,-0.636857641602,10.1466266357,1.0,0.0,0.0,0.0,1.0,0.0,0.0,0.0,1.0
1480335206170399886,610,1480335206167514966,,4.09378862381,-3.31226110458,174.98387146,0.000975999981165,1.0,0.0,0.0,0.0,1.0,0.0,0.0,0.0,1.0,-0.18292683363,2.01219511032,-0.487804889679,1.0,0.0,0.0,0.0,1.0,0.0,0.0,0.0,1.0,0.225054956055,-0.584185168546,10.3381627686,1.0,0.0,0.0,0.0,1.0,0.0,0.0,0.0,1.0
1480335206191077083,611,1480335206188671012,,4.07700586319,-3.31446194649,174.962081909,0.00116200000048,1.0,0.0,0.0,0.0,1.0,0.0,0.0,0.0,1.0,0.0,2.74390244484,-0.487804889679,1.0,0.0,0.0,0.0,1.0,0.0,0.0,0.0,1.0,0.220266552734,-0.612915625,10.2471831055,1.0,0.0,0.0,0.0,1.0,0.0,0.0,0.0,1.0
1480335206212830103,612,1480335206209967683,,4.07983350754,-3.31525063515,174.937957764,0.00125400000252,1.0,0.0,0.0,0.0,1.0,0.0,0.0,0.0,1.0,0.0,3.35365867615,-0.609756112099,1.0,0.0,0.0,0.0,1.0,0.0,0.0,0.0,1.0,0.138863696289,-0.593762048251,10.2519715088,1.0,0.0,0.0,0.0,1.0,0.0,0.0,0.0,1.0
1480335206233866463,613,1480335206230512850,,4.09784173965,-3.31338834763,174.913467407,0.00100899999961,1.0,0.0,0.0,0.0,1.0,0.0,0.0,0.0,1.0,-0.243902444839,3.29268312454,-0.426829278469,1.0,0.0,0.0,0.0,1.0,0.0,0.0,0.0,1.0,0.15322890625,-0.569819995117,10.1897222656,1.0,0.0,0.0,0.0,1.0,0.0,0.0,0.0,1.0
1480335206254266840,614,1480335206251146453,,4.12079286575,-3.31596255302,174.88710022,0.00124000001233,1.0,0.0,0.0,0.0,1.0,0.0,0.0,0.0,1.0,0.0,3.29268312454,-0.792682945728,1.0,0.0,0.0,0.0,1.0,0.0,0.0,0.0,1.0,-0.067037651051,-0.521935925381,10.0700121826,1.0,0.0,0.0,0.0,1.0,0.0,0.0,0.0,1.0
1480335206278059007,615,1480335206272270313,,4.15054130554,-3.31787991524,174.867507935,0.0011190000223,1.0,0.0,0.0,0.0,1.0,0.0,0.0,0.0,1.0,-0.0609756112099,2.68292689323,-0.365853667259,1.0,0.0,0.0,0.0,1.0,0.0,0.0,0.0,1.0,-0.0335188255255,-0.584185168546,10.2280294922,1.0,0.0,0.0,0.0,1.0,0.0,0.0,0.0,1.0
1480335206295615713,616,1480335206292978030,,4.16656398773,-3.31989073753,174.853179932,0.00117399997544,1.0,0.0,0.0,0.0,1.0,0.0,0.0,0.0,1.0,0.12195122242,2.01219511032,-0.243902444839,1.0,0.0,0.0,0.0,1.0,0.0,0.0,0.0,1.0,-0.0478840332031,-0.541089611728,10.3190091553,1.0,0.0,0.0,0.0,1.0,0.0,0.0,0.0,1.0
1480335206319543556,617,1480335206314427095,,4.16451025009,-3.32093596458,174.842712402,0.00126799999271,1.0,0.0,0.0,0.0,1.0,0.0,0.0,0.0,1.0,-0.243902444839,1.15853655338,0.0,1.0,0.0,0.0,0.0,1.0,0.0,0.0,0.0,1.0,-0.0430956298828,-0.60812722168,10.1322614258,1.0,0.0,0.0,0.0,1.0,0.0,0.0,0.0,1.0
1480335206338758788,618,1480335206335227572,,4.13572120667,-3.31958627701,174.833602905,0.00104300002567,1.0,0.0,0.0,0.0,1.0,0.0,0.0,0.0,1.0,-0.0609756112099,1.03658533096,-0.243902444839,1.0,0.0,0.0,0.0,1.0,0.0,0.0,0.0,1.0,0.134075302102,-0.636857641602,10.2567599121,1.0,0.0,0.0,0.0,1.0,0.0,0.0,0.0,1.0
1480335206360595869,619,1480335206356175079,,4.10339403152,-3.32181167603,174.823730469,0.00106100004632,1.0,0.0,0.0,0.0,1.0,0.0,0.0,0.0,1.0,-0.0609756112099,1.58536589146,-0.12195122242,1.0,0.0,0.0,0.0,1.0,0.0,0.0,0.0,1.0,0.239420166016,-0.588973571866,10.3285859619,1.0,0.0,0.0,0.0,1.0,0.0,0.0,0.0,1.0
1480335206380007870,620,1480335206377159096,,4.0817322731,-3.32190442085,174.81288147,0.00103100005072,1.0,0.0,0.0,0.0,1.0,0.0,0.0,0.0,1.0,-0.18292683363,2.01219511032,-0.0609756112099,1.0,0.0,0.0,0.0,1.0,0.0,0.0,0.0,1.0,0.210689746094,-0.579396801758,10.2423947021,1.0,0.0,0.0,0.0,1.0,0.0,0.0,0.0,1.0
1480335206407168130,621,1480335206399355288,,4.07052564621,-3.32423853874,174.798370361,0.00175099994522,1.0,0.0,0.0,0.0,1.0,0.0,0.0,0.0,1.0,0.18292683363,2.31707310677,0.0609756112099,1.0,0.0,0.0,0.0,1.0,0.0,0.0,0.0,1.0,0.148440512063,-0.574608398438,10.3860468018,1.0,0.0,0.0,0.0,1.0,0.0,0.0,0.0,1.0
1480335206425263581,622,1480335206421905592,,4.06278419495,-3.32611918449,174.779510498,0.00116900005378,1.0,0.0,0.0,0.0,1.0,0.0,0.0,0.0,1.0,-0.12195122242,2.86585378647,-0.609756112099,1.0,0.0,0.0,0.0,1.0,0.0,0.0,0.0,1.0,0.268150604204,-0.560243188477,10.2759135254,1.0,0.0,0.0,0.0,1.0,0.0,0.0,0.0,1.0
1480335206444378033,623,1480335206441966024,,4.07039546967,-3.32596826553,174.755371094,0.00150599994231,1.0,0.0,0.0,0.0,1.0,0.0,0.0,0.0,1.0,0.0,3.35365867615,-0.670731723309,1.0,0.0,0.0,0.0,1.0,0.0,0.0,0.0,1.0,0.124498486328,-0.675164868164,10.2902787354,1.0,0.0,0.0,0.0,1.0,0.0,0.0,0.0,1.0
1480335206467222761,624,1480335206464047895,,4.07944774628,-3.32922458649,174.730529785,0.00144000002183,1.0,0.0,0.0,0.0,1.0,0.0,0.0,0.0,1.0,-0.0609756112099,3.23170733452,-0.365853667259,1.0,0.0,0.0,0.0,1.0,0.0,0.0,0.0,1.0,0.191536132812,-0.545877978516,10.1035310059,1.0,0.0,0.0,0.0,1.0,0.0,0.0,0.0,1.0
1480335206488925573,625,1480335206484366710,,4.09948921204,-3.33163762093,174.700881958,0.00118599995039,1.0,0.0,0.0,0.0,1.0,0.0,0.0,0.0,1.0,0.0,3.23170733452,-0.731707334518,1.0,0.0,0.0,0.0,1.0,0.0,0.0,0.0,1.0,0.0909796630859,-0.588973571866,10.2519715088,1.0,0.0,0.0,0.0,1.0,0.0,0.0,0.0,1.0
1480335206509536885,626,1480335206504934169,,4.11685228348,-3.33671998978,174.675537109,0.00141899997834,1.0,0.0,0.0,0.0,1.0,0.0,0.0,0.0,1.0,-0.12195122242,2.86585378647,-0.487804889679,1.0,0.0,0.0,0.0,1.0,0.0,0.0,0.0,1.0,-0.0287304199219,-0.560243188477,10.3429511719,1.0,0.0,0.0,0.0,1.0,0.0,0.0,0.0,1.0
1480335206534815340,627,1480335206527253381,,4.13176822662,-3.33782196045,174.652709961,0.00140900001861,1.0,0.0,0.0,0.0,1.0,0.0,0.0,0.0,1.0,0.18292683363,2.43902444839,-0.670731723309,1.0,0.0,0.0,0.0,1.0,0.0,0.0,0.0,1.0,-0.0335188255255,-0.627280834961,10.2519715088,1.0,0.0,0.0,0.0,1.0,0.0,0.0,0.0,1.0
1480335206551759708,628,1480335206547884589,,4.13485336304,-3.33832573891,174.63104248,0.00116700003855,1.0,0.0,0.0,0.0,1.0,0.0,0.0,0.0,1.0,0.12195122242,2.13414645195,-0.243902444839,1.0,0.0,0.0,0.0,1.0,0.0,0.0,0.0,1.0,-0.00957680664062,-0.593762048251,10.1609918457,1.0,0.0,0.0,0.0,1.0,0.0,0.0,0.0,1.0
1480335206571749308,629,1480335206568190384,,4.14184951782,-3.33616280556,174.620376587,0.0010379999876,1.0,0.0,0.0,0.0,1.0,0.0,0.0,0.0,1.0,0.12195122242,2.56097555161,0.365853667259,1.0,0.0,0.0,0.0,1.0,0.0,0.0,0.0,1.0,0.148440512063,-0.632069238281,10.0317049561,1.0,0.0,0.0,0.0,1.0,0.0,0.0,0.0,1.0
1480335206593932844,630,1480335206588773154,,4.13304376602,-3.33758735657,174.608047485,0.00112100003753,1.0,0.0,0.0,0.0,1.0,0.0,0.0,0.0,1.0,0.0609756112099,2.01219511032,-0.304878056049,1.0,0.0,0.0,0.0,1.0,0.0,0.0,0.0,1.0,0.196324536133,-0.60812722168,10.2711251221,1.0,0.0,0.0,0.0,1.0,0.0,0.0,0.0,1.0
1480335206613499323,631,1480335206610097897,,4.12187433243,-3.33616113663,174.591812134,0.00118899997324,1.0,0.0,0.0,0.0,1.0,0.0,0.0,0.0,1.0,-0.0609756112099,2.5,-0.18292683363,1.0,0.0,0.0,0.0,1.0,0.0,0.0,0.0,1.0,0.114921679688,-0.502782348633,10.1370498291,1.0,0.0,0.0,0.0,1.0,0.0,0.0,0.0,1.0
1480335206633249810,632,1480335206630767594,,4.13010549545,-3.33559608459,174.576721191,0.00149599998258,1.0,0.0,0.0,0.0,1.0,0.0,0.0,0.0,1.0,-0.12195122242,2.19512200356,-0.243902444839,1.0,0.0,0.0,0.0,1.0,0.0,0.0,0.0,1.0,0.105344873047,-0.584185168546,10.2567599121,1.0,0.0,0.0,0.0,1.0,0.0,0.0,0.0,1.0
1480335206655371524,633,1480335206651950099,,4.13490486145,-3.3383128643,174.565826416,0.00103199994192,1.0,0.0,0.0,0.0,1.0,0.0,0.0,0.0,1.0,0.0,1.70731711388,0.0,1.0,0.0,0.0,0.0,1.0,0.0,0.0,0.0,1.0,0.0287304199219,-0.536301208408,10.2040874756,1.0,0.0,0.0,0.0,1.0,0.0,0.0,0.0,1.0
1480335206676511634,634,1480335206672873804,,4.12322950363,-3.33886766434,174.553741455,0.00122400000691,1.0,0.0,0.0,0.0,1.0,0.0,0.0,0.0,1.0,0.0,1.70731711388,-0.18292683363,1.0,0.0,0.0,0.0,1.0,0.0,0.0,0.0,1.0,0.129286889648,-0.588973571866,10.3764699951,1.0,0.0,0.0,0.0,1.0,0.0,0.0,0.0,1.0
1480335206697843616,635,1480335206693555324,,4.10247802734,-3.33858799934,174.543334961,0.00121400004718,1.0,0.0,0.0,0.0,1.0,0.0,0.0,0.0,1.0,0.0,1.76829278469,-0.243902444839,1.0,0.0,0.0,0.0,1.0,0.0,0.0,0.0,1.0,0.191536132812,-0.560243188477,10.2136642822,1.0,0.0,0.0,0.0,1.0,0.0,0.0,0.0,1.0
1480335206718584198,636,1480335206714659183,,4.08618927002,-3.33944511414,174.52835083,0.00111599999946,1.0,0.0,0.0,0.0,1.0,0.0,0.0,0.0,1.0,0.0609756112099,1.76829278469,-0.426829278469,1.0,0.0,0.0,0.0,1.0,0.0,0.0,0.0,1.0,0.201112939453,-0.612915625,10.3094323486,1.0,0.0,0.0,0.0,1.0,0.0,0.0,0.0,1.0
1480335206740937524,637,1480335206734459514,,4.0740852356,-3.34124994278,174.51260376,0.00109000003431,1.0,0.0,0.0,0.0,1.0,0.0,0.0,0.0,1.0,-0.12195122242,2.07317066193,0.0,1.0,0.0,0.0,0.0,1.0,0.0,0.0,0.0,1.0,0.191536132812,-0.636857641602,10.2471831055,1.0,0.0,0.0,0.0,1.0,0.0,0.0,0.0,1.0
1480335206758829175,638,1480335206755168065,,4.06540393829,-3.34119153023,174.498687744,0.000973000016529,1.0,0.0,0.0,0.0,1.0,0.0,0.0,0.0,1.0,-0.18292683363,2.37804889679,-0.12195122242,1.0,0.0,0.0,0.0,1.0,0.0,0.0,0.0,1.0,0.177170922852,-0.622492431641,10.2950671387,1.0,0.0,0.0,0.0,1.0,0.0,0.0,0.0,1.0
1480335206779219917,639,1480335206775943750,,4.05627918243,-3.34203028679,174.484115601,0.00105700001586,1.0,0.0,0.0,0.0,1.0,0.0,0.0,0.0,1.0,-0.0609756112099,2.68292689323,0.12195122242,1.0,0.0,0.0,0.0,1.0,0.0,0.0,0.0,1.0,0.220266552734,-0.574608398438,10.180145459,1.0,0.0,0.0,0.0,1.0,0.0,0.0,0.0,1.0
1480335206799711595,640,1480335206797272035,,4.05718564987,-3.34462428093,174.467269897,0.00104600004852,1.0,0.0,0.0,0.0,1.0,0.0,0.0,0.0,1.0,-0.18292683363,3.35365867615,-0.243902444839,1.0,0.0,0.0,0.0,1.0,0.0,0.0,0.0,1.0,0.172382519531,-0.612915625,10.0748005859,1.0,0.0,0.0,0.0,1.0,0.0,0.0,0.0,1.0
1480335206820130565,641,1480335206817937930,,4.07132196426,-3.34870314598,174.443847656,0.00107300002128,1.0,0.0,0.0,0.0,1.0,0.0,0.0,0.0,1.0,0.12195122242,3.65853667259,-0.243902444839,1.0,0.0,0.0,0.0,1.0,0.0,0.0,0.0,1.0,0.119710083008,-0.550666381836,10.0748005859,1.0,0.0,0.0,0.0,1.0,0.0,0.0,0.0,1.0
1480335206843434820,642,1480335206838507628,,4.10467147827,-3.34563946724,174.418502808,0.00124799995683,1.0,0.0,0.0,0.0,1.0,0.0,0.0,0.0,1.0,-0.0609756112099,4.14634132385,-0.487804889679,1.0,0.0,0.0,0.0,1.0,0.0,0.0,0.0,1.0,0.00478840332031,-0.507570751953,10.299855542,1.0,0.0,0.0,0.0,1.0,0.0,0.0,0.0,1.0
1480335206862896716,643,1480335206860008150,,4.14155387878,-3.34625172615,174.394119263,0.00118999998085,1.0,0.0,0.0,0.0,1.0,0.0,0.0,0.0,1.0,-0.18292683363,3.41463422775,-0.487804889679,1.0,0.0,0.0,0.0,1.0,0.0,0.0,0.0,1.0,0.0526724365234,-0.569819995117,10.2040874756,1.0,0.0,0.0,0.0,1.0,0.0,0.0,0.0,1.0
1480335206886042535,644,1480335206881923721,,4.17637634277,-3.34538865089,174.371307373,0.00189399998635,1.0,0.0,0.0,0.0,1.0,0.0,0.0,0.0,1.0,-0.243902444839,3.41463422775,-0.243902444839,1.0,0.0,0.0,0.0,1.0,0.0,0.0,0.0,1.0,-0.0718260498047,-0.603338854892,10.1992990723,1.0,0.0,0.0,0.0,1.0,0.0,0.0,0.0,1.0
1480335206905786147,645,1480335206902579824,,4.20175695419,-3.34061598778,174.353408813,0.00141400005668,1.0,0.0,0.0,0.0,1.0,0.0,0.0,0.0,1.0,0.243902444839,2.5,-0.12195122242,1.0,0.0,0.0,0.0,1.0,0.0,0.0,0.0,1.0,-0.067037651051,-0.536301208408,10.2136642822,1.0,0.0,0.0,0.0,1.0,0.0,0.0,0.0,1.0
1480335206927438439,646,1480335206923800505,,4.20902204514,-3.33976650238,174.335571289,0.00118899997324,1.0,0.0,0.0,0.0,1.0,0.0,0.0,0.0,1.0,-0.12195122242,1.8292683363,-0.12195122242,1.0,0.0,0.0,0.0,1.0,0.0,0.0,0.0,1.0,-0.0430956298828,-0.550666381836,10.2088758789,1.0,0.0,0.0,0.0,1.0,0.0,0.0,0.0,1.0
1480335206946551016,647,1480335206944093123,,4.20191478729,-3.34111046791,174.323028564,0.00127200002316,1.0,0.0,0.0,0.0,1.0,0.0,0.0,0.0,1.0,-0.0609756112099,1.70731711388,-0.0609756112099,1.0,0.0,0.0,0.0,1.0,0.0,0.0,0.0,1.0,-0.00478840332031,-0.541089611728,10.2902787354,1.0,0.0,0.0,0.0,1.0,0.0,0.0,0.0,1.0
1480335206968822000,648,1480335206965301096,,4.18822145462,-3.34423160553,174.308639526,0.00106299994513,1.0,0.0,0.0,0.0,1.0,0.0,0.0,0.0,1.0,-0.18292683363,1.2804877758,-0.18292683363,1.0,0.0,0.0,0.0,1.0,0.0,0.0,0.0,1.0,0.0287304199219,-0.579396801758,10.1562034424,1.0,0.0,0.0,0.0,1.0,0.0,0.0,0.0,1.0
1480335206989755757,649,1480335206985804493,,4.16341972351,-3.35064744949,174.296127319,0.00129000004381,1.0,0.0,0.0,0.0,1.0,0.0,0.0,0.0,1.0,-0.243902444839,1.09756100178,0.0609756112099,1.0,0.0,0.0,0.0,1.0,0.0,0.0,0.0,1.0,0.134075302102,-0.61770402832,10.2615483154,1.0,0.0,0.0,0.0,1.0,0.0,0.0,0.0,1.0
1480335207009161924,650,1480335207007107465,,4.13680315018,-3.34813261032,174.285400391,0.00104400003329,1.0,0.0,0.0,0.0,1.0,0.0,0.0,0.0,1.0,-0.18292683363,1.70731711388,-0.12195122242,1.0,0.0,0.0,0.0,1.0,0.0,0.0,0.0,1.0,0.220266552734,-0.588973571866,10.1897222656,1.0,0.0,0.0,0.0,1.0,0.0,0.0,0.0,1.0
1480335207030072088,651,1480335207027949139,,4.11177158356,-3.34725522995,174.270217896,0.00102199998219,1.0,0.0,0.0,0.0,1.0,0.0,0.0,0.0,1.0,0.0,2.19512200356,-0.365853667259,1.0,0.0,0.0,0.0,1.0,0.0,0.0,0.0,1.0,0.177170922852,-0.632069238281,10.2376062988,1.0,0.0,0.0,0.0,1.0,0.0,0.0,0.0,1.0
1480335207051427247,652,1480335207048735710,,4.10212993622,-3.34662795067,174.251373291,0.00193300005049,1.0,0.0,0.0,0.0,1.0,0.0,0.0,0.0,1.0,0.0,3.10975623131,-0.670731723309,1.0,0.0,0.0,0.0,1.0,0.0,0.0,0.0,1.0,0.210689746094,-0.555454785156,10.2040874756,1.0,0.0,0.0,0.0,1.0,0.0,0.0,0.0,1.0
1480335207072282828,653,1480335207069432386,,4.10923624039,-3.34579086304,174.22958374,0.000982000026852,1.0,0.0,0.0,0.0,1.0,0.0,0.0,0.0,1.0,0.0609756112099,3.41463422775,-0.609756112099,1.0,0.0,0.0,0.0,1.0,0.0,0.0,0.0,1.0,0.229843359375,-0.555454785156,10.285490332,1.0,0.0,0.0,0.0,1.0,0.0,0.0,0.0,1.0
1480335207093881682,654,1480335207090803379,,4.13014984131,-3.34674859047,174.205307007,0.000966000021435,1.0,0.0,0.0,0.0,1.0,0.0,0.0,0.0,1.0,0.12195122242,3.96341490746,-0.670731723309,1.0,0.0,0.0,0.0,1.0,0.0,0.0,0.0,1.0,0.0957680664062,-0.569819995117,10.3956236084,1.0,0.0,0.0,0.0,1.0,0.0,0.0,0.0,1.0
1480335207115656213,655,1480335207112280308,,4.15967416763,-3.34385967255,174.182266235,0.0011269999668,1.0,0.0,0.0,0.0,1.0,0.0,0.0,0.0,1.0,-0.12195122242,3.53658556938,-0.670731723309,1.0,0.0,0.0,0.0,1.0,0.0,0.0,0.0,1.0,0.0718260498047,-0.584185168546,10.299855542,1.0,0.0,0.0,0.0,1.0,0.0,0.0,0.0,1.0
1480335207137720323,656,1480335207133605936,,4.19037294388,-3.34651446342,174.15826416,0.00107400002889,1.0,0.0,0.0,0.0,1.0,0.0,0.0,0.0,1.0,0.0609756112099,3.65853667259,-0.243902444839,1.0,0.0,0.0,0.0,1.0,0.0,0.0,0.0,1.0,0.114921679688,-0.541089611728,10.1753570557,1.0,0.0,0.0,0.0,1.0,0.0,0.0,0.0,1.0
1480335207158025753,657,1480335207154727556,,4.21616744995,-3.34136080742,174.141998291,0.000972000008915,1.0,0.0,0.0,0.0,1.0,0.0,0.0,0.0,1.0,0.0,3.29268312454,-0.426829278469,1.0,0.0,0.0,0.0,1.0,0.0,0.0,0.0,1.0,-0.0143652099609,-0.469263525391,10.165780249,1.0,0.0,0.0,0.0,1.0,0.0,0.0,0.0,1.0
1480335207182184167,658,1480335207175800009,,4.23714637756,-3.33906674385,174.122558594,0.000996000017039,1.0,0.0,0.0,0.0,1.0,0.0,0.0,0.0,1.0,0.0,2.74390244484,-0.426829278469,1.0,0.0,0.0,0.0,1.0,0.0,0.0,0.0,1.0,-0.00957680664062,-0.588973571866,10.2759135254,1.0,0.0,0.0,0.0,1.0,0.0,0.0,0.0,1.0
1480335207203642919,659,1480335207197208710,,4.24668693542,-3.34145784378,174.103546143,0.00100100005511,1.0,0.0,0.0,0.0,1.0,0.0,0.0,0.0,1.0,-0.0609756112099,2.37804889679,-0.243902444839,1.0,0.0,0.0,0.0,1.0,0.0,0.0,0.0,1.0,0.0861912597656,-0.584185168546,10.2471831055,1.0,0.0,0.0,0.0,1.0,0.0,0.0,0.0,1.0
1480335207225094952,660,1480335207217406484,,4.2523727417,-3.34017491341,174.089309692,0.00104000000283,1.0,0.0,0.0,0.0,1.0,0.0,0.0,0.0,1.0,-0.0609756112099,2.13414645195,-0.426829278469,1.0,0.0,0.0,0.0,1.0,0.0,0.0,0.0,1.0,0.00957680664062,-0.60812722168,10.2423947021,1.0,0.0,0.0,0.0,1.0,0.0,0.0,0.0,1.0
1480335207246043917,661,1480335207238752268,,4.24459457397,-3.33829498291,174.068572998,0.00126199994702,1.0,0.0,0.0,0.0,1.0,0.0,0.0,0.0,1.0,-0.0609756112099,1.8292683363,-0.731707334518,1.0,0.0,0.0,0.0,1.0,0.0,0.0,0.0,1.0,0.0718260498047,-0.531512805087,10.285490332,1.0,0.0,0.0,0.0,1.0,0.0,0.0,0.0,1.0
1480335207265517376,662,1480335207259659880,,4.23132944107,-3.33964753151,174.052185059,0.00115899997763,1.0,0.0,0.0,0.0,1.0,0.0,0.0,0.0,1.0,-0.12195122242,1.64634156227,-0.18292683363,1.0,0.0,0.0,0.0,1.0,0.0,0.0,0.0,1.0,0.0909796630859,-0.517147558594,10.2615483154,1.0,0.0,0.0,0.0,1.0,0.0,0.0,0.0,1.0
1480335207285328956,663,1480335207281238735,,4.21325874329,-3.34000682831,174.033706665,0.00121799996123,1.0,0.0,0.0,0.0,1.0,0.0,0.0,0.0,1.0,-0.243902444839,1.2804877758,-0.12195122242,1.0,0.0,0.0,0.0,1.0,0.0,0.0,0.0,1.0,0.15322890625,-0.593762048251,10.299855542,1.0,0.0,0.0,0.0,1.0,0.0,0.0,0.0,1.0
1480335207305967924,664,1480335207302461343,,4.19565677643,-3.34094452858,174.017272949,0.00120299996343,1.0,0.0,0.0,0.0,1.0,0.0,0.0,0.0,1.0,0.0609756112099,1.46341466904,-0.304878056049,1.0,0.0,0.0,0.0,1.0,0.0,0.0,0.0,1.0,0.0478840332031,-0.598550451572,10.2040874756,1.0,0.0,0.0,0.0,1.0,0.0,0.0,0.0,1.0
1480335207329723112,665,1480335207325636850,,4.1771903038,-3.33954596519,174.00479126,0.00131600000896,1.0,0.0,0.0,0.0,1.0,0.0,0.0,0.0,1.0,0.0609756112099,1.76829278469,-0.609756112099,1.0,0.0,0.0,0.0,1.0,0.0,0.0,0.0,1.0,0.162805712891,-0.579396801758,10.1945106689,1.0,0.0,0.0,0.0,1.0,0.0,0.0,0.0,1.0
1480335207351732276,666,1480335207345483169,,4.15679121017,-3.33946299553,173.990112305,0.00417299987748,1.0,0.0,0.0,0.0,1.0,0.0,0.0,0.0,1.0,0.0,2.01219511032,-0.18292683363,1.0,0.0,0.0,0.0,1.0,0.0,0.0,0.0,1.0,0.196324536133,-0.517147558594,10.1753570557,1.0,0.0,0.0,0.0,1.0,0.0,0.0,0.0,1.0
1480335207368193055,667,1480335207365104491,,4.14417600632,-3.33450078964,173.973022461,0.00148400000762,1.0,0.0,0.0,0.0,1.0,0.0,0.0,0.0,1.0,0.0609756112099,2.25609779358,-0.243902444839,1.0,0.0,0.0,0.0,1.0,0.0,0.0,0.0,1.0,0.196324536133,-0.555454785156,10.2184526855,1.0,0.0,0.0,0.0,1.0,0.0,0.0,0.0,1.0
1480335207389144624,668,1480335207385774240,,4.1395368576,-3.33352708817,173.95513916,0.00106699997559,1.0,0.0,0.0,0.0,1.0,0.0,0.0,0.0,1.0,0.0609756112099,2.80487799644,-0.304878056049,1.0,0.0,0.0,0.0,1.0,0.0,0.0,0.0,1.0,0.172382519531,-0.560243188477,10.3190091553,1.0,0.0,0.0,0.0,1.0,0.0,0.0,0.0,1.0
1480335207410322910,669,1480335207406596852,,4.14434528351,-3.33446526527,173.935470581,0.00118300004397,1.0,0.0,0.0,0.0,1.0,0.0,0.0,0.0,1.0,0.12195122242,3.17073178291,-0.426829278469,1.0,0.0,0.0,0.0,1.0,0.0,0.0,0.0,1.0,0.138863696289,-0.603338854892,10.2184526855,1.0,0.0,0.0,0.0,1.0,0.0,0.0,0.0,1.0
1480335207430969222,670,1480335207427835919,,4.16207551956,-3.33535480499,173.911712646,0.000988999963738,1.0,0.0,0.0,0.0,1.0,0.0,0.0,0.0,1.0,-0.365853667259,3.47560977936,-0.609756112099,1.0,0.0,0.0,0.0,1.0,0.0,0.0,0.0,1.0,0.0478840332031,-0.545877978516,10.1897222656,1.0,0.0,0.0,0.0,1.0,0.0,0.0,0.0,1.0
1480335207451942093,671,1480335207448270566,,4.18506383896,-3.33592629433,173.888595581,0.00142200000118,1.0,0.0,0.0,0.0,1.0,0.0,0.0,0.0,1.0,-0.12195122242,3.65853667259,-0.304878056049,1.0,0.0,0.0,0.0,1.0,0.0,0.0,0.0,1.0,0.0909796630859,-0.588973571866,10.299855542,1.0,0.0,0.0,0.0,1.0,0.0,0.0,0.0,1.0
1480335207472857882,672,1480335207468937294,,4.21427440643,-3.33303308487,173.872680664,0.00127500004601,1.0,0.0,0.0,0.0,1.0,0.0,0.0,0.0,1.0,0.12195122242,3.71951246262,-0.365853667259,1.0,0.0,0.0,0.0,1.0,0.0,0.0,0.0,1.0,0.00478840332031,-0.531512805087,10.2567599121,1.0,0.0,0.0,0.0,1.0,0.0,0.0,0.0,1.0
1480335207493077791,673,1480335207490137559,,4.24142360687,-3.33434343338,173.852676392,0.000972000008915,1.0,0.0,0.0,0.0,1.0,0.0,0.0,0.0,1.0,-0.18292683363,3.10975623131,-0.426829278469,1.0,0.0,0.0,0.0,1.0,0.0,0.0,0.0,1.0,0.00478840332031,-0.584185168546,10.2711251221,1.0,0.0,0.0,0.0,1.0,0.0,0.0,0.0,1.0
1480335207514807010,674,1480335207511459958,,4.26161003113,-3.33596968651,173.832626343,0.000980000011623,1.0,0.0,0.0,0.0,1.0,0.0,0.0,0.0,1.0,0.304878056049,3.23170733452,-0.18292683363,1.0,0.0,0.0,0.0,1.0,0.0,0.0,0.0,1.0,-0.0191536132812,-0.574608398438,10.2950671387,1.0,0.0,0.0,0.0,1.0,0.0,0.0,0.0,1.0
1480335207535907588,675,1480335207532874180,,4.27898263931,-3.33439064026,173.815292358,0.00101799995173,1.0,0.0,0.0,0.0,1.0,0.0,0.0,0.0,1.0,0.12195122242,2.68292689323,-0.12195122242,1.0,0.0,0.0,0.0,1.0,0.0,0.0,0.0,1.0,0.0574608398438,-0.627280834961,10.2040874756,1.0,0.0,0.0,0.0,1.0,0.0,0.0,0.0,1.0
1480335207557379986,676,1480335207553432732,,4.28941249847,-3.33401584625,173.79536438,0.000968999986071,1.0,0.0,0.0,0.0,1.0,0.0,0.0,0.0,1.0,-0.0609756112099,2.07317066193,-0.426829278469,1.0,0.0,0.0,0.0,1.0,0.0,0.0,0.0,1.0,-0.0143652099609,-0.526724328702,10.1992990723,1.0,0.0,0.0,0.0,1.0,0.0,0.0,0.0,1.0
1480335207578016714,677,1480335207573992586,,4.28813409805,-3.33767700195,173.777648926,0.000966000021435,1.0,0.0,0.0,0.0,1.0,0.0,0.0,0.0,1.0,0.0609756112099,1.64634156227,-0.18292683363,1.0,0.0,0.0,0.0,1.0,0.0,0.0,0.0,1.0,0.0239420166016,-0.502782348633,10.1562034424,1.0,0.0,0.0,0.0,1.0,0.0,0.0,0.0,1.0
1480335207597873763,678,1480335207594773949,,4.27677440643,-3.33947873116,173.762512207,0.000961999990977,1.0,0.0,0.0,0.0,1.0,0.0,0.0,0.0,1.0,-0.0609756112099,1.03658533096,-0.12195122242,1.0,0.0,0.0,0.0,1.0,0.0,0.0,0.0,1.0,0.0191536132812,-0.651222851562,10.299855542,1.0,0.0,0.0,0.0,1.0,0.0,0.0,0.0,1.0
1480335207622540244,679,1480335207615789945,,4.25176239014,-3.33864974976,173.746963501,0.000959000026342,1.0,0.0,0.0,0.0,1.0,0.0,0.0,0.0,1.0,0.0609756112099,0.853658556938,-0.426829278469,1.0,0.0,0.0,0.0,1.0,0.0,0.0,0.0,1.0,-0.00478840332031,-0.545877978516,10.1226846191,1.0,0.0,0.0,0.0,1.0,0.0,0.0,0.0,1.0
1480335207642893382,680,1480335207636267300,,4.21660327911,-3.33738946915,173.733535767,0.000989999971353,1.0,0.0,0.0,0.0,1.0,0.0,0.0,0.0,1.0,-0.0609756112099,0.304878056049,-0.12195122242,1.0,0.0,0.0,0.0,1.0,0.0,0.0,0.0,1.0,0.129286889648,-0.569819995117,10.3621047852,1.0,0.0,0.0,0.0,1.0,0.0,0.0,0.0,1.0
1480335207662773608,681,1480335207657847769,,4.17714309692,-3.33882141113,173.727218628,0.00102099997457,1.0,0.0,0.0,0.0,1.0,0.0,0.0,0.0,1.0,0.243902444839,1.2195122242,0.365853667259,1.0,0.0,0.0,0.0,1.0,0.0,0.0,0.0,1.0,0.105344873047,-0.598550451572,10.1945106689,1.0,0.0,0.0,0.0,1.0,0.0,0.0,0.0,1.0
1480335207685682971,682,1480335207678810849,,4.1446762085,-3.33803248405,173.714813232,0.0013119999785,1.0,0.0,0.0,0.0,1.0,0.0,0.0,0.0,1.0,0.0,1.2804877758,-0.365853667259,1.0,0.0,0.0,0.0,1.0,0.0,0.0,0.0,1.0,0.234631762695,-0.588973571866,10.2711251221,1.0,0.0,0.0,0.0,1.0,0.0,0.0,0.0,1.0
1480335207704621538,683,1480335207701372038,,4.11602497101,-3.34254217148,173.694030762,0.00179200002458,1.0,0.0,0.0,0.0,1.0,0.0,0.0,0.0,1.0,-0.12195122242,2.43902444839,-0.243902444839,1.0,0.0,0.0,0.0,1.0,0.0,0.0,0.0,1.0,0.253785375977,-0.579396801758,10.2280294922,1.0,0.0,0.0,0.0,1.0,0.0,0.0,0.0,1.0
1480335207725436338,684,1480335207722996310,,4.11796712875,-3.34404444695,173.676300049,0.00225499994121,1.0,0.0,0.0,0.0,1.0,0.0,0.0,0.0,1.0,-0.12195122242,2.92682933807,-0.365853667259,1.0,0.0,0.0,0.0,1.0,0.0,0.0,0.0,1.0,0.100556469727,-0.574608398438,10.2567599121,1.0,0.0,0.0,0.0,1.0,0.0,0.0,0.0,1.0
1480335207748046850,685,1480335207744017305,,4.12515974045,-3.34401106834,173.649383545,0.00166700000409,1.0,0.0,0.0,0.0,1.0,0.0,0.0,0.0,1.0,-0.304878056049,2.92682933807,-0.731707334518,1.0,0.0,0.0,0.0,1.0,0.0,0.0,0.0,1.0,0.067037651051,-0.603338854892,10.1992990723,1.0,0.0,0.0,0.0,1.0,0.0,0.0,0.0,1.0
1480335207767852441,686,1480335207764368516,,4.14036178589,-3.34128856659,173.632476807,0.00124899996445,1.0,0.0,0.0,0.0,1.0,0.0,0.0,0.0,1.0,-0.0609756112099,3.23170733452,-0.0609756112099,1.0,0.0,0.0,0.0,1.0,0.0,0.0,0.0,1.0,0.148440512063,-0.622492431641,10.2615483154,1.0,0.0,0.0,0.0,1.0,0.0,0.0,0.0,1.0
1480335207788877082,687,1480335207785224357,,4.15761566162,-3.34196066856,173.611755371,0.00104400003329,1.0,0.0,0.0,0.0,1.0,0.0,0.0,0.0,1.0,-0.0609756112099,2.62195134163,-0.609756112099,1.0,0.0,0.0,0.0,1.0,0.0,0.0,0.0,1.0,0.067037651051,-0.598550451572,10.1226846191,1.0,0.0,0.0,0.0,1.0,0.0,0.0,0.0,1.0
1480335207808894754,688,1480335207805481871,,4.16564846039,-3.33953094482,173.590606689,0.0016680000117,1.0,0.0,0.0,0.0,1.0,0.0,0.0,0.0,1.0,0.12195122242,2.80487799644,-0.304878056049,1.0,0.0,0.0,0.0,1.0,0.0,0.0,0.0,1.0,0.00957680664062,-0.497993945312,10.0891657959,1.0,0.0,0.0,0.0,1.0,0.0,0.0,0.0,1.0
1480335207829647680,689,1480335207827148329,,4.17912244797,-3.33809065819,173.574584961,0.00117299996782,1.0,0.0,0.0,0.0,1.0,0.0,0.0,0.0,1.0,0.12195122242,2.5,-0.304878056049,1.0,0.0,0.0,0.0,1.0,0.0,0.0,0.0,1.0,-0.0430956298828,-0.622492431641,10.180145459,1.0,0.0,0.0,0.0,1.0,0.0,0.0,0.0,1.0
1480335207854093278,690,1480335207850699509,,4.17321014404,-3.33833265305,173.553741455,0.00599199999124,1.0,0.0,0.0,0.0,1.0,0.0,0.0,0.0,1.0,-0.18292683363,1.70731711388,-0.18292683363,1.0,0.0,0.0,0.0,1.0,0.0,0.0,0.0,1.0,0.067037651051,-0.550666381836,10.2711251221,1.0,0.0,0.0,0.0,1.0,0.0,0.0,0.0,1.0
1480335207874438864,691,1480335207871243374,,4.16555976868,-3.3372220993,173.542251587,0.00128199998289,1.0,0.0,0.0,0.0,1.0,0.0,0.0,0.0,1.0,0.0609756112099,1.64634156227,0.0609756112099,1.0,0.0,0.0,0.0,1.0,0.0,0.0,0.0,1.0,0.0430956298828,-0.641646044922,10.1514150391,1.0,0.0,0.0,0.0,1.0,0.0,0.0,0.0,1.0
1480335207894080133,692,1480335207891692083,,4.14389562607,-3.33554363251,173.528060913,0.00097499997355,1.0,0.0,0.0,0.0,1.0,0.0,0.0,0.0,1.0,-0.0609756112099,0.731707334518,-0.365853667259,1.0,0.0,0.0,0.0,1.0,0.0,0.0,0.0,1.0,0.201112939453,-0.603338854892,10.1274730225,1.0,0.0,0.0,0.0,1.0,0.0,0.0,0.0,1.0
1480335207921876897,693,1480335207912612403,,4.11558675766,-3.33454203606,173.51625061,0.0012300000526,1.0,0.0,0.0,0.0,1.0,0.0,0.0,0.0,1.0,0.0609756112099,1.15853655338,0.0609756112099,1.0,0.0,0.0,0.0,1.0,0.0,0.0,0.0,1.0,0.181959326172,-0.531512805087,10.2471831055,1.0,0.0,0.0,0.0,1.0,0.0,0.0,0.0,1.0
1480335207939102981,694,1480335207934362194,,4.08540439606,-3.33331227303,173.505813599,0.00127400003839,1.0,0.0,0.0,0.0,1.0,0.0,0.0,0.0,1.0,-0.18292683363,1.46341466904,-0.304878056049,1.0,0.0,0.0,0.0,1.0,0.0,0.0,0.0,1.0,0.177170922852,-0.579396801758,10.180145459,1.0,0.0,0.0,0.0,1.0,0.0,0.0,0.0,1.0
1480335207963129469,695,1480335207955245118,,4.05405569077,-3.33485150337,173.485778809,0.00097499997355,1.0,0.0,0.0,0.0,1.0,0.0,0.0,0.0,1.0,0.0609756112099,2.01219511032,-0.18292683363,1.0,0.0,0.0,0.0,1.0,0.0,0.0,0.0,1.0,0.215478149414,-0.641646044922,10.1992990723,1.0,0.0,0.0,0.0,1.0,0.0,0.0,0.0,1.0
1480335207982686000,696,1480335207976145490,,4.04589414597,-3.3383731842,173.468109131,0.00114800001029,1.0,0.0,0.0,0.0,1.0,0.0,0.0,0.0,1.0,-0.18292683363,2.31707310677,-0.304878056049,1.0,0.0,0.0,0.0,1.0,0.0,0.0,0.0,1.0,0.0191536132812,-0.660799658203,10.2088758789,1.0,0.0,0.0,0.0,1.0,0.0,0.0,0.0,1.0
1480335208003577882,697,1480335207996662636,,4.0360956192,-3.34032464027,173.452163696,0.00132999999914,1.0,0.0,0.0,0.0,1.0,0.0,0.0,0.0,1.0,-0.18292683363,2.37804889679,-0.487804889679,1.0,0.0,0.0,0.0,1.0,0.0,0.0,0.0,1.0,0.172382519531,-0.627280834961,10.3094323486,1.0,0.0,0.0,0.0,1.0,0.0,0.0,0.0,1.0
1480335208025220955,698,1480335208017594466,,4.03655195236,-3.33496785164,173.435668945,0.00104700005613,1.0,0.0,0.0,0.0,1.0,0.0,0.0,0.0,1.0,-0.18292683363,2.62195134163,-0.670731723309,1.0,0.0,0.0,0.0,1.0,0.0,0.0,0.0,1.0,0.148440512063,-0.579396801758,10.165780249,1.0,0.0,0.0,0.0,1.0,0.0,0.0,0.0,1.0
1480335208044280460,699,1480335208038560306,,4.04099416733,-3.33734989166,173.415679932,0.00133700005244,1.0,0.0,0.0,0.0,1.0,0.0,0.0,0.0,1.0,-0.243902444839,2.80487799644,-0.548780500889,1.0,0.0,0.0,0.0,1.0,0.0,0.0,0.0,1.0,0.124498486328,-0.641646044922,10.2184526855,1.0,0.0,0.0,0.0,1.0,0.0,0.0,0.0,1.0
1480335208066891180,700,1480335208061806176,,4.05050325394,-3.33929824829,173.397018433,0.00314699998125,1.0,0.0,0.0,0.0,1.0,0.0,0.0,0.0,1.0,-0.0609756112099,2.31707310677,-0.12195122242,1.0,0.0,0.0,0.0,1.0,0.0,0.0,0.0,1.0,0.0335188255255,-0.60812722168,10.180145459,1.0,0.0,0.0,0.0,1.0,0.0,0.0,0.0,1.0
1480335208086562657,701,1480335208082903786,,4.05106687546,-3.340675354,173.380859375,0.00119700003415,1.0,0.0,0.0,0.0,1.0,0.0,0.0,0.0,1.0,-0.243902444839,2.13414645195,-0.12195122242,1.0,0.0,0.0,0.0,1.0,0.0,0.0,0.0,1.0,0.143652099609,-0.60812722168,10.3046439453,1.0,0.0,0.0,0.0,1.0,0.0,0.0,0.0,1.0
1480335208107953962,702,1480335208104506808,,4.04589557648,-3.33732414246,173.362411499,0.00163299997803,1.0,0.0,0.0,0.0,1.0,0.0,0.0,0.0,1.0,0.18292683363,2.13414645195,-0.365853667259,1.0,0.0,0.0,0.0,1.0,0.0,0.0,0.0,1.0,0.129286889648,-0.569819995117,10.1226846191,1.0,0.0,0.0,0.0,1.0,0.0,0.0,0.0,1.0
1480335208129734169,703,1480335208125928529,,4.04286146164,-3.33765745163,173.345947266,0.00130999996327,1.0,0.0,0.0,0.0,1.0,0.0,0.0,0.0,1.0,-0.0609756112099,2.07317066193,-0.12195122242,1.0,0.0,0.0,0.0,1.0,0.0,0.0,0.0,1.0,0.0718260498047,-0.627280834961,10.1418382324,1.0,0.0,0.0,0.0,1.0,0.0,0.0,0.0,1.0
1480335208153792688,704,1480335208146384530,,4.0373711586,-3.33681559563,173.32824707,0.000981000019237,1.0,0.0,0.0,0.0,1.0,0.0,0.0,0.0,1.0,-0.0609756112099,2.01219511032,-0.426829278469,1.0,0.0,0.0,0.0,1.0,0.0,0.0,0.0,1.0,0.138863696289,-0.61770402832,10.180145459,1.0,0.0,0.0,0.0,1.0,0.0,0.0,0.0,1.0
1480335208171072417,705,1480335208167066623,,4.03022003174,-3.33106732368,173.31237793,0.00101600005291,1.0,0.0,0.0,0.0,1.0,0.0,0.0,0.0,1.0,-0.12195122242,2.43902444839,-0.243902444839,1.0,0.0,0.0,0.0,1.0,0.0,0.0,0.0,1.0,0.148440512063,-0.60812722168,10.0317049561,1.0,0.0,0.0,0.0,1.0,0.0,0.0,0.0,1.0
1480335208191532898,706,1480335208188180951,,4.02814483643,-3.33430624008,173.293395996,0.00120499997865,1.0,0.0,0.0,0.0,1.0,0.0,0.0,0.0,1.0,0.0609756112099,2.62195134163,-0.243902444839,1.0,0.0,0.0,0.0,1.0,0.0,0.0,0.0,1.0,0.0861912597656,-0.550666381836,10.2471831055,1.0,0.0,0.0,0.0,1.0,0.0,0.0,0.0,1.0
1480335208213731903,707,1480335208208507630,,4.02737665176,-3.33536624908,173.275360107,0.00109999999404,1.0,0.0,0.0,0.0,1.0,0.0,0.0,0.0,1.0,-0.0609756112099,2.37804889679,-0.365853667259,1.0,0.0,0.0,0.0,1.0,0.0,0.0,0.0,1.0,0.229843359375,-0.598550451572,10.2376062988,1.0,0.0,0.0,0.0,1.0,0.0,0.0,0.0,1.0
1480335208231558242,708,1480335208229958205,,4.03191232681,-3.33417201042,173.258575439,0.00190899998415,1.0,0.0,0.0,0.0,1.0,0.0,0.0,0.0,1.0,-0.18292683363,2.56097555161,0.0,1.0,0.0,0.0,0.0,1.0,0.0,0.0,0.0,1.0,0.00478840332031,-0.699106884766,10.0891657959,1.0,0.0,0.0,0.0,1.0,0.0,0.0,0.0,1.0
1480335208252404812,709,1480335208250700454,,4.0339641571,-3.33741545677,173.240066528,0.000984000042081,1.0,0.0,0.0,0.0,1.0,0.0,0.0,0.0,1.0,0.304878056049,2.5,-0.304878056049,1.0,0.0,0.0,0.0,1.0,0.0,0.0,0.0,1.0,0.0957680664062,-0.574608398438,10.2280294922,1.0,0.0,0.0,0.0,1.0,0.0,0.0,0.0,1.0
1480335208273268883,710,1480335208271663585,,4.03667211533,-3.33935785294,173.222961426,0.0010450000409,1.0,0.0,0.0,0.0,1.0,0.0,0.0,0.0,1.0,-0.18292683363,2.62195134163,-0.365853667259,1.0,0.0,0.0,0.0,1.0,0.0,0.0,0.0,1.0,0.110133276367,-0.603338854892,10.2615483154,1.0,0.0,0.0,0.0,1.0,0.0,0.0,0.0,1.0
1480335208294115401,711,1480335208292463438,,4.04495763779,-3.33504223824,173.204833984,0.000969999993686,1.0,0.0,0.0,0.0,1.0,0.0,0.0,0.0,1.0,-0.12195122242,2.56097555161,-0.365853667259,1.0,0.0,0.0,0.0,1.0,0.0,0.0,0.0,1.0,0.205901342773,-0.541089611728,10.2040874756,1.0,0.0,0.0,0.0,1.0,0.0,0.0,0.0,1.0
1480335208317603925,712,1480335208313827451,,4.05226230621,-3.32956624031,173.183898926,0.000985000049695,1.0,0.0,0.0,0.0,1.0,0.0,0.0,0.0,1.0,0.0,2.92682933807,-0.304878056049,1.0,0.0,0.0,0.0,1.0,0.0,0.0,0.0,1.0,0.134075302102,-0.569819995117,10.2519715088,1.0,0.0,0.0,0.0,1.0,0.0,0.0,0.0,1.0
1480335208336979832,713,1480335208334493294,,4.06210565567,-3.32756376266,173.164794922,0.00106699997559,1.0,0.0,0.0,0.0,1.0,0.0,0.0,0.0,1.0,0.0609756112099,2.80487799644,-0.304878056049,1.0,0.0,0.0,0.0,1.0,0.0,0.0,0.0,1.0,0.143652099609,-0.622492431641,10.2136642822,1.0,0.0,0.0,0.0,1.0,0.0,0.0,0.0,1.0
1480335208357392969,714,1480335208355468509,,4.0724439621,-3.32864236832,173.145187378,0.001111999969,1.0,0.0,0.0,0.0,1.0,0.0,0.0,0.0,1.0,0.12195122242,3.10975623131,-0.243902444839,1.0,0.0,0.0,0.0,1.0,0.0,0.0,0.0,1.0,0.124498486328,-0.670376464844,10.1609918457,1.0,0.0,0.0,0.0,1.0,0.0,0.0,0.0,1.0
1480335208383382980,715,1480335208377116426,,4.08380270004,-3.32892465591,173.127532959,0.00112399994396,1.0,0.0,0.0,0.0,1.0,0.0,0.0,0.0,1.0,0.0,3.04878044128,-0.365853667259,1.0,0.0,0.0,0.0,1.0,0.0,0.0,0.0,1.0,0.148440512063,-0.579396801758,10.3285859619,1.0,0.0,0.0,0.0,1.0,0.0,0.0,0.0,1.0
1480335208399466523,716,1480335208397794873,,4.09766578674,-3.3288230896,173.10723877,0.00111099996138,1.0,0.0,0.0,0.0,1.0,0.0,0.0,0.0,1.0,0.0,2.86585378647,-0.609756112099,1.0,0.0,0.0,0.0,1.0,0.0,0.0,0.0,1.0,0.105344873047,-0.588973571866,10.1945106689,1.0,0.0,0.0,0.0,1.0,0.0,0.0,0.0,1.0
1480335208420378041,717,1480335208418673370,,4.10967636108,-3.32720398903,173.086044312,0.00114499998745,1.0,0.0,0.0,0.0,1.0,0.0,0.0,0.0,1.0,-0.12195122242,2.80487799644,-0.365853667259,1.0,0.0,0.0,0.0,1.0,0.0,0.0,0.0,1.0,0.00957680664062,-0.507570751953,10.046070166,1.0,0.0,0.0,0.0,1.0,0.0,0.0,0.0,1.0
1480335208441378985,718,1480335208439538846,,4.11777687073,-3.32660031319,173.068481445,0.00114499998745,1.0,0.0,0.0,0.0,1.0,0.0,0.0,0.0,1.0,0.0,2.62195134163,0.0,1.0,0.0,0.0,0.0,1.0,0.0,0.0,0.0,1.0,0.0335188255255,-0.584185168546,10.2615483154,1.0,0.0,0.0,0.0,1.0,0.0,0.0,0.0,1.0
1480335208466985770,719,1480335208462395085,,4.12376880646,-3.32629919052,173.050613403,0.00130600004923,1.0,0.0,0.0,0.0,1.0,0.0,0.0,0.0,1.0,0.18292683363,2.07317066193,-0.487804889679,1.0,0.0,0.0,0.0,1.0,0.0,0.0,0.0,1.0,0.0,-0.574608398438,10.2759135254,1.0,0.0,0.0,0.0,1.0,0.0,0.0,0.0,1.0
1480335208485198147,720,1480335208481568807,,4.12110996246,-3.32557249069,173.036193848,0.00125400000252,1.0,0.0,0.0,0.0,1.0,0.0,0.0,0.0,1.0,0.0609756112099,1.8292683363,-0.12195122242,1.0,0.0,0.0,0.0,1.0,0.0,0.0,0.0,1.0,0.0574608398438,-0.550666381836,10.2328178955,1.0,0.0,0.0,0.0,1.0,0.0,0.0,0.0,1.0
1480335208505470816,721,1480335208502996465,,4.10999584198,-3.32452106476,173.020904541,0.00172499998007,1.0,0.0,0.0,0.0,1.0,0.0,0.0,0.0,1.0,0.12195122242,1.2195122242,-0.243902444839,1.0,0.0,0.0,0.0,1.0,0.0,0.0,0.0,1.0,0.0718260498047,-0.541089611728,10.2376062988,1.0,0.0,0.0,0.0,1.0,0.0,0.0,0.0,1.0
1480335208526071608,722,1480335208523669912,,4.08949422836,-3.32342267036,173.00730896,0.00566599983722,1.0,0.0,0.0,0.0,1.0,0.0,0.0,0.0,1.0,0.18292683363,1.15853655338,-0.0609756112099,1.0,0.0,0.0,0.0,1.0,0.0,0.0,0.0,1.0,0.124498486328,-0.588973571866,10.060435376,1.0,0.0,0.0,0.0,1.0,0.0,0.0,0.0,1.0
1480335208554402533,723,1480335208544853823,,4.06524610519,-3.31970930099,172.992401123,0.00122199999169,1.0,0.0,0.0,0.0,1.0,0.0,0.0,0.0,1.0,0.0,1.09756100178,-0.365853667259,1.0,0.0,0.0,0.0,1.0,0.0,0.0,0.0,1.0,0.172382519531,-0.536301208408,10.1753570557,1.0,0.0,0.0,0.0,1.0,0.0,0.0,0.0,1.0
1480335208569396399,724,1480335208566077629,,4.0396733284,-3.32070207596,172.97706604,0.00171400001273,1.0,0.0,0.0,0.0,1.0,0.0,0.0,0.0,1.0,-0.0609756112099,1.15853655338,0.0,1.0,0.0,0.0,0.0,1.0,0.0,0.0,0.0,1.0,0.0957680664062,-0.545877978516,10.2184526855,1.0,0.0,0.0,0.0,1.0,0.0,0.0,0.0,1.0
1480335208589576622,725,1480335208586164728,,4.01275682449,-3.32356953621,172.960739136,0.00110600003973,1.0,0.0,0.0,0.0,1.0,0.0,0.0,0.0,1.0,0.0609756112099,1.09756100178,-0.548780500889,1.0,0.0,0.0,0.0,1.0,0.0,0.0,0.0,1.0,0.0814028564453,-0.622492431641,10.2088758789,1.0,0.0,0.0,0.0,1.0,0.0,0.0,0.0,1.0
1480335208609837573,726,1480335208607464731,,3.98645973206,-3.32596373558,172.944198608,0.00104000000283,1.0,0.0,0.0,0.0,1.0,0.0,0.0,0.0,1.0,-0.0609756112099,1.15853655338,-0.12195122242,1.0,0.0,0.0,0.0,1.0,0.0,0.0,0.0,1.0,0.0383072265625,-0.651222851562,10.2902787354,1.0,0.0,0.0,0.0,1.0,0.0,0.0,0.0,1.0
1480335208631521375,727,1480335208629159783,,3.96341180801,-3.32738542557,172.933441162,0.00145199999679,1.0,0.0,0.0,0.0,1.0,0.0,0.0,0.0,1.0,-0.12195122242,1.09756100178,0.0,1.0,0.0,0.0,0.0,1.0,0.0,0.0,0.0,1.0,0.248996972656,-0.627280834961,10.1514150391,1.0,0.0,0.0,0.0,1.0,0.0,0.0,0.0,1.0
1480335208653039033,728,1480335208650113592,,3.93525099754,-3.33205509186,172.922103882,0.00127999996766,1.0,0.0,0.0,0.0,1.0,0.0,0.0,0.0,1.0,-0.0609756112099,1.15853655338,-0.0609756112099,1.0,0.0,0.0,0.0,1.0,0.0,0.0,0.0,1.0,0.215478149414,-0.545877978516,10.2328178955,1.0,0.0,0.0,0.0,1.0,0.0,0.0,0.0,1.0
1480335208673450868,729,1480335208671021308,,3.90524983406,-3.33271336555,172.911422729,0.00232099997811,1.0,0.0,0.0,0.0,1.0,0.0,0.0,0.0,1.0,0.12195122242,1.40243899822,-0.0609756112099,1.0,0.0,0.0,0.0,1.0,0.0,0.0,0.0,1.0,0.15322890625,-0.598550451572,10.2088758789,1.0,0.0,0.0,0.0,1.0,0.0,0.0,0.0,1.0
1480335208695152690,730,1480335208690981949,,3.88423848152,-3.33467006683,172.895339966,0.00109399994835,1.0,0.0,0.0,0.0,1.0,0.0,0.0,0.0,1.0,0.0609756112099,2.07317066193,-0.243902444839,1.0,0.0,0.0,0.0,1.0,0.0,0.0,0.0,1.0,0.316034619141,-0.636857641602,10.3668931885,1.0,0.0,0.0,0.0,1.0,0.0,0.0,0.0,1.0
1480335208715451922,731,1480335208712309608,,3.87042450905,-3.33648252487,172.878631592,0.0010529999854,1.0,0.0,0.0,0.0,1.0,0.0,0.0,0.0,1.0,-0.12195122242,2.74390244484,-0.243902444839,1.0,0.0,0.0,0.0,1.0,0.0,0.0,0.0,1.0,0.268150604204,-0.622492431641,10.2280294922,1.0,0.0,0.0,0.0,1.0,0.0,0.0,0.0,1.0
1480335208734693976,732,1480335208732733943,,3.87119793892,-3.34067058563,172.85836792,0.00115799997002,1.0,0.0,0.0,0.0,1.0,0.0,0.0,0.0,1.0,0.0609756112099,3.59756112099,-0.548780500889,1.0,0.0,0.0,0.0,1.0,0.0,0.0,0.0,1.0,0.301669427446,-0.622492431641,10.1945106689,1.0,0.0,0.0,0.0,1.0,0.0,0.0,0.0,1.0
1480335208757841618,733,1480335208753455567,,3.89614272118,-3.34128189087,172.836029053,0.00122199999169,1.0,0.0,0.0,0.0,1.0,0.0,0.0,0.0,1.0,-0.0609756112099,3.90243911743,-0.426829278469,1.0,0.0,0.0,0.0,1.0,0.0,0.0,0.0,1.0,0.167594116211,-0.603338854892,10.2184526855,1.0,0.0,0.0,0.0,1.0,0.0,0.0,0.0,1.0
1480335208776880446,734,1480335208775017391,,3.92989778519,-3.34530138969,172.811279297,0.00118699995801,1.0,0.0,0.0,0.0,1.0,0.0,0.0,0.0,1.0,0.243902444839,4.39024400711,-0.243902444839,1.0,0.0,0.0,0.0,1.0,0.0,0.0,0.0,1.0,0.100556469727,-0.507570751953,10.2423947021,1.0,0.0,0.0,0.0,1.0,0.0,0.0,0.0,1.0
1480335208798067534,735,1480335208795960262,,3.96855282784,-3.34643363953,172.789382935,0.00104400003329,1.0,0.0,0.0,0.0,1.0,0.0,0.0,0.0,1.0,0.18292683363,4.32926845551,-0.304878056049,1.0,0.0,0.0,0.0,1.0,0.0,0.0,0.0,1.0,0.148440512063,-0.622492431641,10.1514150391,1.0,0.0,0.0,0.0,1.0,0.0,0.0,0.0,1.0
1480335208821644703,736,1480335208818053071,,4.0113120079,-3.34422659874,172.766387939,0.00109799997881,1.0,0.0,0.0,0.0,1.0,0.0,0.0,0.0,1.0,0.243902444839,4.20731735229,-0.548780500889,1.0,0.0,0.0,0.0,1.0,0.0,0.0,0.0,1.0,0.119710083008,-0.598550451572,10.3094323486,1.0,0.0,0.0,0.0,1.0,0.0,0.0,0.0,1.0
1480335208853446949,737,1480335208840761550,,4.06023025513,-3.34159183502,172.741195679,0.00340900011361,1.0,0.0,0.0,0.0,1.0,0.0,0.0,0.0,1.0,0.18292683363,3.59756112099,-0.243902444839,1.0,0.0,0.0,0.0,1.0,0.0,0.0,0.0,1.0,0.0239420166016,-0.550666381836,10.2807019287,1.0,0.0,0.0,0.0,1.0,0.0,0.0,0.0,1.0
1480335208865708394,738,1480335208861967753,,4.09459114075,-3.3446624279,172.720352173,0.00503899995238,1.0,0.0,0.0,0.0,1.0,0.0,0.0,0.0,1.0,-0.12195122242,3.23170733452,-0.0609756112099,1.0,0.0,0.0,0.0,1.0,0.0,0.0,0.0,1.0,-0.0383072265625,-0.569819995117,10.2376062988,1.0,0.0,0.0,0.0,1.0,0.0,0.0,0.0,1.0
1480335208886080854,739,1480335208883797543,,4.11762332916,-3.34163880348,172.700363159,0.00178399996366,1.0,0.0,0.0,0.0,1.0,0.0,0.0,0.0,1.0,0.0,2.07317066193,-0.426829278469,1.0,0.0,0.0,0.0,1.0,0.0,0.0,0.0,1.0,-0.0383072265625,-0.593762048251,10.1992990723,1.0,0.0,0.0,0.0,1.0,0.0,0.0,0.0,1.0
1480335208905986444,740,1480335208904334897,,4.12146902084,-3.34483766556,172.68409729,0.00187200005166,1.0,0.0,0.0,0.0,1.0,0.0,0.0,0.0,1.0,-0.0609756112099,1.8902438879,0.18292683363,1.0,0.0,0.0,0.0,1.0,0.0,0.0,0.0,1.0,0.0287304199219,-0.560243188477,10.2519715088,1.0,0.0,0.0,0.0,1.0,0.0,0.0,0.0,1.0
1480335208934468149,741,1480335208928370812,,4.11031866074,-3.34288215637,172.671203613,0.00188200001139,1.0,0.0,0.0,0.0,1.0,0.0,0.0,0.0,1.0,-0.12195122242,1.15853655338,0.0609756112099,1.0,0.0,0.0,0.0,1.0,0.0,0.0,0.0,1.0,0.0287304199219,-0.545877978516,10.1753570557,1.0,0.0,0.0,0.0,1.0,0.0,0.0,0.0,1.0
1480335208949099311,742,1480335208946105225,,4.0801525116,-3.33835172653,172.656494141,0.00100699998438,1.0,0.0,0.0,0.0,1.0,0.0,0.0,0.0,1.0,0.12195122242,0.792682945728,-0.0609756112099,1.0,0.0,0.0,0.0,1.0,0.0,0.0,0.0,1.0,0.110133276367,-0.536301208408,10.2184526855,1.0,0.0,0.0,0.0,1.0,0.0,0.0,0.0,1.0
1480335208970097025,743,1480335208967288511,,4.04405736923,-3.33992028236,172.64225769,0.00097499997355,1.0,0.0,0.0,0.0,1.0,0.0,0.0,0.0,1.0,-0.12195122242,0.792682945728,0.0609756112099,1.0,0.0,0.0,0.0,1.0,0.0,0.0,0.0,1.0,0.0861912597656,-0.550666381836,10.2136642822,1.0,0.0,0.0,0.0,1.0,0.0,0.0,0.0,1.0
1480335208992006242,744,1480335208989365330,,4.00875091553,-3.34351563454,172.627883911,0.00190200004727,1.0,0.0,0.0,0.0,1.0,0.0,0.0,0.0,1.0,0.0609756112099,1.15853655338,0.0,1.0,0.0,0.0,0.0,1.0,0.0,0.0,0.0,1.0,0.167594116211,-0.632069238281,10.2280294922,1.0,0.0,0.0,0.0,1.0,0.0,0.0,0.0,1.0
1480335209013218746,745,1480335209010075443,,3.97581195831,-3.34938120842,172.613327026,0.00100199994631,1.0,0.0,0.0,0.0,1.0,0.0,0.0,0.0,1.0,-0.12195122242,1.8292683363,-0.12195122242,1.0,0.0,0.0,0.0,1.0,0.0,0.0,0.0,1.0,0.229843359375,-0.588973571866,10.0939541992,1.0,0.0,0.0,0.0,1.0,0.0,0.0,0.0,1.0
1480335209033812558,746,1480335209030689724,,3.95581007004,-3.34551477432,172.597305298,0.000981000019237,1.0,0.0,0.0,0.0,1.0,0.0,0.0,0.0,1.0,-0.0609756112099,2.25609779358,-0.365853667259,1.0,0.0,0.0,0.0,1.0,0.0,0.0,0.0,1.0,0.320823022461,-0.584185168546,10.2759135254,1.0,0.0,0.0,0.0,1.0,0.0,0.0,0.0,1.0
1480335209054399496,747,1480335209051492128,,3.94642615318,-3.34431242943,172.579315186,0.00097499997355,1.0,0.0,0.0,0.0,1.0,0.0,0.0,0.0,1.0,0.243902444839,2.80487799644,-0.304878056049,1.0,0.0,0.0,0.0,1.0,0.0,0.0,0.0,1.0,0.268150604204,-0.493205541992,10.4004120117,1.0,0.0,0.0,0.0,1.0,0.0,0.0,0.0,1.0
1480335209078050779,748,1480335209072853537,,3.95483994484,-3.34690260887,172.556625366,0.000982000026852,1.0,0.0,0.0,0.0,1.0,0.0,0.0,0.0,1.0,0.304878056049,3.29268312454,-0.426829278469,1.0,0.0,0.0,0.0,1.0,0.0,0.0,0.0,1.0,0.282515795898,-0.76614453125,10.180145459,1.0,0.0,0.0,0.0,1.0,0.0,0.0,0.0,1.0
1480335209098680268,749,1480335209093504328,,3.97577381134,-3.3471660614,172.536209106,0.000976999988779,1.0,0.0,0.0,0.0,1.0,0.0,0.0,0.0,1.0,-0.18292683363,4.08536577225,-0.487804889679,1.0,0.0,0.0,0.0,1.0,0.0,0.0,0.0,1.0,0.191536132812,-0.694318481445,10.0221281494,1.0,0.0,0.0,0.0,1.0,0.0,0.0,0.0,1.0
1480335209119518505,750,1480335209114301524,,4.00198984146,-3.34827542305,172.511550903,0.000972000008915,1.0,0.0,0.0,0.0,1.0,0.0,0.0,0.0,1.0,-0.0609756112099,4.14634132385,-0.304878056049,1.0,0.0,0.0,0.0,1.0,0.0,0.0,0.0,1.0,0.215478149414,-0.612915625,10.2567599121,1.0,0.0,0.0,0.0,1.0,0.0,0.0,0.0,1.0
1480335209139950340,751,1480335209134918930,,4.03777503967,-3.34942913055,172.492767334,0.00359999993816,1.0,0.0,0.0,0.0,1.0,0.0,0.0,0.0,1.0,0.0,4.63414621353,0.243902444839,1.0,0.0,0.0,0.0,1.0,0.0,0.0,0.0,1.0,0.220266552734,-0.488417138672,10.4387192383,1.0,0.0,0.0,0.0,1.0,0.0,0.0,0.0,1.0
1480335209159094895,752,1480335209155536127,,4.08554363251,-3.34211707115,172.467422485,0.00107899995055,1.0,0.0,0.0,0.0,1.0,0.0,0.0,0.0,1.0,-0.304878056049,4.57317066193,-1.03658533096,1.0,0.0,0.0,0.0,1.0,0.0,0.0,0.0,1.0,0.210689746094,-0.555454785156,10.3573163818,1.0,0.0,0.0,0.0,1.0,0.0,0.0,0.0,1.0
1480335209180432242,753,1480335209176022597,,4.13344764709,-3.34523820877,172.435760498,0.00109499995597,1.0,0.0,0.0,0.0,1.0,0.0,0.0,0.0,1.0,0.0609756112099,4.51219558716,-0.304878056049,1.0,0.0,0.0,0.0,1.0,0.0,0.0,0.0,1.0,0.00478840332031,-0.526724328702,10.2376062988,1.0,0.0,0.0,0.0,1.0,0.0,0.0,0.0,1.0
1480335209200879181,754,1480335209197227758,,4.19126176834,-3.34402918816,172.42149353,0.00101300003007,1.0,0.0,0.0,0.0,1.0,0.0,0.0,0.0,1.0,-0.12195122242,5.0,0.0609756112099,1.0,0.0,0.0,0.0,1.0,0.0,0.0,0.0,1.0,-0.0143652099609,-0.612915625,10.1035310059,1.0,0.0,0.0,0.0,1.0,0.0,0.0,0.0,1.0
1480335209225026761,755,1480335209221326641,,4.24337148666,-3.34280443192,172.399963379,0.00298999994993,1.0,0.0,0.0,0.0,1.0,0.0,0.0,0.0,1.0,0.304878056049,4.2682929039,-0.670731723309,1.0,0.0,0.0,0.0,1.0,0.0,0.0,0.0,1.0,0.0718260498047,-0.646434448242,10.299855542,1.0,0.0,0.0,0.0,1.0,0.0,0.0,0.0,1.0
1480335209244641000,756,1480335209241237022,,4.28341627121,-3.34566473961,172.372268677,0.00177600001916,1.0,0.0,0.0,0.0,1.0,0.0,0.0,0.0,1.0,0.18292683363,4.08536577225,0.0,1.0,0.0,0.0,0.0,1.0,0.0,0.0,0.0,1.0,0.0478840332031,-0.61770402832,10.3285859619,1.0,0.0,0.0,0.0,1.0,0.0,0.0,0.0,1.0
1480335209265039397,757,1480335209261258079,,4.32094430923,-3.34437942505,172.35824585,0.00269400002435,1.0,0.0,0.0,0.0,1.0,0.0,0.0,0.0,1.0,-0.12195122242,4.02439022064,-0.18292683363,1.0,0.0,0.0,0.0,1.0,0.0,0.0,0.0,1.0,0.124498486328,-0.660799658203,10.2376062988,1.0,0.0,0.0,0.0,1.0,0.0,0.0,0.0,1.0
1480335209288615889,758,1480335209284498377,,4.35695552826,-3.34742450714,172.334381104,0.00430800020695,1.0,0.0,0.0,0.0,1.0,0.0,0.0,0.0,1.0,0.18292683363,2.98780488968,-0.548780500889,1.0,0.0,0.0,0.0,1.0,0.0,0.0,0.0,1.0,-0.0335188255255,-0.61770402832,10.1322614258,1.0,0.0,0.0,0.0,1.0,0.0,0.0,0.0,1.0
1480335209307554145,759,1480335209305155314,,4.37917852402,-3.3469722271,172.31401062,0.00104000000283,1.0,0.0,0.0,0.0,1.0,0.0,0.0,0.0,1.0,0.12195122242,2.74390244484,-0.365853667259,1.0,0.0,0.0,0.0,1.0,0.0,0.0,0.0,1.0,-0.129286889648,-0.651222851562,10.180145459,1.0,0.0,0.0,0.0,1.0,0.0,0.0,0.0,1.0
1480335209329440809,760,1480335209326491202,,4.39099550247,-3.34204149246,172.2996521,0.00197100010701,1.0,0.0,0.0,0.0,1.0,0.0,0.0,0.0,1.0,-0.0609756112099,1.8902438879,-0.365853667259,1.0,0.0,0.0,0.0,1.0,0.0,0.0,0.0,1.0,-0.0526724365234,-0.574608398438,10.3190091553,1.0,0.0,0.0,0.0,1.0,0.0,0.0,0.0,1.0
1480335209352906209,761,1480335209346644238,,4.38836097717,-3.34469556808,172.282592773,0.00148099998478,1.0,0.0,0.0,0.0,1.0,0.0,0.0,0.0,1.0,0.0609756112099,1.52439022064,-0.365853667259,1.0,0.0,0.0,0.0,1.0,0.0,0.0,0.0,1.0,0.0430956298828,-0.574608398438,10.2759135254,1.0,0.0,0.0,0.0,1.0,0.0,0.0,0.0,1.0
1480335209372451333,762,1480335209368101635,,4.36830663681,-3.33654546738,172.265960693,0.00109200004954,1.0,0.0,0.0,0.0,1.0,0.0,0.0,0.0,1.0,-0.18292683363,0.853658556938,-0.365853667259,1.0,0.0,0.0,0.0,1.0,0.0,0.0,0.0,1.0,-0.0191536132812,-0.550666381836,10.314220752,1.0,0.0,0.0,0.0,1.0,0.0,0.0,0.0,1.0
1480335209392172185,763,1480335209388941747,,4.33993768692,-3.33962750435,172.252746582,0.00117399997544,1.0,0.0,0.0,0.0,1.0,0.0,0.0,0.0,1.0,0.0609756112099,0.243902444839,-0.609756112099,1.0,0.0,0.0,0.0,1.0,0.0,0.0,0.0,1.0,-0.00478840332031,-0.584185168546,10.2088758789,1.0,0.0,0.0,0.0,1.0,0.0,0.0,0.0,1.0
1480335209413036568,764,1480335209409483321,,4.29614019394,-3.34127211571,172.233963013,0.00114599999506,1.0,0.0,0.0,0.0,1.0,0.0,0.0,0.0,1.0,-0.18292683363,-0.792682945728,-0.365853667259,1.0,0.0,0.0,0.0,1.0,0.0,0.0,0.0,1.0,-0.0814028564453,-0.622492431641,10.1992990723,1.0,0.0,0.0,0.0,1.0,0.0,0.0,0.0,1.0
1480335209433867878,765,1480335209430524993,,4.23640108109,-3.34131503105,172.223632812,0.00114299997222,1.0,0.0,0.0,0.0,1.0,0.0,0.0,0.0,1.0,-0.12195122242,-1.34146344662,0.0609756112099,1.0,0.0,0.0,0.0,1.0,0.0,0.0,0.0,1.0,-0.220266552734,-0.478840332031,10.2280294922,1.0,0.0,0.0,0.0,1.0,0.0,0.0,0.0,1.0
1480335209454534502,766,1480335209451532239,,4.15389728546,-3.34173583984,172.223602295,0.00175900000613,1.0,0.0,0.0,0.0,1.0,0.0,0.0,0.0,1.0,0.243902444839,-0.975609779358,0.609756112099,1.0,0.0,0.0,0.0,1.0,0.0,0.0,0.0,1.0,0.229843359375,-0.435744702148,10.0891657959,1.0,0.0,0.0,0.0,1.0,0.0,0.0,0.0,1.0
1480335209476324397,767,1480335209472850159,,4.0717253685,-3.34515833855,172.222091675,0.00103199994192,1.0,0.0,0.0,0.0,1.0,0.0,0.0,0.0,1.0,-0.0609756112099,-0.304878056049,0.304878056049,1.0,0.0,0.0,0.0,1.0,0.0,0.0,0.0,1.0,0.253785375977,-0.531512805087,10.2328178955,1.0,0.0,0.0,0.0,1.0,0.0,0.0,0.0,1.0
1480335209497442892,768,1480335209493792250,,3.99460244179,-3.33967757225,172.218414307,0.000996000017039,1.0,0.0,0.0,0.0,1.0,0.0,0.0,0.0,1.0,-0.304878056049,0.12195122242,-0.12195122242,1.0,0.0,0.0,0.0,1.0,0.0,0.0,0.0,1.0,0.354341845703,-0.488417138672,10.2232410889,1.0,0.0,0.0,0.0,1.0,0.0,0.0,0.0,1.0
1480335209522465307,769,1480335209519875905,,3.93260383606,-3.34554362297,172.199295044,0.00589400017634,1.0,0.0,0.0,0.0,1.0,0.0,0.0,0.0,1.0,0.0,1.34146344662,-0.304878056049,1.0,0.0,0.0,0.0,1.0,0.0,0.0,0.0,1.0,0.344765039063,-0.665588061523,10.2184526855,1.0,0.0,0.0,0.0,1.0,0.0,0.0,0.0,1.0
1480335209543209222,770,1480335209539665558,,3.90828680992,-3.34866547585,172.187591553,0.00342600001022,1.0,0.0,0.0,0.0,1.0,0.0,0.0,0.0,1.0,0.12195122242,2.62195134163,0.18292683363,1.0,0.0,0.0,0.0,1.0,0.0,0.0,0.0,1.0,0.339976635742,-0.555454785156,10.405200415,1.0,0.0,0.0,0.0,1.0,0.0,0.0,0.0,1.0
1480335209567819038,771,1480335209561614618,,3.91131663322,-3.34881019592,172.170532227,0.00154500000644,1.0,0.0,0.0,0.0,1.0,0.0,0.0,0.0,1.0,0.18292683363,4.14634132385,-0.670731723309,1.0,0.0,0.0,0.0,1.0,0.0,0.0,0.0,1.0,0.301669427446,-0.636857641602,10.3190091553,1.0,0.0,0.0,0.0,1.0,0.0,0.0,0.0,1.0
1480335209589104614,772,1480335209585211110,,3.93824291229,-3.34618878365,172.148300171,0.00202900008298,1.0,0.0,0.0,0.0,1.0,0.0,0.0,0.0,1.0,0.18292683363,4.81707286835,-0.12195122242,1.0,0.0,0.0,0.0,1.0,0.0,0.0,0.0,1.0,0.253785375977,-0.521935925381,10.2711251221,1.0,0.0,0.0,0.0,1.0,0.0,0.0,0.0,1.0
1480335209606946318,773,1480335209603889472,,3.98711919785,-3.34674119949,172.127212524,0.00129899999592,1.0,0.0,0.0,0.0,1.0,0.0,0.0,0.0,1.0,0.12195122242,5.06097555161,-0.426829278469,1.0,0.0,0.0,0.0,1.0,0.0,0.0,0.0,1.0,0.191536132812,-0.603338854892,10.2807019287,1.0,0.0,0.0,0.0,1.0,0.0,0.0,0.0,1.0
1480335209630065418,774,1480335209625508066,,4.04270172119,-3.34568095207,172.101165771,0.00122500001453,1.0,0.0,0.0,0.0,1.0,0.0,0.0,0.0,1.0,0.0609756112099,5.18292713165,-0.609756112099,1.0,0.0,0.0,0.0,1.0,0.0,0.0,0.0,1.0,0.0814028564453,-0.502782348633,10.1418382324,1.0,0.0,0.0,0.0,1.0,0.0,0.0,0.0,1.0
1480335209650663293,775,1480335209646072244,,4.10733222961,-3.33708262444,172.072799683,0.00114800001029,1.0,0.0,0.0,0.0,1.0,0.0,0.0,0.0,1.0,0.18292683363,4.45121955872,-0.548780500889,1.0,0.0,0.0,0.0,1.0,0.0,0.0,0.0,1.0,-0.0239420166016,-0.579396801758,10.1897222656,1.0,0.0,0.0,0.0,1.0,0.0,0.0,0.0,1.0
1480335209671509551,776,1480335209667109906,,4.15873241425,-3.34188079834,172.051116943,0.00122600002214,1.0,0.0,0.0,0.0,1.0,0.0,0.0,0.0,1.0,0.243902444839,4.14634132385,-0.243902444839,1.0,0.0,0.0,0.0,1.0,0.0,0.0,0.0,1.0,-0.0239420166016,-0.665588061523,10.180145459,1.0,0.0,0.0,0.0,1.0,0.0,0.0,0.0,1.0
1480335209691247955,777,1480335209688068663,,4.20310544968,-3.3399374485,172.031112671,0.001200000057,1.0,0.0,0.0,0.0,1.0,0.0,0.0,0.0,1.0,0.304878056049,2.92682933807,-0.426829278469,1.0,0.0,0.0,0.0,1.0,0.0,0.0,0.0,1.0,-0.129286889648,-0.497993945312,10.3094323486,1.0,0.0,0.0,0.0,1.0,0.0,0.0,0.0,1.0
1480335209711613228,778,1480335209708966170,,4.21921205521,-3.34122729301,172.011932373,0.00138100003824,1.0,0.0,0.0,0.0,1.0,0.0,0.0,0.0,1.0,-0.12195122242,2.37804889679,-0.304878056049,1.0,0.0,0.0,0.0,1.0,0.0,0.0,0.0,1.0,0.0191536132812,-0.660799658203,10.1897222656,1.0,0.0,0.0,0.0,1.0,0.0,0.0,0.0,1.0
1480335209732591151,779,1480335209729335505,,4.22534275055,-3.3412091732,171.996963501,0.000996000017039,1.0,0.0,0.0,0.0,1.0,0.0,0.0,0.0,1.0,-0.243902444839,1.40243899822,0.243902444839,1.0,0.0,0.0,0.0,1.0,0.0,0.0,0.0,1.0,0.00957680664062,-0.545877978516,10.180145459,1.0,0.0,0.0,0.0,1.0,0.0,0.0,0.0,1.0
1480335209753162151,780,1480335209750823111,,4.20775747299,-3.33985280991,171.980209351,0.00098600005731,1.0,0.0,0.0,0.0,1.0,0.0,0.0,0.0,1.0,-0.18292683363,0.792682945728,-0.487804889679,1.0,0.0,0.0,0.0,1.0,0.0,0.0,0.0,1.0,0.00957680664062,-0.569819995117,10.285490332,1.0,0.0,0.0,0.0,1.0,0.0,0.0,0.0,1.0
1480335209773346749,781,1480335209771129062,,4.17653083801,-3.34251189232,171.965042114,0.00096700002905,1.0,0.0,0.0,0.0,1.0,0.0,0.0,0.0,1.0,-0.0609756112099,0.365853667259,-0.0609756112099,1.0,0.0,0.0,0.0,1.0,0.0,0.0,0.0,1.0,0.0909796630859,-0.536301208408,10.2950671387,1.0,0.0,0.0,0.0,1.0,0.0,0.0,0.0,1.0
1480335209795425495,782,1480335209792223234,,4.13767147064,-3.34327840805,171.959182739,0.000997000024654,1.0,0.0,0.0,0.0,1.0,0.0,0.0,0.0,1.0,0.12195122242,0.731707334518,0.0609756112099,1.0,0.0,0.0,0.0,1.0,0.0,0.0,0.0,1.0,0.0909796630859,-0.627280834961,10.2328178955,1.0,0.0,0.0,0.0,1.0,0.0,0.0,0.0,1.0
1480335209823853346,783,1480335209813361833,,4.09281206131,-3.34353017807,171.947860718,0.000960999983363,1.0,0.0,0.0,0.0,1.0,0.0,0.0,0.0,1.0,-0.18292683363,0.853658556938,-0.0609756112099,1.0,0.0,0.0,0.0,1.0,0.0,0.0,0.0,1.0,0.201112939453,-0.61770402832,10.1705686523,1.0,0.0,0.0,0.0,1.0,0.0,0.0,0.0,1.0
1480335209839382103,784,1480335209834523817,,4.05391311646,-3.3394742012,171.932342529,0.000975999981165,1.0,0.0,0.0,0.0,1.0,0.0,0.0,0.0,1.0,0.0,1.76829278469,-0.18292683363,1.0,0.0,0.0,0.0,1.0,0.0,0.0,0.0,1.0,0.282515795898,-0.507570751953,10.3094323486,1.0,0.0,0.0,0.0,1.0,0.0,0.0,0.0,1.0
1480335209866259918,785,1480335209855304554,,4.03903675079,-3.3390891552,171.917480469,0.00104700005613,1.0,0.0,0.0,0.0,1.0,0.0,0.0,0.0,1.0,0.243902444839,2.68292689323,-0.18292683363,1.0,0.0,0.0,0.0,1.0,0.0,0.0,0.0,1.0,0.387860668945,-0.651222851562,10.419565625,1.0,0.0,0.0,0.0,1.0,0.0,0.0,0.0,1.0
1480335209881133473,786,1480335209877390175,,4.03863048553,-3.34195947647,171.899490356,0.000989999971353,1.0,0.0,0.0,0.0,1.0,0.0,0.0,0.0,1.0,-0.18292683363,3.17073178291,-0.365853667259,1.0,0.0,0.0,0.0,1.0,0.0,0.0,0.0,1.0,0.067037651051,-0.603338854892,10.2136642822,1.0,0.0,0.0,0.0,1.0,0.0,0.0,0.0,1.0
1480335209904985066,787,1480335209902043011,,4.049264431,-3.33613657951,171.87928772,0.00110600003973,1.0,0.0,0.0,0.0,1.0,0.0,0.0,0.0,1.0,0.0609756112099,3.65853667259,-0.548780500889,1.0,0.0,0.0,0.0,1.0,0.0,0.0,0.0,1.0,0.229843359375,-0.550666381836,10.299855542,1.0,0.0,0.0,0.0,1.0,0.0,0.0,0.0,1.0
1480335209927003500,788,1480335209921646573,,4.07268571854,-3.33722901344,171.854156494,0.00252699991688,1.0,0.0,0.0,0.0,1.0,0.0,0.0,0.0,1.0,0.0609756112099,3.59756112099,-0.304878056049,1.0,0.0,0.0,0.0,1.0,0.0,0.0,0.0,1.0,0.0814028564453,-0.646434448242,10.3333743652,1.0,0.0,0.0,0.0,1.0,0.0,0.0,0.0,1.0
1480335209943755527,789,1480335209939699889,,4.10094070435,-3.33413434029,171.83442688,0.00126199994702,1.0,0.0,0.0,0.0,1.0,0.0,0.0,0.0,1.0,0.18292683363,3.71951246262,-0.548780500889,1.0,0.0,0.0,0.0,1.0,0.0,0.0,0.0,1.0,0.0191536132812,-0.550666381836,10.2328178955,1.0,0.0,0.0,0.0,1.0,0.0,0.0,0.0,1.0
1480335209965415943,790,1480335209960672708,,4.12970304489,-3.33060836792,171.808242798,0.00124000001233,1.0,0.0,0.0,0.0,1.0,0.0,0.0,0.0,1.0,0.0,2.98780488968,-0.487804889679,1.0,0.0,0.0,0.0,1.0,0.0,0.0,0.0,1.0,0.15801730957,-0.497993945312,10.2232410889,1.0,0.0,0.0,0.0,1.0,0.0,0.0,0.0,1.0
1480335209985179451,791,1480335209981798442,,4.15374326706,-3.33163833618,171.786056519,0.00150599994231,1.0,0.0,0.0,0.0,1.0,0.0,0.0,0.0,1.0,0.304878056049,2.74390244484,-0.609756112099,1.0,0.0,0.0,0.0,1.0,0.0,0.0,0.0,1.0,-0.076614453125,-0.60812722168,10.2136642822,1.0,0.0,0.0,0.0,1.0,0.0,0.0,0.0,1.0
1480335210006036490,792,1480335210003055738,,4.17029190063,-3.3301024437,171.771911621,0.00155000004452,1.0,0.0,0.0,0.0,1.0,0.0,0.0,0.0,1.0,0.243902444839,1.8902438879,0.18292683363,1.0,0.0,0.0,0.0,1.0,0.0,0.0,0.0,1.0,-0.00478840332031,-0.541089611728,10.1945106689,1.0,0.0,0.0,0.0,1.0,0.0,0.0,0.0,1.0
1480335210027325869,793,1480335210023569290,,4.17130470276,-3.32938742638,171.753128052,0.00126000004821,1.0,0.0,0.0,0.0,1.0,0.0,0.0,0.0,1.0,0.0,1.58536589146,-0.18292683363,1.0,0.0,0.0,0.0,1.0,0.0,0.0,0.0,1.0,-0.0478840332031,-0.536301208408,10.1562034424,1.0,0.0,0.0,0.0,1.0,0.0,0.0,0.0,1.0
1480335210048462332,794,1480335210044413309,,4.14947080612,-3.32634615898,171.742782593,0.00149900000542,1.0,0.0,0.0,0.0,1.0,0.0,0.0,0.0,1.0,-0.243902444839,1.2195122242,0.12195122242,1.0,0.0,0.0,0.0,1.0,0.0,0.0,0.0,1.0,0.0287304199219,-0.598550451572,10.1514150391,1.0,0.0,0.0,0.0,1.0,0.0,0.0,0.0,1.0
1480335210069038436,795,1480335210065708833,,4.11825942993,-3.3259677887,171.73097229,0.0014309999533,1.0,0.0,0.0,0.0,1.0,0.0,0.0,0.0,1.0,-0.365853667259,0.609756112099,-0.0609756112099,1.0,0.0,0.0,0.0,1.0,0.0,0.0,0.0,1.0,0.210689746094,-0.512359155273,10.2040874756,1.0,0.0,0.0,0.0,1.0,0.0,0.0,0.0,1.0
1480335210093445129,796,1480335210086512383,,4.07998418808,-3.32354474068,171.718612671,0.00101200002246,1.0,0.0,0.0,0.0,1.0,0.0,0.0,0.0,1.0,-0.12195122242,1.2804877758,0.0,1.0,0.0,0.0,0.0,1.0,0.0,0.0,0.0,1.0,0.229843359375,-0.598550451572,10.2950671387,1.0,0.0,0.0,0.0,1.0,0.0,0.0,0.0,1.0
1480335210112195105,797,1480335210107895719,,4.05937099457,-3.32265138626,171.707336426,0.000966000021435,1.0,0.0,0.0,0.0,1.0,0.0,0.0,0.0,1.0,-0.0609756112099,1.8292683363,-0.0609756112099,1.0,0.0,0.0,0.0,1.0,0.0,0.0,0.0,1.0,0.0957680664062,-0.555454785156,10.2328178955,1.0,0.0,0.0,0.0,1.0,0.0,0.0,0.0,1.0
1480335210132509597,798,1480335210128951142,,4.0427570343,-3.32082390785,171.687927246,0.00137700000778,1.0,0.0,0.0,0.0,1.0,0.0,0.0,0.0,1.0,0.0609756112099,2.07317066193,-0.609756112099,1.0,0.0,0.0,0.0,1.0,0.0,0.0,0.0,1.0,0.196324536133,-0.550666381836,10.2519715088,1.0,0.0,0.0,0.0,1.0,0.0,0.0,0.0,1.0
1480335210152107481,799,1480335210149518131,,4.03543281555,-3.32264328003,171.669570923,0.00102500000503,1.0,0.0,0.0,0.0,1.0,0.0,0.0,0.0,1.0,0.0609756112099,2.56097555161,-0.243902444839,1.0,0.0,0.0,0.0,1.0,0.0,0.0,0.0,1.0,0.148440512063,-0.560243188477,10.285490332,1.0,0.0,0.0,0.0,1.0,0.0,0.0,0.0,1.0
1480335210174471746,800,1480335210170248349,,4.03555059433,-3.32123041153,171.653121948,0.00104700005613,1.0,0.0,0.0,0.0,1.0,0.0,0.0,0.0,1.0,0.0,2.92682933807,-0.0609756112099,1.0,0.0,0.0,0.0,1.0,0.0,0.0,0.0,1.0,0.181959326172,-0.560243188477,10.2711251221,1.0,0.0,0.0,0.0,1.0,0.0,0.0,0.0,1.0
1480335210193778331,801,1480335210190743099,,4.05274057388,-3.32090902328,171.644088745,0.000966000021435,1.0,0.0,0.0,0.0,1.0,0.0,0.0,0.0,1.0,-0.0609756112099,4.08536577225,0.243902444839,1.0,0.0,0.0,0.0,1.0,0.0,0.0,0.0,1.0,0.124498486328,-0.497993945312,10.2280294922,1.0,0.0,0.0,0.0,1.0,0.0,0.0,0.0,1.0
1480335210214886149,802,1480335210211892115,,4.07850122452,-3.31959724426,171.628570557,0.000973000016529,1.0,0.0,0.0,0.0,1.0,0.0,0.0,0.0,1.0,0.0,2.74390244484,-0.975609779358,1.0,0.0,0.0,0.0,1.0,0.0,0.0,0.0,1.0,0.0191536132812,-0.660799658203,10.1897222656,1.0,0.0,0.0,0.0,1.0,0.0,0.0,0.0,1.0
1480335210235581106,803,1480335210233043734,,4.08498239517,-3.31964468956,171.60345459,0.000964000006206,1.0,0.0,0.0,0.0,1.0,0.0,0.0,0.0,1.0,0.12195122242,2.74390244484,-0.243902444839,1.0,0.0,0.0,0.0,1.0,0.0,0.0,0.0,1.0,0.0861912597656,-0.545877978516,10.2567599121,1.0,0.0,0.0,0.0,1.0,0.0,0.0,0.0,1.0
1480335210257130482,804,1480335210254312853,,4.10034418106,-3.31666660309,171.591796875,0.00122700002976,1.0,0.0,0.0,0.0,1.0,0.0,0.0,0.0,1.0,0.0,2.56097555161,-0.0609756112099,1.0,0.0,0.0,0.0,1.0,0.0,0.0,0.0,1.0,0.00957680664062,-0.550666381836,10.0939541992,1.0,0.0,0.0,0.0,1.0,0.0,0.0,0.0,1.0
1480335210278027677,805,1480335210274902967,,4.09924173355,-3.32057380676,171.573944092,0.00096700002905,1.0,0.0,0.0,0.0,1.0,0.0,0.0,0.0,1.0,0.0,1.70731711388,-0.426829278469,1.0,0.0,0.0,0.0,1.0,0.0,0.0,0.0,1.0,-0.00957680664062,-0.612915625,10.2376062988,1.0,0.0,0.0,0.0,1.0,0.0,0.0,0.0,1.0
1480335210299310545,806,1480335210295340167,,4.08749675751,-3.32086062431,171.561828613,0.000960999983363,1.0,0.0,0.0,0.0,1.0,0.0,0.0,0.0,1.0,0.12195122242,1.40243899822,0.243902444839,1.0,0.0,0.0,0.0,1.0,0.0,0.0,0.0,1.0,0.210689746094,-0.646434448242,10.3668931885,1.0,0.0,0.0,0.0,1.0,0.0,0.0,0.0,1.0
1480335210319982898,807,1480335210317034750,,4.07400989532,-3.32026648521,171.554092407,0.00110200000927,1.0,0.0,0.0,0.0,1.0,0.0,0.0,0.0,1.0,-0.243902444839,0.975609779358,-0.18292683363,1.0,0.0,0.0,0.0,1.0,0.0,0.0,0.0,1.0,0.134075302102,-0.699106884766,10.1418382324,1.0,0.0,0.0,0.0,1.0,0.0,0.0,0.0,1.0
1480335210341105976,808,1480335210337647780,,4.04654693604,-3.31898593903,171.53868103,0.00102900003549,1.0,0.0,0.0,0.0,1.0,0.0,0.0,0.0,1.0,0.0,1.34146344662,-0.18292683363,1.0,0.0,0.0,0.0,1.0,0.0,0.0,0.0,1.0,0.0957680664062,-0.675164868164,10.0748005859,1.0,0.0,0.0,0.0,1.0,0.0,0.0,0.0,1.0
1480335210362887850,809,1480335210358511538,,4.02107810974,-3.31791615486,171.531188965,0.00118400005158,1.0,0.0,0.0,0.0,1.0,0.0,0.0,0.0,1.0,0.12195122242,1.64634156227,0.18292683363,1.0,0.0,0.0,0.0,1.0,0.0,0.0,0.0,1.0,0.138863696289,-0.60812722168,10.314220752,1.0,0.0,0.0,0.0,1.0,0.0,0.0,0.0,1.0
1480335210383101927,810,1480335210379827687,,4.00207567215,-3.31695771217,171.524230957,0.0010890000267,1.0,0.0,0.0,0.0,1.0,0.0,0.0,0.0,1.0,-0.12195122242,1.34146344662,0.18292683363,1.0,0.0,0.0,0.0,1.0,0.0,0.0,0.0,1.0,0.119710083008,-0.555454785156,10.2615483154,1.0,0.0,0.0,0.0,1.0,0.0,0.0,0.0,1.0
1480335210403542251,811,1480335210400894776,,3.96965241432,-3.31578636169,171.508010864,0.00155199994333,1.0,0.0,0.0,0.0,1.0,0.0,0.0,0.0,1.0,-0.0609756112099,1.2804877758,-0.304878056049,1.0,0.0,0.0,0.0,1.0,0.0,0.0,0.0,1.0,0.205901342773,-0.569819995117,10.1753570557,1.0,0.0,0.0,0.0,1.0,0.0,0.0,0.0,1.0
1480335210426066514,812,1480335210422335612,,3.94632458687,-3.31482315063,171.492019653,0.00136899994686,1.0,0.0,0.0,0.0,1.0,0.0,0.0,0.0,1.0,-0.0609756112099,2.07317066193,-0.12195122242,1.0,0.0,0.0,0.0,1.0,0.0,0.0,0.0,1.0,0.119710083008,-0.593762048251,10.2519715088,1.0,0.0,0.0,0.0,1.0,0.0,0.0,0.0,1.0
1480335210448022240,813,1480335210443203692,,3.93195843697,-3.31633448601,171.477416992,0.00124100001995,1.0,0.0,0.0,0.0,1.0,0.0,0.0,0.0,1.0,0.0,2.13414645195,-0.426829278469,1.0,0.0,0.0,0.0,1.0,0.0,0.0,0.0,1.0,0.15801730957,-0.612915625,10.2136642822,1.0,0.0,0.0,0.0,1.0,0.0,0.0,0.0,1.0
1480335210467817987,814,1480335210463560424,,3.92422294617,-3.31764769554,171.461502075,0.00113700004295,1.0,0.0,0.0,0.0,1.0,0.0,0.0,0.0,1.0,0.365853667259,2.74390244484,0.0609756112099,1.0,0.0,0.0,0.0,1.0,0.0,0.0,0.0,1.0,0.172382519531,-0.541089611728,10.1035310059,1.0,0.0,0.0,0.0,1.0,0.0,0.0,0.0,1.0
1480335210488971065,815,1480335210484821209,,3.93201541901,-3.3150613308,171.44934082,0.00134600000456,1.0,0.0,0.0,0.0,1.0,0.0,0.0,0.0,1.0,-0.0609756112099,2.56097555161,-0.12195122242,1.0,0.0,0.0,0.0,1.0,0.0,0.0,0.0,1.0,0.0574608398438,-0.545877978516,10.2567599121,1.0,0.0,0.0,0.0,1.0,0.0,0.0,0.0,1.0
1480335210509493940,816,1480335210505894756,,3.93194818497,-3.31448745728,171.427307129,0.00115100003313,1.0,0.0,0.0,0.0,1.0,0.0,0.0,0.0,1.0,-0.304878056049,2.56097555161,-0.670731723309,1.0,0.0,0.0,0.0,1.0,0.0,0.0,0.0,1.0,0.181959326172,-0.517147558594,10.180145459,1.0,0.0,0.0,0.0,1.0,0.0,0.0,0.0,1.0
1480335210530804933,817,1480335210527217832,,3.93502211571,-3.31479358673,171.408966064,0.00111099996138,1.0,0.0,0.0,0.0,1.0,0.0,0.0,0.0,1.0,0.12195122242,2.62195134163,-0.365853667259,1.0,0.0,0.0,0.0,1.0,0.0,0.0,0.0,1.0,0.105344873047,-0.588973571866,10.0508585693,1.0,0.0,0.0,0.0,1.0,0.0,0.0,0.0,1.0
1480335210550550316,818,1480335210548271120,,3.94011664391,-3.31210160255,171.394546509,0.00123399996664,1.0,0.0,0.0,0.0,1.0,0.0,0.0,0.0,1.0,0.0,2.37804889679,-0.487804889679,1.0,0.0,0.0,0.0,1.0,0.0,0.0,0.0,1.0,0.177170922852,-0.531512805087,10.3094323486,1.0,0.0,0.0,0.0,1.0,0.0,0.0,0.0,1.0
1480335210571763758,819,1480335210569113159,,3.94216132164,-3.31093788147,171.374511719,0.00100699998438,1.0,0.0,0.0,0.0,1.0,0.0,0.0,0.0,1.0,-0.243902444839,3.04878044128,-0.304878056049,1.0,0.0,0.0,0.0,1.0,0.0,0.0,0.0,1.0,0.134075302102,-0.61770402832,10.2759135254,1.0,0.0,0.0,0.0,1.0,0.0,0.0,0.0,1.0
1480335210591373934,820,1480335210589698169,,3.95140337944,-3.31071734428,171.358108521,0.00100100005511,1.0,0.0,0.0,0.0,1.0,0.0,0.0,0.0,1.0,0.0609756112099,3.23170733452,-0.243902444839,1.0,0.0,0.0,0.0,1.0,0.0,0.0,0.0,1.0,0.100556469727,-0.521935925381,10.2567599121,1.0,0.0,0.0,0.0,1.0,0.0,0.0,0.0,1.0
1480335210612691125,821,1480335210610356304,,3.96286034584,-3.30935454369,171.339279175,0.00107200001366,1.0,0.0,0.0,0.0,1.0,0.0,0.0,0.0,1.0,0.0,3.23170733452,-0.18292683363,1.0,0.0,0.0,0.0,1.0,0.0,0.0,0.0,1.0,0.143652099609,-0.502782348633,10.2376062988,1.0,0.0,0.0,0.0,1.0,0.0,0.0,0.0,1.0
1480335210634074253,822,1480335210631190010,,3.98088669777,-3.30873680115,171.320419312,0.000968999986071,1.0,0.0,0.0,0.0,1.0,0.0,0.0,0.0,1.0,0.0,3.35365867615,-0.304878056049,1.0,0.0,0.0,0.0,1.0,0.0,0.0,0.0,1.0,0.181959326172,-0.627280834961,10.1562034424,1.0,0.0,0.0,0.0,1.0,0.0,0.0,0.0,1.0
1480335210653491618,823,1480335210651752624,,4.00609302521,-3.30786013603,171.301193237,0.00108399998862,1.0,0.0,0.0,0.0,1.0,0.0,0.0,0.0,1.0,-0.12195122242,3.53658556938,-0.365853667259,1.0,0.0,0.0,0.0,1.0,0.0,0.0,0.0,1.0,0.172382519531,-0.622492431641,10.2519715088,1.0,0.0,0.0,0.0,1.0,0.0,0.0,0.0,1.0
1480335210674188294,824,1480335210672316645,,4.02376174927,-3.30637693405,171.278961182,0.000972000008915,1.0,0.0,0.0,0.0,1.0,0.0,0.0,0.0,1.0,-0.12195122242,3.47560977936,-0.304878056049,1.0,0.0,0.0,0.0,1.0,0.0,0.0,0.0,1.0,0.129286889648,-0.507570751953,10.1705686523,1.0,0.0,0.0,0.0,1.0,0.0,0.0,0.0,1.0
1480335210695862409,825,1480335210693132122,,4.04608440399,-3.30202746391,171.258728027,0.00101799995173,1.0,0.0,0.0,0.0,1.0,0.0,0.0,0.0,1.0,0.0,3.23170733452,-0.487804889679,1.0,0.0,0.0,0.0,1.0,0.0,0.0,0.0,1.0,0.119710083008,-0.61770402832,10.2615483154,1.0,0.0,0.0,0.0,1.0,0.0,0.0,0.0,1.0
1480335210716621324,826,1480335210713621769,,4.06471157074,-3.30593395233,171.237945557,0.000997000024654,1.0,0.0,0.0,0.0,1.0,0.0,0.0,0.0,1.0,0.243902444839,3.10975623131,-0.426829278469,1.0,0.0,0.0,0.0,1.0,0.0,0.0,0.0,1.0,0.0239420166016,-0.636857641602,10.1753570557,1.0,0.0,0.0,0.0,1.0,0.0,0.0,0.0,1.0
1480335210739006160,827,1480335210734737035,,4.08123731613,-3.30248689651,171.218170166,0.000967999978457,1.0,0.0,0.0,0.0,1.0,0.0,0.0,0.0,1.0,0.18292683363,2.31707310677,-0.243902444839,1.0,0.0,0.0,0.0,1.0,0.0,0.0,0.0,1.0,-0.0814028564453,-0.517147558594,10.2759135254,1.0,0.0,0.0,0.0,1.0,0.0,0.0,0.0,1.0
1480335210760887044,828,1480335210755675219,,4.08560180664,-3.30503034592,171.200698853,0.00097499997355,1.0,0.0,0.0,0.0,1.0,0.0,0.0,0.0,1.0,-0.18292683363,2.07317066193,-0.304878056049,1.0,0.0,0.0,0.0,1.0,0.0,0.0,0.0,1.0,0.0909796630859,-0.584185168546,10.2232410889,1.0,0.0,0.0,0.0,1.0,0.0,0.0,0.0,1.0
1480335210781007892,829,1480335210777239959,,4.08400344849,-3.30493927002,171.187194824,0.00104999996256,1.0,0.0,0.0,0.0,1.0,0.0,0.0,0.0,1.0,0.304878056049,1.58536589146,-0.0609756112099,1.0,0.0,0.0,0.0,1.0,0.0,0.0,0.0,1.0,0.0239420166016,-0.521935925381,10.2950671387,1.0,0.0,0.0,0.0,1.0,0.0,0.0,0.0,1.0
1480335210800382133,830,1480335210798563869,,4.06161737442,-3.30313682556,171.172210693,0.00126499996986,1.0,0.0,0.0,0.0,1.0,0.0,0.0,0.0,1.0,0.12195122242,0.975609779358,-0.426829278469,1.0,0.0,0.0,0.0,1.0,0.0,0.0,0.0,1.0,0.110133276367,-0.574608398438,10.2807019287,1.0,0.0,0.0,0.0,1.0,0.0,0.0,0.0,1.0
1480335210821806927,831,1480335210819220389,,4.03535556793,-3.29936385155,171.159561157,0.0013569999719,1.0,0.0,0.0,0.0,1.0,0.0,0.0,0.0,1.0,-0.0609756112099,0.975609779358,-0.365853667259,1.0,0.0,0.0,0.0,1.0,0.0,0.0,0.0,1.0,0.129286889648,-0.502782348633,10.0939541992,1.0,0.0,0.0,0.0,1.0,0.0,0.0,0.0,1.0
1480335210848534690,832,1480335210839578839,,4.00274848938,-3.30013298988,171.146224976,0.00113099999726,1.0,0.0,0.0,0.0,1.0,0.0,0.0,0.0,1.0,-0.304878056049,0.853658556938,-0.18292683363,1.0,0.0,0.0,0.0,1.0,0.0,0.0,0.0,1.0,0.148440512063,-0.603338854892,10.1466266357,1.0,0.0,0.0,0.0,1.0,0.0,0.0,0.0,1.0
1480335210864207925,833,1480335210862205653,,3.96583247185,-3.30031776428,171.134643555,0.00657099997625,1.0,0.0,0.0,0.0,1.0,0.0,0.0,0.0,1.0,0.18292683363,0.914634168148,0.0,1.0,0.0,0.0,0.0,1.0,0.0,0.0,0.0,1.0,0.143652099609,-0.636857641602,10.2711251221,1.0,0.0,0.0,0.0,1.0,0.0,0.0,0.0,1.0
