%time,field.header.seq,field.header.stamp,field.header.frame_id,field.orientation.x,field.orientation.y,field.orientation.z,field.orientation.w,field.orientation_covariance0,field.orientation_covariance1,field.orientation_covariance2,field.orientation_covariance3,field.orientation_covariance4,field.orientation_covariance5,field.orientation_covariance6,field.orientation_covariance7,field.orientation_covariance8,field.angular_velocity.x,field.angular_velocity.y,field.angular_velocity.z,field.angular_velocity_covariance0,field.angular_velocity_covariance1,field.angular_velocity_covariance2,field.angular_velocity_covariance3,field.angular_velocity_covariance4,field.angular_velocity_covariance5,field.angular_velocity_covariance6,field.angular_velocity_covariance7,field.angular_velocity_covariance8,field.linear_acceleration.x,field.linear_acceleration.y,field.linear_acceleration.z,field.linear_acceleration_covariance0,field.linear_acceleration_covariance1,field.linear_acceleration_covariance2,field.linear_acceleration_covariance3,field.linear_acceleration_covariance4,field.linear_acceleration_covariance5,field.linear_acceleration_covariance6,field.linear_acceleration_covariance7,field.linear_acceleration_covariance8
1463662911604200104,481,1463662911556859962,,9.59435653687,-7.12991094589,-150.361602783,0.0100440001115,1.0,0.0,0.0,0.0,1.0,0.0,0.0,0.0,1.0,193.231704712,-16.6463413239,81.9512176514,1.0,0.0,0.0,0.0,1.0,0.0,0.0,0.0,1.0,0.847547387695,-1.7669208252,-5.71256516113,1.0,0.0,0.0,0.0,1.0,0.0,0.0,0.0,1.0
1463662911604281345,482,1463662911567340651,,11.4824266434,-7.3575220108,-149.585662842,0.010106000118,1.0,0.0,0.0,0.0,1.0,0.0,0.0,0.0,1.0,185.304885864,-18.2317085266,83.9024429321,1.0,0.0,0.0,0.0,1.0,0.0,0.0,0.0,1.0,0.363918652344,-3.02148249512,-6.08606062012,1.0,0.0,0.0,0.0,1.0,0.0,0.0,0.0,1.0
1463662911604437526,483,1463662911572058527,,13.3548984528,-7.58081054688,-148.767959595,0.0107389995828,1.0,0.0,0.0,0.0,1.0,0.0,0.0,0.0,1.0,176.829269409,-18.1707305908,83.8414611816,1.0,0.0,0.0,0.0,1.0,0.0,0.0,0.0,1.0,0.785298144531,-2.61446821289,-5.76044919434,1.0,0.0,0.0,0.0,1.0,0.0,0.0,0.0,1.0
1463662911604576053,484,1463662911586997745,,15.951341629,-8.06287193298,-147.656646729,0.0154100004584,1.0,0.0,0.0,0.0,1.0,0.0,0.0,0.0,1.0,153.963409424,-17.0121955872,83.3536605835,1.0,0.0,0.0,0.0,1.0,0.0,0.0,0.0,1.0,-0.205901342773,-6.3637880127,-6.39251843262,1.0,0.0,0.0,0.0,1.0,0.0,0.0,0.0,1.0
1463662911604652451,485,1463662911590915342,,16.5996704102,-8.19260215759,-147.365249634,0.00413399981335,1.0,0.0,0.0,0.0,1.0,0.0,0.0,0.0,1.0,143.902435303,-16.4024391174,82.6829299927,1.0,0.0,0.0,0.0,1.0,0.0,0.0,0.0,1.0,-0.0814028564453,-6.74686027832,-6.56490095215,1.0,0.0,0.0,0.0,1.0,0.0,0.0,0.0,1.0
1463662911604724005,486,1463662911602604964,,17.9302101135,-8.50378990173,-146.71043396,0.0101070003584,1.0,0.0,0.0,0.0,1.0,0.0,0.0,0.0,1.0,116.829269409,-15.7926826477,77.5,1.0,0.0,0.0,0.0,1.0,0.0,0.0,0.0,1.0,-0.15801730957,-8.34139799946,-7.51300480957,1.0,0.0,0.0,0.0,1.0,0.0,0.0,0.0,1.0
1463662911616221304,487,1463662911611431457,,19.009141922,-8.80255222321,-146.126266479,0.0100969998166,1.0,0.0,0.0,0.0,1.0,0.0,0.0,0.0,1.0,89.634147644,-16.0975608826,71.6463394165,1.0,0.0,0.0,0.0,1.0,0.0,0.0,0.0,1.0,0.0383072265625,-9.36611631001,-7.46990917969,1.0,0.0,0.0,0.0,1.0,0.0,0.0,0.0,1.0
1463662911623473489,488,1463662911621460633,,19.7606315613,-9.0751657486,-145.617782593,0.0101100001484,1.0,0.0,0.0,0.0,1.0,0.0,0.0,0.0,1.0,56.1585388184,-12.9878053665,63.4756088257,1.0,0.0,0.0,0.0,1.0,0.0,0.0,0.0,1.0,-0.469263525391,-10.0173397461,-7.65186850586,1.0,0.0,0.0,0.0,1.0,0.0,0.0,0.0,1.0
1463662911635107804,489,1463662911632319615,,20.1879138947,-9.31014537811,-145.196517944,0.0100899999961,1.0,0.0,0.0,0.0,1.0,0.0,0.0,0.0,1.0,24.9390239716,-12.4390249252,54.5121955872,1.0,0.0,0.0,0.0,1.0,0.0,0.0,0.0,1.0,-0.450109912109,-10.5967365479,-8.57124252788,1.0,0.0,0.0,0.0,1.0,0.0,0.0,0.0,1.0
1463662911643969293,490,1463662911641463366,,20.3891239166,-9.49704170227,-144.889663696,0.0100969998166,1.0,0.0,0.0,0.0,1.0,0.0,0.0,0.0,1.0,-1.8292683363,-10.7317075729,42.7439041138,1.0,0.0,0.0,0.0,1.0,0.0,0.0,0.0,1.0,-0.61770402832,-11.6932809082,-8.2743609375,1.0,0.0,0.0,0.0,1.0,0.0,0.0,0.0,1.0
1463662911658881952,491,1463662911655427950,,20.10014534,-9.64675140381,-144.641357422,0.0134619995952,1.0,0.0,0.0,0.0,1.0,0.0,0.0,0.0,1.0,-43.3536567688,-7.50000047684,28.8414649963,1.0,0.0,0.0,0.0,1.0,0.0,0.0,0.0,1.0,-0.823605371094,-11.3820346924,-8.64785698101,1.0,0.0,0.0,0.0,1.0,0.0,0.0,0.0,1.0
1463662911665185958,492,1463662911662248671,,19.8329029083,-9.69258022308,-144.557693481,0.0067619998008,1.0,0.0,0.0,0.0,1.0,0.0,0.0,0.0,1.0,-61.8292655945,-5.60975599289,21.7073173523,1.0,0.0,0.0,0.0,1.0,0.0,0.0,0.0,1.0,-0.837970581055,-10.8409451172,-8.53293530132,1.0,0.0,0.0,0.0,1.0,0.0,0.0,0.0,1.0
1463662911675508071,493,1463662911673069012,,19.1367549896,-9.70699310303,-144.552154541,0.0111680002883,1.0,0.0,0.0,0.0,1.0,0.0,0.0,0.0,1.0,-86.1585388184,-3.23170733452,8.35365867615,1.0,0.0,0.0,0.0,1.0,0.0,0.0,0.0,1.0,-1.20188930646,-10.8361567139,-8.77235488281,1.0,0.0,0.0,0.0,1.0,0.0,0.0,0.0,1.0
1463662911684307588,494,1463662911682028616,,18.4238433838,-9.67339134216,-144.634094238,0.00901199970394,1.0,0.0,0.0,0.0,1.0,0.0,0.0,0.0,1.0,-104.756103516,-1.46341466904,-2.19512200356,1.0,0.0,0.0,0.0,1.0,0.0,0.0,0.0,1.0,-1.17315874041,-10.2759135254,-8.44674287251,1.0,0.0,0.0,0.0,1.0,0.0,0.0,0.0,1.0
1463662911705805004,495,1463662911692053834,,17.4524173737,-9.56983089447,-144.840942383,0.0100969998166,1.0,0.0,0.0,0.0,1.0,0.0,0.0,0.0,1.0,-122.195121765,1.8292683363,-15.3048791885,1.0,0.0,0.0,0.0,1.0,0.0,0.0,0.0,1.0,-1.34554133301,-9.91678327637,-8.92079538574,1.0,0.0,0.0,0.0,1.0,0.0,0.0,0.0,1.0
1463662911706192410,496,1463662911702298195,,16.325428009,-9.4388999939,-145.1534729,0.0101020000875,1.0,0.0,0.0,0.0,1.0,0.0,0.0,0.0,1.0,-137.743896484,1.8902438879,-26.2195129395,1.0,0.0,0.0,0.0,1.0,0.0,0.0,0.0,1.0,-1.37427175293,-9.20809958496,-9.10754311523,1.0,0.0,0.0,0.0,1.0,0.0,0.0,0.0,1.0
1463662911715433963,497,1463662911712431214,,15.059384346,-9.25135421753,-145.570037842,0.0101220002398,1.0,0.0,0.0,0.0,1.0,0.0,0.0,0.0,1.0,-151.524398804,5.30487823486,-37.682926178,1.0,0.0,0.0,0.0,1.0,0.0,0.0,0.0,1.0,-1.36469494629,-8.33182119282,-9.04050546875,1.0,0.0,0.0,0.0,1.0,0.0,0.0,0.0,1.0
1463662911726052763,498,1463662911722395450,,13.6922950745,-9.04624652863,-146.086853027,0.0100859999657,1.0,0.0,0.0,0.0,1.0,0.0,0.0,0.0,1.0,-161.89024353,5.85365867615,-48.0487823486,1.0,0.0,0.0,0.0,1.0,0.0,0.0,0.0,1.0,-1.45567460937,-7.82903942871,-9.46188437642,1.0,0.0,0.0,0.0,1.0,0.0,0.0,0.0,1.0
1463662911755586340,499,1463662911733099136,,12.1423034668,-8.80492115021,-146.697998047,0.0104310000315,1.0,0.0,0.0,0.0,1.0,0.0,0.0,0.0,1.0,-174.207321167,7.19512224197,-55.6707344055,1.0,0.0,0.0,0.0,1.0,0.0,0.0,0.0,1.0,-1.1540052002,-6.83305153809,-9.31823227681,1.0,0.0,0.0,0.0,1.0,0.0,0.0,0.0,1.0
1463662911755885006,500,1463662911742672736,,10.5694227219,-8.54997158051,-147.323028564,0.00977300014347,1.0,0.0,0.0,0.0,1.0,0.0,0.0,0.0,1.0,-182.500015259,7.86585378647,-61.4634132385,1.0,0.0,0.0,0.0,1.0,0.0,0.0,0.0,1.0,-0.612915625,-5.61200869141,-9.89762966309,1.0,0.0,0.0,0.0,1.0,0.0,0.0,0.0,1.0
1463662911756166278,501,1463662911752820806,,8.89490032196,-8.3001909256,-148.033935547,0.0101009998471,1.0,0.0,0.0,0.0,1.0,0.0,0.0,0.0,1.0,-186.768295288,6.58536624908,-67.3780517578,1.0,0.0,0.0,0.0,1.0,0.0,0.0,0.0,1.0,-0.440533105469,-4.9751510498,-9.92636008301,1.0,0.0,0.0,0.0,1.0,0.0,0.0,0.0,1.0
1463662911765688425,502,1463662911762803477,,7.12401008606,-8.04581356049,-148.7706604,0.0101110003889,1.0,0.0,0.0,0.0,1.0,0.0,0.0,0.0,1.0,-190.426834106,5.85365867615,-70.1219482422,1.0,0.0,0.0,0.0,1.0,0.0,0.0,0.0,1.0,0.119710083008,-3.64876333008,-10.673351001,1.0,0.0,0.0,0.0,1.0,0.0,0.0,0.0,1.0
1463662911779092601,503,1463662911775756035,,5.31955766678,-7.83707427979,-149.522659302,0.0100830001757,1.0,0.0,0.0,0.0,1.0,0.0,0.0,0.0,1.0,-189.390258789,5.24390268326,-72.0731735229,1.0,0.0,0.0,0.0,1.0,0.0,0.0,0.0,1.0,-0.239420166016,-2.54264216309,-11.8129909912,1.0,0.0,0.0,0.0,1.0,0.0,0.0,0.0,1.0
1463662911796214344,504,1463662911783001814,,3.54922795296,-7.64939451218,-150.29057312,0.0101009998471,1.0,0.0,0.0,0.0,1.0,0.0,0.0,0.0,1.0,-183.231719971,7.07317113876,-73.6585388184,1.0,0.0,0.0,0.0,1.0,0.0,0.0,0.0,1.0,-0.670376464844,-1.89141931152,-13.6756798828,1.0,0.0,0.0,0.0,1.0,0.0,0.0,0.0,1.0
1463662911796517227,505,1463662911793133218,,1.76557159424,-7.49327421188,-151.04800415,0.0101239997894,1.0,0.0,0.0,0.0,1.0,0.0,0.0,0.0,1.0,-180.670730591,8.23170757294,-72.6219558716,1.0,0.0,0.0,0.0,1.0,0.0,0.0,0.0,1.0,-0.981622680664,-0.627280834961,-12.2583125,1.0,0.0,0.0,0.0,1.0,0.0,0.0,0.0,1.0
1463662911806521667,506,1463662911803263009,,-0.038762383163,-7.33189249039,-151.785293579,0.0100969998166,1.0,0.0,0.0,0.0,1.0,0.0,0.0,0.0,1.0,-176.097564697,13.5365858078,-71.5243911743,1.0,0.0,0.0,0.0,1.0,0.0,0.0,0.0,1.0,-1.5322890625,1.28329208984,-12.7946136719,1.0,0.0,0.0,0.0,1.0,0.0,0.0,0.0,1.0
1463662911816797587,507,1463662911813311922,,-1.78262972832,-7.15173101425,-152.505432129,0.0101039996371,1.0,0.0,0.0,0.0,1.0,0.0,0.0,0.0,1.0,-165.548782349,17.7439022064,-69.8170776367,1.0,0.0,0.0,0.0,1.0,0.0,0.0,0.0,1.0,-1.45088620605,2.51870014648,-12.1577560303,1.0,0.0,0.0,0.0,1.0,0.0,0.0,0.0,1.0
1463662911836380053,508,1463662911823482802,,-3.41778302193,-6.9384894371,-153.205963135,0.0100870002061,1.0,0.0,0.0,0.0,1.0,0.0,0.0,0.0,1.0,-151.280487061,21.7682933807,-67.7439041138,1.0,0.0,0.0,0.0,1.0,0.0,0.0,0.0,1.0,-1.10612116699,3.63918652344,-11.9805851074,1.0,0.0,0.0,0.0,1.0,0.0,0.0,0.0,1.0
1463662911836453483,509,1463662911833630454,,-4.89468669891,-6.70901346207,-153.857177734,0.010106000118,1.0,0.0,0.0,0.0,1.0,0.0,0.0,0.0,1.0,-131.463409424,22.1951236725,-62.5609779358,1.0,0.0,0.0,0.0,1.0,0.0,0.0,0.0,1.0,-0.426167895508,4.48194550781,-11.2910550293,1.0,0.0,0.0,0.0,1.0,0.0,0.0,0.0,1.0
1463662911846572024,510,1463662911843575837,,-6.18676519394,-6.46155357361,-154.45475769,0.0100990002975,1.0,0.0,0.0,0.0,1.0,0.0,0.0,0.0,1.0,-110.792686462,22.4390239716,-57.0121955872,1.0,0.0,0.0,0.0,1.0,0.0,0.0,0.0,1.0,0.191536132812,4.92247861328,-10.6446205811,1.0,0.0,0.0,0.0,1.0,0.0,0.0,0.0,1.0
1463662911857307582,511,1463662911853779838,,-7.29442596436,-6.24437332153,-154.939086914,0.0100919995457,1.0,0.0,0.0,0.0,1.0,0.0,0.0,0.0,1.0,-88.4756164551,18.7804889679,-46.2195129395,1.0,0.0,0.0,0.0,1.0,0.0,0.0,0.0,1.0,0.402225878906,5.70298835449,-10.285490332,1.0,0.0,0.0,0.0,1.0,0.0,0.0,0.0,1.0
1463662911870968970,512,1463662911863891662,,-8.18590068817,-6.05092334747,-155.293899536,0.010098000057,1.0,0.0,0.0,0.0,1.0,0.0,0.0,0.0,1.0,-66.4024353027,16.7073173523,-33.2926826477,1.0,0.0,0.0,0.0,1.0,0.0,0.0,0.0,1.0,0.177170922852,5.42047255859,-9.76834277344,1.0,0.0,0.0,0.0,1.0,0.0,0.0,0.0,1.0
1463662911876126641,513,1463662911873913547,,-8.9282283783,-5.90871524811,-155.529022217,0.0101150004193,1.0,0.0,0.0,0.0,1.0,0.0,0.0,0.0,1.0,-45.9146347046,14.3292694092,-22.0121955872,1.0,0.0,0.0,0.0,1.0,0.0,0.0,0.0,1.0,-0.560243188477,6.86178195801,-9.91199487305,1.0,0.0,0.0,0.0,1.0,0.0,0.0,0.0,1.0
1463662911888266422,514,1463662911884042973,,-9.39425373077,-5.76469421387,-155.648605347,0.0101100001484,1.0,0.0,0.0,0.0,1.0,0.0,0.0,0.0,1.0,-21.7073173523,15.1829271317,-9.81707286835,1.0,0.0,0.0,0.0,1.0,0.0,0.0,0.0,1.0,-1.00556469727,5.76044919434,-9.71567033691,1.0,0.0,0.0,0.0,1.0,0.0,0.0,0.0,1.0
1463662911896507875,515,1463662911894094386,,-9.63525390625,-5.61790561676,-155.647506714,0.0100990002975,1.0,0.0,0.0,0.0,1.0,0.0,0.0,0.0,1.0,-3.71951246262,17.0731716156,3.17073178291,1.0,0.0,0.0,0.0,1.0,0.0,0.0,0.0,1.0,-1.70945998535,4.72136538157,-9.95987890625,1.0,0.0,0.0,0.0,1.0,0.0,0.0,0.0,1.0
1463662911905797600,516,1463662911904339372,,-9.76179981232,-5.4196100235,-155.515213013,0.0100990002975,1.0,0.0,0.0,0.0,1.0,0.0,0.0,0.0,1.0,7.19512224197,19.0853652954,16.8292694092,1.0,0.0,0.0,0.0,1.0,0.0,0.0,0.0,1.0,-1.43173259277,4.16591059641,-9.45230756977,1.0,0.0,0.0,0.0,1.0,0.0,0.0,0.0,1.0
1463662911915801622,517,1463662911914444425,,-9.80073928833,-5.15078115463,-155.267456055,0.0101239997894,1.0,0.0,0.0,0.0,1.0,0.0,0.0,0.0,1.0,16.6463413239,21.8292694092,28.8414649963,1.0,0.0,0.0,0.0,1.0,0.0,0.0,0.0,1.0,-1.01514150391,4.19942941965,-9.61511445171,1.0,0.0,0.0,0.0,1.0,0.0,0.0,0.0,1.0
1463662911926725598,518,1463662911924649572,,-9.70143985748,-4.86873817444,-154.911895752,0.0100739998743,1.0,0.0,0.0,0.0,1.0,0.0,0.0,0.0,1.0,24.0853652954,19.3292694092,40.0,1.0,0.0,0.0,0.0,1.0,0.0,0.0,0.0,1.0,-0.560243188477,2.69587106934,-9.23683000488,1.0,0.0,0.0,0.0,1.0,0.0,0.0,0.0,1.0
1463662911943195640,519,1463662911935394139,,-9.5031337738,-4.56419610977,-154.457321167,0.0102599998936,1.0,0.0,0.0,0.0,1.0,0.0,0.0,0.0,1.0,28.9634151459,17.3780498505,49.1463432312,1.0,0.0,0.0,0.0,1.0,0.0,0.0,0.0,1.0,-0.138863696289,1.69030637207,-8.77235488281,1.0,0.0,0.0,0.0,1.0,0.0,0.0,0.0,1.0
1463662911970785626,520,1463662911944872333,,-9.25075054169,-4.29318618774,-153.960586548,0.0100830001757,1.0,0.0,0.0,0.0,1.0,0.0,0.0,0.0,1.0,30.4878044128,16.8902435303,54.3292694092,1.0,0.0,0.0,0.0,1.0,0.0,0.0,0.0,1.0,-0.569819995117,0.991199487305,-8.97825622559,1.0,0.0,0.0,0.0,1.0,0.0,0.0,0.0,1.0
1463662911970836349,521,1463662911954773607,,-8.99557876587,-4.02711963654,-153.438995361,0.00996300019324,1.0,0.0,0.0,0.0,1.0,0.0,0.0,0.0,1.0,33.5365867615,15.7926826477,56.9512214661,1.0,0.0,0.0,0.0,1.0,0.0,0.0,0.0,1.0,-0.407014282227,1.32159931641,-8.78193168945,1.0,0.0,0.0,0.0,1.0,0.0,0.0,0.0,1.0
1463662911970939151,522,1463662911964972817,,-8.71279525757,-3.75799131393,-152.922149658,0.0100919995457,1.0,0.0,0.0,0.0,1.0,0.0,0.0,0.0,1.0,40.1219520569,16.0975608826,55.4268302917,1.0,0.0,0.0,0.0,1.0,0.0,0.0,0.0,1.0,-0.354341845703,2.04943662109,-8.97825622559,1.0,0.0,0.0,0.0,1.0,0.0,0.0,0.0,1.0
1463662911993076184,523,1463662911974970434,,-8.34489631653,-3.522356987,-152.41506958,0.0100940000266,1.0,0.0,0.0,0.0,1.0,0.0,0.0,0.0,1.0,47.8658561707,16.2195110321,54.390247345,1.0,0.0,0.0,0.0,1.0,0.0,0.0,0.0,1.0,-0.809240161133,1.96324536133,-9.09796630859,1.0,0.0,0.0,0.0,1.0,0.0,0.0,0.0,1.0
1463662911994626485,524,1463662911985159853,,-7.85588598251,-3.26225566864,-151.964035034,0.0101260002702,1.0,0.0,0.0,0.0,1.0,0.0,0.0,0.0,1.0,52.9268302917,19.9390239716,49.4512176514,1.0,0.0,0.0,0.0,1.0,0.0,0.0,0.0,1.0,-0.76614453125,0.833182177734,-8.71010563965,1.0,0.0,0.0,0.0,1.0,0.0,0.0,0.0,1.0
1463662912015865804,525,1463662911995421295,,-7.35564613342,-2.99117684364,-151.549484253,0.010111999698,1.0,0.0,0.0,0.0,1.0,0.0,0.0,0.0,1.0,51.8902435303,21.9512195587,46.0365867615,1.0,0.0,0.0,0.0,1.0,0.0,0.0,0.0,1.0,-0.732625708008,0.478840332031,-8.76756647949,1.0,0.0,0.0,0.0,1.0,0.0,0.0,0.0,1.0
1463662912015917361,526,1463662912005328714,,-6.88191223145,-2.67972540855,-151.169799805,0.0100899999961,1.0,0.0,0.0,0.0,1.0,0.0,0.0,0.0,1.0,49.5731735229,25.3658542633,42.8048782349,1.0,0.0,0.0,0.0,1.0,0.0,0.0,0.0,1.0,-0.469263525391,0.493205541992,-8.76756647949,1.0,0.0,0.0,0.0,1.0,0.0,0.0,0.0,1.0
1463662912030880743,527,1463662912015403874,,-6.39584112167,-2.34975743294,-150.827667236,0.0101009998471,1.0,0.0,0.0,0.0,1.0,0.0,0.0,0.0,1.0,46.7073173523,26.0975627899,39.0243911743,1.0,0.0,0.0,0.0,1.0,0.0,0.0,0.0,1.0,-0.138863696289,-0.15322890625,-9.02614025879,1.0,0.0,0.0,0.0,1.0,0.0,0.0,0.0,1.0
1463662912031395635,528,1463662912025518041,,-5.93571472168,-2.00117921829,-150.52281189,0.0100880004466,1.0,0.0,0.0,0.0,1.0,0.0,0.0,0.0,1.0,41.7682952881,26.8902454376,35.2439041138,1.0,0.0,0.0,0.0,1.0,0.0,0.0,0.0,1.0,0.196324536133,-0.555454785156,-8.82981572266,1.0,0.0,0.0,0.0,1.0,0.0,0.0,0.0,1.0
1463662912061301568,529,1463662912035691733,,-5.50899744034,-1.66641652584,-150.267700195,0.0101049998775,1.0,0.0,0.0,0.0,1.0,0.0,0.0,0.0,1.0,37.3780517578,26.2195129395,29.9390258789,1.0,0.0,0.0,0.0,1.0,0.0,0.0,0.0,1.0,0.258573779297,-0.751779321289,-9.05487067871,1.0,0.0,0.0,0.0,1.0,0.0,0.0,0.0,1.0
1463662912061716315,530,1463662912045761113,,-5.13992643356,-1.34714174271,-150.068389893,0.0100940000266,1.0,0.0,0.0,0.0,1.0,0.0,0.0,0.0,1.0,32.682926178,24.9390239716,24.0243911743,1.0,0.0,0.0,0.0,1.0,0.0,0.0,0.0,1.0,0.392649072266,-0.61770402832,-9.09796630859,1.0,0.0,0.0,0.0,1.0,0.0,0.0,0.0,1.0
1463662912061769799,531,1463662912055939023,,-4.8073592186,-1.0471175909,-149.918640137,0.010108999908,1.0,0.0,0.0,0.0,1.0,0.0,0.0,0.0,1.0,29.2073173523,23.8414649963,18.7804889679,1.0,0.0,0.0,0.0,1.0,0.0,0.0,0.0,1.0,0.392649072266,-0.603338854892,-8.98304462891,1.0,0.0,0.0,0.0,1.0,0.0,0.0,0.0,1.0
1463662912091581003,532,1463662912065968512,,-4.53597927094,-0.770592570305,-149.819335938,0.0101110003889,1.0,0.0,0.0,0.0,1.0,0.0,0.0,0.0,1.0,24.2682933807,21.6463432312,13.4146347046,1.0,0.0,0.0,0.0,1.0,0.0,0.0,0.0,1.0,0.512359155273,-0.46447512207,-9.23204160156,1.0,0.0,0.0,0.0,1.0,0.0,0.0,0.0,1.0
1463662912091629071,533,1463662912076077054,,-4.29192066193,-0.501484870911,-149.771453857,0.0100809996948,1.0,0.0,0.0,0.0,1.0,0.0,0.0,0.0,1.0,21.4634151459,20.3048782349,8.10975551605,1.0,0.0,0.0,0.0,1.0,0.0,0.0,0.0,1.0,0.756567724609,-0.531512805087,-9.37569311665,1.0,0.0,0.0,0.0,1.0,0.0,0.0,0.0,1.0
1463662912092136099,534,1463662912086186794,,-4.10177564621,-0.267884850502,-149.770401001,0.0101049998775,1.0,0.0,0.0,0.0,1.0,0.0,0.0,0.0,1.0,17.9878044128,17.9268302917,3.17073178291,1.0,0.0,0.0,0.0,1.0,0.0,0.0,0.0,1.0,0.670376464844,-0.244208569336,-9.50019277202,1.0,0.0,0.0,0.0,1.0,0.0,0.0,0.0,1.0
1463662912202152017,535,1463662912096191963,,-3.94885969162,-0.0440784171224,-149.815353394,0.010095000267,1.0,0.0,0.0,0.0,1.0,0.0,0.0,0.0,1.0,16.4024391174,16.158536911,-1.58536589146,1.0,0.0,0.0,0.0,1.0,0.0,0.0,0.0,1.0,0.900219824219,0.076614453125,-9.4570959731,1.0,0.0,0.0,0.0,1.0,0.0,0.0,0.0,1.0
1463662912202435320,536,1463662912106618231,,-3.79963040352,0.163541048765,-149.902252197,0.0101070003584,1.0,0.0,0.0,0.0,1.0,0.0,0.0,0.0,1.0,14.1463422775,13.2317075729,-5.97560977936,1.0,0.0,0.0,0.0,1.0,0.0,0.0,0.0,1.0,1.21625444336,-0.272938989258,-9.53371159526,1.0,0.0,0.0,0.0,1.0,0.0,0.0,0.0,1.0
1463662912202689199,537,1463662912116428108,,-3.66753315926,0.345551997423,-150.028717041,0.0101309996098,1.0,0.0,0.0,0.0,1.0,0.0,0.0,0.0,1.0,10.9146347046,9.02439117432,-10.1829271317,1.0,0.0,0.0,0.0,1.0,0.0,0.0,0.0,1.0,1.52750065918,-0.550666381836,-9.22725319824,1.0,0.0,0.0,0.0,1.0,0.0,0.0,0.0,1.0
1463662912203315589,538,1463662912126272877,,-3.58152937889,0.490154385567,-150.182815552,0.0100520001724,1.0,0.0,0.0,0.0,1.0,0.0,0.0,0.0,1.0,7.62195110321,6.09756088257,-13.2317075729,1.0,0.0,0.0,0.0,1.0,0.0,0.0,0.0,1.0,1.49398183594,-0.387860668945,-9.35175110005,1.0,0.0,0.0,0.0,1.0,0.0,0.0,0.0,1.0
1463662912203366573,539,1463662912136587231,,-3.50917816162,0.580655217171,-150.3699646,0.0101250000298,1.0,0.0,0.0,0.0,1.0,0.0,0.0,0.0,1.0,5.85365867615,1.15853655338,-16.7073173523,1.0,0.0,0.0,0.0,1.0,0.0,0.0,0.0,1.0,1.4844050293,-0.478840332031,-9.49061596538,1.0,0.0,0.0,0.0,1.0,0.0,0.0,0.0,1.0
1463662912203409173,540,1463662912146705772,,-3.46425056458,0.637056589127,-150.581008911,0.0101250000298,1.0,0.0,0.0,0.0,1.0,0.0,0.0,0.0,1.0,4.2682929039,-2.31707310677,-19.2682914734,1.0,0.0,0.0,0.0,1.0,0.0,0.0,0.0,1.0,1.5562310791,-0.31124621582,-9.59117243511,1.0,0.0,0.0,0.0,1.0,0.0,0.0,0.0,1.0
1463662912203445158,541,1463662912156825407,,-3.44388008118,0.643052339554,-150.805160522,0.0100640002638,1.0,0.0,0.0,0.0,1.0,0.0,0.0,0.0,1.0,2.37804889679,-6.09756088257,-20.9146347046,1.0,0.0,0.0,0.0,1.0,0.0,0.0,0.0,1.0,1.36469494629,-0.229843359375,-9.55286520855,1.0,0.0,0.0,0.0,1.0,0.0,0.0,0.0,1.0
1463662912203870321,542,1463662912166758344,,-3.44538903236,0.601154327393,-151.038024902,0.0101110003889,1.0,0.0,0.0,0.0,1.0,0.0,0.0,0.0,1.0,1.09756100178,-9.93902492523,-21.8902435303,1.0,0.0,0.0,0.0,1.0,0.0,0.0,0.0,1.0,1.25456166992,-0.0814028564453,-9.84495722656,1.0,0.0,0.0,0.0,1.0,0.0,0.0,0.0,1.0
1463662912206833178,543,1463662912176901674,,-3.46564173698,0.53446495533,-151.267959595,0.0101049998775,1.0,0.0,0.0,0.0,1.0,0.0,0.0,0.0,1.0,-0.670731723309,-12.5,-21.7682933807,1.0,0.0,0.0,0.0,1.0,0.0,0.0,0.0,1.0,1.28808049316,-0.0622492431641,-10.0364933594,1.0,0.0,0.0,0.0,1.0,0.0,0.0,0.0,1.0
1463662912207208345,544,1463662912187059326,,-3.49200487137,0.436380714178,-151.4947052,0.0101049998775,1.0,0.0,0.0,0.0,1.0,0.0,0.0,0.0,1.0,-2.56097555161,-15.4878053665,-21.6463432312,1.0,0.0,0.0,0.0,1.0,0.0,0.0,0.0,1.0,1.27850368652,-0.287304199219,-10.2376062988,1.0,0.0,0.0,0.0,1.0,0.0,0.0,0.0,1.0
1463662912207551381,545,1463662912197282856,,-3.54987931252,0.30895331502,-151.710067749,0.0101129999384,1.0,0.0,0.0,0.0,1.0,0.0,0.0,0.0,1.0,-5.54878091812,-19.0853652954,-20.7317085266,1.0,0.0,0.0,0.0,1.0,0.0,0.0,0.0,1.0,1.39821376953,-0.253785375977,-10.3621047852,1.0,0.0,0.0,0.0,1.0,0.0,0.0,0.0,1.0
1463662912366992997,546,1463662912207354423,,-3.6375670433,0.145813643932,-151.907897949,0.0100959995762,1.0,0.0,0.0,0.0,1.0,0.0,0.0,0.0,1.0,-7.74390268326,-21.6463432312,-19.2073173523,1.0,0.0,0.0,0.0,1.0,0.0,0.0,0.0,1.0,1.21625444336,-0.0909796630859,-10.7356002441,1.0,0.0,0.0,0.0,1.0,0.0,0.0,0.0,1.0
1463662912367027993,547,1463662912217447759,,-3.72536349297,-0.0603388622403,-152.099853516,0.0100840004161,1.0,0.0,0.0,0.0,1.0,0.0,0.0,0.0,1.0,-8.59756088257,-25.182926178,-18.9024391174,1.0,0.0,0.0,0.0,1.0,0.0,0.0,0.0,1.0,1.04387185076,-0.220266552734,-10.7595422607,1.0,0.0,0.0,0.0,1.0,0.0,0.0,0.0,1.0
1463662912367061115,548,1463662912227597131,,-3.83939886093,-0.301075011492,-152.279907227,0.0101209999993,1.0,0.0,0.0,0.0,1.0,0.0,0.0,0.0,1.0,-10.4878053665,-26.8902454376,-17.8048782349,1.0,0.0,0.0,0.0,1.0,0.0,0.0,0.0,1.0,0.708683691406,-0.0622492431641,-11.1617681396,1.0,0.0,0.0,0.0,1.0,0.0,0.0,0.0,1.0
1463662912368513301,549,1463662912237620161,,-3.95752167702,-0.553725481033,-152.455154419,0.0100769996643,1.0,0.0,0.0,0.0,1.0,0.0,0.0,0.0,1.0,-10.9146347046,-27.682926178,-17.5000019073,1.0,0.0,0.0,0.0,1.0,0.0,0.0,0.0,1.0,0.565031591797,-0.0191536132812,-11.137826123,1.0,0.0,0.0,0.0,1.0,0.0,0.0,0.0,1.0
1463662912368551891,550,1463662912247721257,,-4.10291147232,-0.844737231731,-152.626846313,0.0101129999384,1.0,0.0,0.0,0.0,1.0,0.0,0.0,0.0,1.0,-11.2804880142,-28.1707324982,-17.1951217651,1.0,0.0,0.0,0.0,1.0,0.0,0.0,0.0,1.0,-0.110133276367,0.45489831543,-10.7643306641,1.0,0.0,0.0,0.0,1.0,0.0,0.0,0.0,1.0
1463662912368588241,551,1463662912257869483,,-4.19282579422,-1.04802024364,-152.784133911,0.0101070003584,1.0,0.0,0.0,0.0,1.0,0.0,0.0,0.0,1.0,-8.47560977936,-29.8780498505,-15.9146347046,1.0,0.0,0.0,0.0,1.0,0.0,0.0,0.0,1.0,1.82438166504,-0.0287304199219,-10.793061084,1.0,0.0,0.0,0.0,1.0,0.0,0.0,0.0,1.0
1463662912368626362,552,1463662912267872672,,-4.3406701088,-1.32000207901,-152.928512573,0.0100919995457,1.0,0.0,0.0,0.0,1.0,0.0,0.0,0.0,1.0,-8.23170757294,-32.2560958862,-15.0000009537,1.0,0.0,0.0,0.0,1.0,0.0,0.0,0.0,1.0,0.905008227539,1.14921679688,-10.7403886475,1.0,0.0,0.0,0.0,1.0,0.0,0.0,0.0,1.0
1463662912368662921,553,1463662912278072298,,-4.42317819595,-1.65883362293,-153.072906494,0.0101009998471,1.0,0.0,0.0,0.0,1.0,0.0,0.0,0.0,1.0,-3.10975623131,-33.3536605835,-15.1219511032,1.0,0.0,0.0,0.0,1.0,0.0,0.0,0.0,1.0,-0.191536132812,0.933738647461,-10.7834842773,1.0,0.0,0.0,0.0,1.0,0.0,0.0,0.0,1.0
1463662912368704166,554,1463662912288168498,,-4.46626377106,-2.02932167053,-153.221725464,0.0100999996066,1.0,0.0,0.0,0.0,1.0,0.0,0.0,0.0,1.0,1.03658533096,-34.1463432312,-15.6707315445,1.0,0.0,0.0,0.0,1.0,0.0,0.0,0.0,1.0,-0.756567724609,1.10612116699,-11.7411649414,1.0,0.0,0.0,0.0,1.0,0.0,0.0,0.0,1.0
1463662912370856954,555,1463662912298215745,,-4.44582414627,-2.37239265442,-153.389572144,0.010095000267,1.0,0.0,0.0,0.0,1.0,0.0,0.0,0.0,1.0,5.48780488968,-30.1829280853,-17.1951217651,1.0,0.0,0.0,0.0,1.0,0.0,0.0,0.0,1.0,-1.09175595703,0.780509741211,-11.9997387207,1.0,0.0,0.0,0.0,1.0,0.0,0.0,0.0,1.0
1463662912370890492,556,1463662912308277418,,-4.39291954041,-2.67252230644,-153.559158325,0.0101349996403,1.0,0.0,0.0,0.0,1.0,0.0,0.0,0.0,1.0,7.74390268326,-28.0487804413,-17.0731716156,1.0,0.0,0.0,0.0,1.0,0.0,0.0,0.0,1.0,-0.718260498047,0.622492431641,-12.5168862793,1.0,0.0,0.0,0.0,1.0,0.0,0.0,0.0,1.0
1463662912370929082,557,1463662912318282013,,-4.31339216232,-2.93701887131,-153.710800171,0.0100560002029,1.0,0.0,0.0,0.0,1.0,0.0,0.0,0.0,1.0,8.59756088257,-26.5853652954,-15.1829271317,1.0,0.0,0.0,0.0,1.0,0.0,0.0,0.0,1.0,-0.402225878906,0.201112939453,-12.3253501465,1.0,0.0,0.0,0.0,1.0,0.0,0.0,0.0,1.0
1463662912370970223,558,1463662912328565277,,-4.22284650803,-3.17642879486,-153.83190918,0.0101169999689,1.0,0.0,0.0,0.0,1.0,0.0,0.0,0.0,1.0,8.47560977936,-26.4024391174,-11.9512195587,1.0,0.0,0.0,0.0,1.0,0.0,0.0,0.0,1.0,0.0191536132812,-0.0909796630859,-12.2247936768,1.0,0.0,0.0,0.0,1.0,0.0,0.0,0.0,1.0
1463662912371150568,559,1463662912338654602,,-4.14003181458,-3.40818881989,-153.914749146,0.0100910002366,1.0,0.0,0.0,0.0,1.0,0.0,0.0,0.0,1.0,5.97560977936,-26.5853652954,-8.04878044128,1.0,0.0,0.0,0.0,1.0,0.0,0.0,0.0,1.0,0.0909796630859,-0.507570751953,-11.750741748,1.0,0.0,0.0,0.0,1.0,0.0,0.0,0.0,1.0
1463662912371363358,560,1463662912348659771,,-4.10515642166,-3.6223115921,-153.944625854,0.0101209999993,1.0,0.0,0.0,0.0,1.0,0.0,0.0,0.0,1.0,3.47560977936,-25.5487804413,-2.80487799644,1.0,0.0,0.0,0.0,1.0,0.0,0.0,0.0,1.0,0.119710083008,-0.110133276367,-11.5208983887,1.0,0.0,0.0,0.0,1.0,0.0,0.0,0.0,1.0
1463662912371541568,561,1463662912358806642,,-4.09057998657,-3.83195185661,-153.935012817,0.0100809996948,1.0,0.0,0.0,0.0,1.0,0.0,0.0,0.0,1.0,2.19512200356,-24.4512195587,1.15853655338,1.0,0.0,0.0,0.0,1.0,0.0,0.0,0.0,1.0,-0.129286889648,-0.0191536132812,-11.3197854492,1.0,0.0,0.0,0.0,1.0,0.0,0.0,0.0,1.0
1463662913026212609,562,1463662912368806290,,-4.09199666977,-4.01630306244,-153.887863159,0.0100969998166,1.0,0.0,0.0,0.0,1.0,0.0,0.0,0.0,1.0,1.58536589146,-22.8658542633,4.93902444839,1.0,0.0,0.0,0.0,1.0,0.0,0.0,0.0,1.0,-0.0335188255255,0.119710083008,-11.0660000732,1.0,0.0,0.0,0.0,1.0,0.0,0.0,0.0,1.0
1463662913026545802,563,1463662912379063306,,-4.09493589401,-4.18904066086,-153.820266724,0.0101199997589,1.0,0.0,0.0,0.0,1.0,0.0,0.0,0.0,1.0,2.07317066193,-21.4634151459,7.01219511032,1.0,0.0,0.0,0.0,1.0,0.0,0.0,0.0,1.0,-0.143652099609,0.220266552734,-11.4107651123,1.0,0.0,0.0,0.0,1.0,0.0,0.0,0.0,1.0
1463662913026865455,564,1463662912389010721,,-4.08057260513,-4.35208845139,-153.744750977,0.0100779999048,1.0,0.0,0.0,0.0,1.0,0.0,0.0,0.0,1.0,3.17073178291,-20.0,7.98780536652,1.0,0.0,0.0,0.0,1.0,0.0,0.0,0.0,1.0,-0.316034619141,0.0814028564453,-11.7890489746,1.0,0.0,0.0,0.0,1.0,0.0,0.0,0.0,1.0
1463662913027119907,565,1463662912399305076,,-4.04832553864,-4.5178976059,-153.668121338,0.0101110003889,1.0,0.0,0.0,0.0,1.0,0.0,0.0,0.0,1.0,4.81707286835,-19.0243911743,8.17073154449,1.0,0.0,0.0,0.0,1.0,0.0,0.0,0.0,1.0,-0.61770402832,0.0478840332031,-12.1290256104,1.0,0.0,0.0,0.0,1.0,0.0,0.0,0.0,1.0
1463662913027403522,566,1463662912409729835,,-4.0034828186,-4.68192529678,-153.596237183,0.0101420003921,1.0,0.0,0.0,0.0,1.0,0.0,0.0,0.0,1.0,6.34146356583,-17.2560977936,7.80487823486,1.0,0.0,0.0,0.0,1.0,0.0,0.0,0.0,1.0,-0.972045874023,0.105344873047,-12.0619879639,1.0,0.0,0.0,0.0,1.0,0.0,0.0,0.0,1.0
1463662913027659692,567,1463662912419491175,,-3.93538308144,-4.83889532089,-153.530456543,0.0100769996643,1.0,0.0,0.0,0.0,1.0,0.0,0.0,0.0,1.0,7.98780536652,-15.6707315445,7.43902492523,1.0,0.0,0.0,0.0,1.0,0.0,0.0,0.0,1.0,-1.19231249982,-0.0478840332031,-11.8800286377,1.0,0.0,0.0,0.0,1.0,0.0,0.0,0.0,1.0
1463662913031841323,568,1463662912429585084,,-3.86197900772,-4.98148965836,-153.459121704,0.0100919995457,1.0,0.0,0.0,0.0,1.0,0.0,0.0,0.0,1.0,8.23170757294,-12.8048782349,8.23170757294,1.0,0.0,0.0,0.0,1.0,0.0,0.0,0.0,1.0,-1.5083470459,-0.134075302102,-11.6789156982,1.0,0.0,0.0,0.0,1.0,0.0,0.0,0.0,1.0
1463662913032277683,569,1463662912439576191,,-3.7897207737,-5.08512067795,-153.387817383,0.0101009998471,1.0,0.0,0.0,0.0,1.0,0.0,0.0,0.0,1.0,8.71951198578,-9.51219558716,8.41463470459,1.0,0.0,0.0,0.0,1.0,0.0,0.0,0.0,1.0,-1.39821376953,-0.0239420166016,-11.5304751953,1.0,0.0,0.0,0.0,1.0,0.0,0.0,0.0,1.0
1463662913032582389,570,1463662912450051309,,-3.71793842316,-5.16031169891,-153.312240601,0.0101110003889,1.0,0.0,0.0,0.0,1.0,0.0,0.0,0.0,1.0,9.45121955872,-6.70731735229,8.96341514587,1.0,0.0,0.0,0.0,1.0,0.0,0.0,0.0,1.0,-1.37906015625,0.110133276367,-11.1952869629,1.0,0.0,0.0,0.0,1.0,0.0,0.0,0.0,1.0
1463662913032854912,571,1463662912459918367,,-3.64245510101,-5.20895719528,-153.230529785,0.010108999908,1.0,0.0,0.0,0.0,1.0,0.0,0.0,0.0,1.0,10.1829271317,-3.53658556938,9.75609779358,1.0,0.0,0.0,0.0,1.0,0.0,0.0,0.0,1.0,-1.44130939941,0.148440512063,-10.6829278076,1.0,0.0,0.0,0.0,1.0,0.0,0.0,0.0,1.0
1463662913033160400,572,1463662912470050136,,-3.57341837883,-5.21853017807,-153.140899658,0.010095000267,1.0,0.0,0.0,0.0,1.0,0.0,0.0,0.0,1.0,10.4878053665,-0.365853667259,10.6707315445,1.0,0.0,0.0,0.0,1.0,0.0,0.0,0.0,1.0,-1.2976572998,0.292092584273,-10.4530844482,1.0,0.0,0.0,0.0,1.0,0.0,0.0,0.0,1.0
1463662913034886515,573,1463662912480167948,,-3.49584889412,-5.19888496399,-153.032119751,0.0101290000603,1.0,0.0,0.0,0.0,1.0,0.0,0.0,0.0,1.0,11.9512195587,2.01219511032,12.6219520569,1.0,0.0,0.0,0.0,1.0,0.0,0.0,0.0,1.0,-1.17794714373,0.354341845703,-10.060435376,1.0,0.0,0.0,0.0,1.0,0.0,0.0,0.0,1.0
1463662913035227364,574,1463662912490442410,,-3.40890479088,-5.14963245392,-152.901245117,0.0100630000234,1.0,0.0,0.0,0.0,1.0,0.0,0.0,0.0,1.0,12.1341466904,4.75609779358,15.1219511032,1.0,0.0,0.0,0.0,1.0,0.0,0.0,0.0,1.0,-1.10133276367,0.15322890625,-9.56244201519,1.0,0.0,0.0,0.0,1.0,0.0,0.0,0.0,1.0
1463662913035491606,575,1463662912500397376,,-3.32774567604,-5.06569242477,-152.740249634,0.0101279998198,1.0,0.0,0.0,0.0,1.0,0.0,0.0,0.0,1.0,11.1585359573,7.07317113876,18.1707305908,1.0,0.0,0.0,0.0,1.0,0.0,0.0,0.0,1.0,-0.92416184082,0.0383072265625,-9.45230756977,1.0,0.0,0.0,0.0,1.0,0.0,0.0,0.0,1.0
1463662913035798760,576,1463662912511855668,,-3.24610543251,-4.94622898102,-152.54359436,0.0108359996229,1.0,0.0,0.0,0.0,1.0,0.0,0.0,0.0,1.0,10.3658542633,8.04878044128,20.4878044128,1.0,0.0,0.0,0.0,1.0,0.0,0.0,0.0,1.0,-0.61770402832,-0.0526724365234,-9.23683000488,1.0,0.0,0.0,0.0,1.0,0.0,0.0,0.0,1.0
1463662913036079042,577,1463662912520570299,,-3.19539117813,-4.82842254639,-152.355926514,0.00935999955982,1.0,0.0,0.0,0.0,1.0,0.0,0.0,0.0,1.0,9.75609779358,8.35365867615,22.2560977936,1.0,0.0,0.0,0.0,1.0,0.0,0.0,0.0,1.0,-0.397437475586,0.15801730957,-9.02614025879,1.0,0.0,0.0,0.0,1.0,0.0,0.0,0.0,1.0
1463662913036337244,578,1463662912530898140,,-3.16085004807,-4.76215457916,-152.122619629,0.0100600002334,1.0,0.0,0.0,0.0,1.0,0.0,0.0,0.0,1.0,8.23170757294,7.62195110321,25.3048782349,1.0,0.0,0.0,0.0,1.0,0.0,0.0,0.0,1.0,-1.20188930646,0.177170922852,-8.67658681641,1.0,0.0,0.0,0.0,1.0,0.0,0.0,0.0,1.0
1463662913036616068,579,1463662912540759158,,-3.13446378708,-4.62503290176,-151.884277344,0.0102220000699,1.0,0.0,0.0,0.0,1.0,0.0,0.0,0.0,1.0,8.96341514587,6.82926845551,25.2439041138,1.0,0.0,0.0,0.0,1.0,0.0,0.0,0.0,1.0,-0.0143652099609,0.411802685547,-8.44674287251,1.0,0.0,0.0,0.0,1.0,0.0,0.0,0.0,1.0
1463662913036886143,580,1463662912550828225,,-3.09173631668,-4.50230503082,-151.649307251,0.0100419996306,1.0,0.0,0.0,0.0,1.0,0.0,0.0,0.0,1.0,10.2439022064,7.07317113876,25.3658542633,1.0,0.0,0.0,0.0,1.0,0.0,0.0,0.0,1.0,-0.201112939453,0.344765039063,-8.18816967773,1.0,0.0,0.0,0.0,1.0,0.0,0.0,0.0,1.0
1463662913037156947,581,1463662912560800220,,-3.03109264374,-4.39396333694,-151.410125732,0.0100640002638,1.0,0.0,0.0,0.0,1.0,0.0,0.0,0.0,1.0,11.5853662491,5.48780488968,25.6707324982,1.0,0.0,0.0,0.0,1.0,0.0,0.0,0.0,1.0,-0.15801730957,0.268150604204,-7.87692346191,1.0,0.0,0.0,0.0,1.0,0.0,0.0,0.0,1.0
1463662913037443062,582,1463662912570994170,,-2.95552372932,-4.28552103043,-151.165908813,0.0101600000635,1.0,0.0,0.0,0.0,1.0,0.0,0.0,0.0,1.0,12.3170728683,4.20731735229,25.9146347046,1.0,0.0,0.0,0.0,1.0,0.0,0.0,0.0,1.0,0.0239420166016,0.162805712891,-7.62792648926,1.0,0.0,0.0,0.0,1.0,0.0,0.0,0.0,1.0
1463662913038711987,583,1463662912581109899,,-2.8821015358,-4.18715286255,-150.928985596,0.0100309997797,1.0,0.0,0.0,0.0,1.0,0.0,0.0,0.0,1.0,12.5,2.31707310677,25.3658542633,1.0,0.0,0.0,0.0,1.0,0.0,0.0,0.0,1.0,0.186747729492,0.205901342773,-7.72369455566,1.0,0.0,0.0,0.0,1.0,0.0,0.0,0.0,1.0
1463662913039044347,584,1463662912591228389,,-2.79403877258,-4.11772727966,-150.687698364,0.010098000057,1.0,0.0,0.0,0.0,1.0,0.0,0.0,0.0,1.0,12.3170728683,-0.487804889679,25.6097564697,1.0,0.0,0.0,0.0,1.0,0.0,0.0,0.0,1.0,0.186747729492,-0.0191536132812,-7.77636699219,1.0,0.0,0.0,0.0,1.0,0.0,0.0,0.0,1.0
1463662913042782536,585,1463662912601286103,,-2.70344519615,-4.07276105881,-150.451904297,0.010106000118,1.0,0.0,0.0,0.0,1.0,0.0,0.0,0.0,1.0,11.6463422775,-2.74390244484,25.0,1.0,0.0,0.0,0.0,1.0,0.0,0.0,0.0,1.0,0.181959326172,-0.148440512063,-7.77636699219,1.0,0.0,0.0,0.0,1.0,0.0,0.0,0.0,1.0
1463662913043160985,586,1463662912612061657,,-2.61888647079,-4.0515666008,-150.202072144,0.0107249999419,1.0,0.0,0.0,0.0,1.0,0.0,0.0,0.0,1.0,9.93902492523,-5.48780488968,24.8780498505,1.0,0.0,0.0,0.0,1.0,0.0,0.0,0.0,1.0,0.234631762695,-0.248996972656,-7.8960770752,1.0,0.0,0.0,0.0,1.0,0.0,0.0,0.0,1.0
1463662913043424654,587,1463662912621840496,,-2.55558443069,-4.05378055573,-149.975570679,0.00949999969453,1.0,0.0,0.0,0.0,1.0,0.0,0.0,0.0,1.0,7.86585378647,-8.17073154449,25.3658542633,1.0,0.0,0.0,0.0,1.0,0.0,0.0,0.0,1.0,0.31124621582,-0.392649072266,-8.04451757812,1.0,0.0,0.0,0.0,1.0,0.0,0.0,0.0,1.0
1463662913043709572,588,1463662912631912688,,-2.51200795174,-4.08550071716,-149.732681274,0.0100729996338,1.0,0.0,0.0,0.0,1.0,0.0,0.0,0.0,1.0,5.18292713165,-10.8536586761,25.5487804413,1.0,0.0,0.0,0.0,1.0,0.0,0.0,0.0,1.0,0.282515795898,-0.45968671875,-8.13549724121,1.0,0.0,0.0,0.0,1.0,0.0,0.0,0.0,1.0
1463662913043978188,589,1463662912641731730,,-2.47751069069,-4.15538024902,-149.479278564,0.0101070003584,1.0,0.0,0.0,0.0,1.0,0.0,0.0,0.0,1.0,1.76829278469,-13.4146347046,26.5853652954,1.0,0.0,0.0,0.0,1.0,0.0,0.0,0.0,1.0,0.105344873047,-0.866701000977,-8.36055161274,1.0,0.0,0.0,0.0,1.0,0.0,0.0,0.0,1.0
1463662913044248003,590,1463662912651919431,,-2.48020935059,-4.25730466843,-149.211502075,0.0101600000635,1.0,0.0,0.0,0.0,1.0,0.0,0.0,0.0,1.0,-3.71951246262,-15.4268302917,27.9268302917,1.0,0.0,0.0,0.0,1.0,0.0,0.0,0.0,1.0,-0.076614453125,-1.19710090314,-8.58560773784,1.0,0.0,0.0,0.0,1.0,0.0,0.0,0.0,1.0
1463662913044508391,591,1463662912663187067,,-2.54838824272,-4.38498783112,-148.901565552,0.0109529998153,1.0,0.0,0.0,0.0,1.0,0.0,0.0,0.0,1.0,-10.7926826477,-17.2560977936,29.8780498505,1.0,0.0,0.0,0.0,1.0,0.0,0.0,0.0,1.0,-0.076614453125,-1.44609780273,-8.84896933594,1.0,0.0,0.0,0.0,1.0,0.0,0.0,0.0,1.0
1463662913044806797,592,1463662912671987209,,-2.6697871685,-4.50696182251,-148.62298584,0.00918199960142,1.0,0.0,0.0,0.0,1.0,0.0,0.0,0.0,1.0,-17.8658542633,-19.3902435303,31.8292694092,1.0,0.0,0.0,0.0,1.0,0.0,0.0,0.0,1.0,-0.0383072265625,-1.5322890625,-9.13627353516,1.0,0.0,0.0,0.0,1.0,0.0,0.0,0.0,1.0
1463662913045070779,593,1463662912681996700,,-2.88572788239,-4.66412448883,-148.298522949,0.010111999698,1.0,0.0,0.0,0.0,1.0,0.0,0.0,0.0,1.0,-25.7317085266,-21.7682933807,33.4146347046,1.0,0.0,0.0,0.0,1.0,0.0,0.0,0.0,1.0,-0.067037651051,-1.53707746582,-9.33259748677,1.0,0.0,0.0,0.0,1.0,0.0,0.0,0.0,1.0
1463662913045338406,594,1463662912692158101,,-3.18885445595,-4.84078979492,-147.949111938,0.0100870002061,1.0,0.0,0.0,0.0,1.0,0.0,0.0,0.0,1.0,-33.5365867615,-23.7195129395,35.7317085266,1.0,0.0,0.0,0.0,1.0,0.0,0.0,0.0,1.0,-0.148440512063,-1.44609780273,-9.64863327495,1.0,0.0,0.0,0.0,1.0,0.0,0.0,0.0,1.0
1463662913045608637,595,1463662912702161134,,-3.57246732712,-5.04754734039,-147.57409668,0.0101209999993,1.0,0.0,0.0,0.0,1.0,0.0,0.0,0.0,1.0,-40.7926826477,-26.0365848541,37.865852356,1.0,0.0,0.0,0.0,1.0,0.0,0.0,0.0,1.0,-0.344765039063,-1.35990654297,-9.75397756348,1.0,0.0,0.0,0.0,1.0,0.0,0.0,0.0,1.0
1463662913045923603,596,1463662912712331389,,-4.0287566185,-5.26693677902,-147.188323975,0.0100870002061,1.0,0.0,0.0,0.0,1.0,0.0,0.0,0.0,1.0,-46.8902435303,-27.5,38.7195129395,1.0,0.0,0.0,0.0,1.0,0.0,0.0,0.0,1.0,-0.421379492187,-1.13006318359,-9.88326445312,1.0,0.0,0.0,0.0,1.0,0.0,0.0,0.0,1.0
1463662913046200240,597,1463662912722499352,,-4.5626540184,-5.48773241043,-146.781005859,0.0101579995826,1.0,0.0,0.0,0.0,1.0,0.0,0.0,0.0,1.0,-52.317073822,-29.0243911743,40.1219520569,1.0,0.0,0.0,0.0,1.0,0.0,0.0,0.0,1.0,-0.268150604204,-0.76135612793,-9.81143840332,1.0,0.0,0.0,0.0,1.0,0.0,0.0,0.0,1.0
1463662913049524307,598,1463662912732570972,,-5.14655590057,-5.69356155396,-146.359771729,0.0100490003824,1.0,0.0,0.0,0.0,1.0,0.0,0.0,0.0,1.0,-55.2439041138,-31.5243930817,41.2804908752,1.0,0.0,0.0,0.0,1.0,0.0,0.0,0.0,1.0,0.248996972656,-0.258573779297,-9.56244201519,1.0,0.0,0.0,0.0,1.0,0.0,0.0,0.0,1.0
1463662913049917598,599,1463662912742728207,,-5.76547384262,-5.90632486343,-145.918106079,0.010108999908,1.0,0.0,0.0,0.0,1.0,0.0,0.0,0.0,1.0,-55.182926178,-35.2439041138,42.134147644,1.0,0.0,0.0,0.0,1.0,0.0,0.0,0.0,1.0,0.651222851562,0.320823022461,-9.47624958638,1.0,0.0,0.0,0.0,1.0,0.0,0.0,0.0,1.0
1463662913051162672,600,1463662912753132082,,-6.37970304489,-6.16367769241,-145.456787109,0.0100910002366,1.0,0.0,0.0,0.0,1.0,0.0,0.0,0.0,1.0,-51.7682952881,-39.1463432312,43.1097564697,1.0,0.0,0.0,0.0,1.0,0.0,0.0,0.0,1.0,0.421379492187,0.881066210937,-9.52892319194,1.0,0.0,0.0,0.0,1.0,0.0,0.0,0.0,1.0
1463662913051493261,601,1463662912762960915,,-6.93491506577,-6.47385311127,-144.989440918,0.0101020000875,1.0,0.0,0.0,0.0,1.0,0.0,0.0,0.0,1.0,-45.6097564697,-42.6219520569,42.8658561707,1.0,0.0,0.0,0.0,1.0,0.0,0.0,0.0,1.0,0.00478840332031,0.991199487305,-9.65342167827,1.0,0.0,0.0,0.0,1.0,0.0,0.0,0.0,1.0
1463662913051764430,602,1463662912773006443,,-7.45629501343,-6.84592103958,-144.499053955,0.0101100001484,1.0,0.0,0.0,0.0,1.0,0.0,0.0,0.0,1.0,-41.8902435303,-43.7804870605,44.5731735229,1.0,0.0,0.0,0.0,1.0,0.0,0.0,0.0,1.0,-1.06302561017,1.10133276367,-10.1226846191,1.0,0.0,0.0,0.0,1.0,0.0,0.0,0.0,1.0
1463662913054395291,603,1463662912783034422,,-7.83734083176,-7.24384593964,-144.029296875,0.0100830001757,1.0,0.0,0.0,0.0,1.0,0.0,0.0,0.0,1.0,-34.3902435303,-42.317073822,43.2926864624,1.0,0.0,0.0,0.0,1.0,0.0,0.0,0.0,1.0,-1.94409174805,0.0191536132812,-10.3429511719,1.0,0.0,0.0,0.0,1.0,0.0,0.0,0.0,1.0
1463662913054749680,604,1463662912793197594,,-8.21365642548,-7.61865520477,-143.549789429,0.010108999908,1.0,0.0,0.0,0.0,1.0,0.0,0.0,0.0,1.0,-32.9878044128,-39.390247345,44.2682914734,1.0,0.0,0.0,0.0,1.0,0.0,0.0,0.0,1.0,-2.24576115723,0.162805712891,-10.5488525146,1.0,0.0,0.0,0.0,1.0,0.0,0.0,0.0,1.0
1463662913055026317,605,1463662912803283795,,-8.55918121338,-7.91723203659,-143.072174072,0.010095000267,1.0,0.0,0.0,0.0,1.0,0.0,0.0,0.0,1.0,-31.341463089,-35.4878044128,44.7560997009,1.0,0.0,0.0,0.0,1.0,0.0,0.0,0.0,1.0,-1.71903679199,-0.067037651051,-10.7882726807,1.0,0.0,0.0,0.0,1.0,0.0,0.0,0.0,1.0
1463662913055292226,606,1463662912813414158,,-8.89646911621,-8.17410755157,-142.586242676,0.0101340003312,1.0,0.0,0.0,0.0,1.0,0.0,0.0,0.0,1.0,-28.8414649963,-35.9756088257,45.0,1.0,0.0,0.0,0.0,1.0,0.0,0.0,0.0,1.0,-0.9193734375,0.248996972656,-10.6302553711,1.0,0.0,0.0,0.0,1.0,0.0,0.0,0.0,1.0
1463662913055611774,607,1463662912823439793,,-9.22083568573,-8.39021110535,-142.098709106,0.0100649995729,1.0,0.0,0.0,0.0,1.0,0.0,0.0,0.0,1.0,-24.5731716156,-36.8902435303,44.7560997009,1.0,0.0,0.0,0.0,1.0,0.0,0.0,0.0,1.0,-0.114921679688,0.852335791016,-10.314220752,1.0,0.0,0.0,0.0,1.0,0.0,0.0,0.0,1.0
1463662913055901014,608,1463662912833644315,,-9.51038360596,-8.65305233002,-141.593963623,0.0101260002702,1.0,0.0,0.0,0.0,1.0,0.0,0.0,0.0,1.0,-18.3536586761,-39.7560997009,45.182926178,1.0,0.0,0.0,0.0,1.0,0.0,0.0,0.0,1.0,-0.502782348633,1.25935007324,-9.87368764648,1.0,0.0,0.0,0.0,1.0,0.0,0.0,0.0,1.0
1463662913058747060,609,1463662912843620736,,-9.71923923492,-8.95590305328,-141.101303101,0.0100790001452,1.0,0.0,0.0,0.0,1.0,0.0,0.0,0.0,1.0,-9.75609779358,-40.3658561707,43.8414649963,1.0,0.0,0.0,0.0,1.0,0.0,0.0,0.0,1.0,-1.13485158691,1.37906015625,-9.58159562847,1.0,0.0,0.0,0.0,1.0,0.0,0.0,0.0,1.0
1463662913059105407,610,1463662912853816717,,-9.84412193298,-9.29691410065,-140.610565186,0.0101159997284,1.0,0.0,0.0,0.0,1.0,0.0,0.0,0.0,1.0,-1.15853655338,-39.2073173523,43.5365867615,1.0,0.0,0.0,0.0,1.0,0.0,0.0,0.0,1.0,-1.98718737793,1.36948334961,-9.2942902602,1.0,0.0,0.0,0.0,1.0,0.0,0.0,0.0,1.0
1463662913060404225,611,1463662912863862714,,-9.90041160583,-9.61683750153,-140.129379272,0.0100910002366,1.0,0.0,0.0,0.0,1.0,0.0,0.0,0.0,1.0,5.73170757294,-34.3902435303,43.4756126404,1.0,0.0,0.0,0.0,1.0,0.0,0.0,0.0,1.0,-2.48039291992,1.35032973633,-9.07402429199,1.0,0.0,0.0,0.0,1.0,0.0,0.0,0.0,1.0
1463662913060821628,612,1463662912873980579,,-9.87423706055,-9.88968467712,-139.644805908,0.0101129999384,1.0,0.0,0.0,0.0,1.0,0.0,0.0,0.0,1.0,13.9024391174,-30.5487804413,44.390247345,1.0,0.0,0.0,0.0,1.0,0.0,0.0,0.0,1.0,-2.51391174316,1.37427175293,-9.50976957866,1.0,0.0,0.0,0.0,1.0,0.0,0.0,0.0,1.0
1463662913061107586,613,1463662912884108858,,-9.74450206757,-10.1123819351,-139.186279297,0.0100940000266,1.0,0.0,0.0,0.0,1.0,0.0,0.0,0.0,1.0,20.3048782349,-23.9634151459,43.7195129395,1.0,0.0,0.0,0.0,1.0,0.0,0.0,0.0,1.0,-2.74375510254,0.699106884766,-9.35175110005,1.0,0.0,0.0,0.0,1.0,0.0,0.0,0.0,1.0
1463662913061373079,614,1463662912894234170,,-9.55842208862,-10.2954645157,-138.737670898,0.0100959995762,1.0,0.0,0.0,0.0,1.0,0.0,0.0,0.0,1.0,24.3292694092,-19.0243911743,43.9024391174,1.0,0.0,0.0,0.0,1.0,0.0,0.0,0.0,1.0,-3.04542451172,0.416591088867,-9.73961235352,1.0,0.0,0.0,0.0,1.0,0.0,0.0,0.0,1.0
1463662913061637789,615,1463662912904301831,,-9.34226322174,-10.425661087,-138.304534912,0.010108999908,1.0,0.0,0.0,0.0,1.0,0.0,0.0,0.0,1.0,27.8048782349,-14.5731706619,42.9878044128,1.0,0.0,0.0,0.0,1.0,0.0,0.0,0.0,1.0,-2.91613762207,0.526724328702,-9.92636008301,1.0,0.0,0.0,0.0,1.0,0.0,0.0,0.0,1.0
1463662913061890575,616,1463662912914370639,,-9.07717037201,-10.4993600845,-137.898010254,0.0100990002975,1.0,0.0,0.0,0.0,1.0,0.0,0.0,0.0,1.0,29.6951236725,-10.548781395,41.5853652954,1.0,0.0,0.0,0.0,1.0,0.0,0.0,0.0,1.0,-2.53306535645,0.0191536132812,-9.88805285645,1.0,0.0,0.0,0.0,1.0,0.0,0.0,0.0,1.0
1463662913062144089,617,1463662912924494961,,-8.78885173798,-10.5405778885,-137.527023315,0.0101030003279,1.0,0.0,0.0,0.0,1.0,0.0,0.0,0.0,1.0,31.158536911,-6.58536624908,38.7804870605,1.0,0.0,0.0,0.0,1.0,0.0,0.0,0.0,1.0,-2.65756384277,-0.0718260498047,-10.2807019287,1.0,0.0,0.0,0.0,1.0,0.0,0.0,0.0,1.0
1463662913062408331,618,1463662912934674121,,-8.48616600037,-10.5512619019,-137.190658569,0.0101070003584,1.0,0.0,0.0,0.0,1.0,0.0,0.0,0.0,1.0,31.8902454376,-3.96341490746,35.7926826477,1.0,0.0,0.0,0.0,1.0,0.0,0.0,0.0,1.0,-2.45645090332,-0.129286889648,-10.2759135254,1.0,0.0,0.0,0.0,1.0,0.0,0.0,0.0,1.0
1463662913062661533,619,1463662912944696579,,-8.16986179352,-10.5339984894,-136.8881073,0.0100870002061,1.0,0.0,0.0,0.0,1.0,0.0,0.0,0.0,1.0,33.2926826477,-0.975609779358,32.865852356,1.0,0.0,0.0,0.0,1.0,0.0,0.0,0.0,1.0,-2.35589428746,-0.067037651051,-10.1705686523,1.0,0.0,0.0,0.0,1.0,0.0,0.0,0.0,1.0
1463662913062935722,620,1463662912954763928,,-7.83907842636,-10.4954595566,-136.61177063,0.0101180002093,1.0,0.0,0.0,0.0,1.0,0.0,0.0,0.0,1.0,33.7195129395,0.609756112099,30.4878044128,1.0,0.0,0.0,0.0,1.0,0.0,0.0,0.0,1.0,-2.06380183105,-0.186747729492,-9.7348239502,1.0,0.0,0.0,0.0,1.0,0.0,0.0,0.0,1.0
1463662913065011383,621,1463662912964929964,,-7.5145740509,-10.4440631866,-136.3543396,0.0100959995762,1.0,0.0,0.0,0.0,1.0,0.0,0.0,0.0,1.0,32.9268302917,2.92682933807,28.9634151459,1.0,0.0,0.0,0.0,1.0,0.0,0.0,0.0,1.0,-2.14520483363,-0.225054956055,-9.60553764507,1.0,0.0,0.0,0.0,1.0,0.0,0.0,0.0,1.0
1463662913065330151,622,1463662912975023300,,-7.18591594696,-10.378282547,-136.109222412,0.0101129999384,1.0,0.0,0.0,0.0,1.0,0.0,0.0,0.0,1.0,32.7439041138,4.45121955872,27.9268302917,1.0,0.0,0.0,0.0,1.0,0.0,0.0,0.0,1.0,-2.01591779785,-0.316034619141,-9.21288798828,1.0,0.0,0.0,0.0,1.0,0.0,0.0,0.0,1.0
1463662913066767391,623,1463662912985089399,,-6.86094045639,-10.291138649,-135.872924805,0.0100729996338,1.0,0.0,0.0,0.0,1.0,0.0,0.0,0.0,1.0,31.4634151459,5.85365867615,27.4390258789,1.0,0.0,0.0,0.0,1.0,0.0,0.0,0.0,1.0,-1.85311208496,-0.517147558594,-9.28471345356,1.0,0.0,0.0,0.0,1.0,0.0,0.0,0.0,1.0
1463662913069689211,624,1463662912995153884,,-6.55978822708,-10.1828241348,-135.627792358,0.0100929997861,1.0,0.0,0.0,0.0,1.0,0.0,0.0,0.0,1.0,29.2682933807,6.40243911743,28.2317066193,1.0,0.0,0.0,0.0,1.0,0.0,0.0,0.0,1.0,-1.61848032227,-0.555454785156,-9.56244201519,1.0,0.0,0.0,0.0,1.0,0.0,0.0,0.0,1.0
1463662913070039121,625,1463662913005276123,,-6.28688192368,-10.0566968918,-135.37727356,0.0101190004498,1.0,0.0,0.0,0.0,1.0,0.0,0.0,0.0,1.0,27.317073822,6.46341466904,28.475610733,1.0,0.0,0.0,0.0,1.0,0.0,0.0,0.0,1.0,-1.34075292969,-0.45489831543,-9.88326445312,1.0,0.0,0.0,0.0,1.0,0.0,0.0,0.0,1.0
1463662913070318726,626,1463662913015383520,,-6.01605176926,-9.92726993561,-135.135101318,0.0101009998471,1.0,0.0,0.0,0.0,1.0,0.0,0.0,0.0,1.0,25.975610733,5.18292713165,27.682926178,1.0,0.0,0.0,0.0,1.0,0.0,0.0,0.0,1.0,-1.00556469727,-0.684741674805,-10.0317049561,1.0,0.0,0.0,0.0,1.0,0.0,0.0,0.0,1.0
1463662913070570053,627,1463662913025583354,,-5.7764043808,-9.81527519226,-134.896240234,0.0101009998471,1.0,0.0,0.0,0.0,1.0,0.0,0.0,0.0,1.0,23.3536586761,2.19512200356,26.8902454376,1.0,0.0,0.0,0.0,1.0,0.0,0.0,0.0,1.0,-0.751779321289,-0.641646044922,-10.3573163818,1.0,0.0,0.0,0.0,1.0,0.0,0.0,0.0,1.0
1463662913070826848,628,1463662913035663879,,-5.60869407654,-9.69357013702,-134.639785767,0.0101009998471,1.0,0.0,0.0,0.0,1.0,0.0,0.0,0.0,1.0,19.6951236725,0.12195122242,27.8048782349,1.0,0.0,0.0,0.0,1.0,0.0,0.0,0.0,1.0,-0.205901342773,-0.0861912597656,-11.4825911621,1.0,0.0,0.0,0.0,1.0,0.0,0.0,0.0,1.0
1463662914545009078,629,1463662913045606242,,-5.40948677063,-9.65432548523,-134.411453247,0.0100999996066,1.0,0.0,0.0,0.0,1.0,0.0,0.0,0.0,1.0,20.6707324982,-4.57317066193,24.8780498505,1.0,0.0,0.0,0.0,1.0,0.0,0.0,0.0,1.0,-0.751779321289,-0.426167895508,-10.5727945312,1.0,0.0,0.0,0.0,1.0,0.0,0.0,0.0,1.0
1463662914545315034,630,1463662913055771965,,-5.21514701843,-9.63409137726,-134.205810547,0.0101079996675,1.0,0.0,0.0,0.0,1.0,0.0,0.0,0.0,1.0,21.4024391174,-6.46341466904,22.1951236725,1.0,0.0,0.0,0.0,1.0,0.0,0.0,0.0,1.0,-0.689530078125,-0.15322890625,-10.5823713379,1.0,0.0,0.0,0.0,1.0,0.0,0.0,0.0,1.0
1463662914545655102,631,1463662913066036064,,-5.00603628159,-9.66289234161,-134.013870239,0.010098000057,1.0,0.0,0.0,0.0,1.0,0.0,0.0,0.0,1.0,21.7682933807,-8.59756088257,20.8536586761,1.0,0.0,0.0,0.0,1.0,0.0,0.0,0.0,1.0,-1.20188930646,-0.378283862305,-10.9510783936,1.0,0.0,0.0,0.0,1.0,0.0,0.0,0.0,1.0
1463662914545944289,632,1463662913076090341,,-4.80389118195,-9.70121383667,-133.830352783,0.0101169999689,1.0,0.0,0.0,0.0,1.0,0.0,0.0,0.0,1.0,21.8902435303,-10.4268293381,19.6951236725,1.0,0.0,0.0,0.0,1.0,0.0,0.0,0.0,1.0,-1.00077629395,-0.220266552734,-10.912771167,1.0,0.0,0.0,0.0,1.0,0.0,0.0,0.0,1.0
1463662914546236862,633,1463662913086143682,,-4.60353803635,-9.74219036102,-133.654693604,0.0101020000875,1.0,0.0,0.0,0.0,1.0,0.0,0.0,0.0,1.0,23.475610733,-11.2804880142,18.5975627899,1.0,0.0,0.0,0.0,1.0,0.0,0.0,0.0,1.0,-0.871489404297,0.105344873047,-10.9319247803,1.0,0.0,0.0,0.0,1.0,0.0,0.0,0.0,1.0
1463662914546511519,634,1463662913096189314,,-4.38976621628,-9.80526828766,-133.483688354,0.0100699998438,1.0,0.0,0.0,0.0,1.0,0.0,0.0,0.0,1.0,25.2439041138,-14.1463422775,17.9268302917,1.0,0.0,0.0,0.0,1.0,0.0,0.0,0.0,1.0,-0.718260498047,0.148440512063,-10.7308118408,1.0,0.0,0.0,0.0,1.0,0.0,0.0,0.0,1.0
1463662914546784979,635,1463662913106364100,,-4.15971803665,-9.88361740112,-133.311141968,0.0101169999689,1.0,0.0,0.0,0.0,1.0,0.0,0.0,0.0,1.0,26.8902454376,-16.2804889679,17.8658542633,1.0,0.0,0.0,0.0,1.0,0.0,0.0,0.0,1.0,-0.598550451572,0.129286889648,-10.8265799072,1.0,0.0,0.0,0.0,1.0,0.0,0.0,0.0,1.0
1463662914547063803,636,1463662913116417492,,-3.9019985199,-9.99829673767,-133.132583618,0.0101150004193,1.0,0.0,0.0,0.0,1.0,0.0,0.0,0.0,1.0,28.5975608826,-18.9024391174,18.5365848541,1.0,0.0,0.0,0.0,1.0,0.0,0.0,0.0,1.0,-0.799663354492,-0.143652099609,-10.898405957,1.0,0.0,0.0,0.0,1.0,0.0,0.0,0.0,1.0
1463662914547315339,637,1463662913126511192,,-3.64254808426,-10.1308574677,-132.953155518,0.0100870002061,1.0,0.0,0.0,0.0,1.0,0.0,0.0,0.0,1.0,28.9024410248,-20.2439022064,18.658536911,1.0,0.0,0.0,0.0,1.0,0.0,0.0,0.0,1.0,-0.909796630859,-0.196324536133,-11.0420580566,1.0,0.0,0.0,0.0,1.0,0.0,0.0,0.0,1.0
1463662914547576561,638,1463662913136607340,,-3.38348484039,-10.2792520523,-132.759414673,0.0101239997894,1.0,0.0,0.0,0.0,1.0,0.0,0.0,0.0,1.0,28.9024410248,-21.8292694092,20.0,1.0,0.0,0.0,0.0,1.0,0.0,0.0,0.0,1.0,-0.909796630859,-0.272938989258,-10.8888291504,1.0,0.0,0.0,0.0,1.0,0.0,0.0,0.0,1.0
1463662914551160079,639,1463662913146714164,,-3.13988995552,-10.4279022217,-132.558639526,0.0100819999352,1.0,0.0,0.0,0.0,1.0,0.0,0.0,0.0,1.0,28.1097564697,-22.5,20.7317085266,1.0,0.0,0.0,0.0,1.0,0.0,0.0,0.0,1.0,-0.818816967773,-0.234631762695,-10.9031943604,1.0,0.0,0.0,0.0,1.0,0.0,0.0,0.0,1.0
1463662914551644089,640,1463662913156801876,,-2.90208220482,-10.5925769806,-132.343643188,0.0101129999384,1.0,0.0,0.0,0.0,1.0,0.0,0.0,0.0,1.0,27.2560977936,-24.3902435303,22.1341457367,1.0,0.0,0.0,0.0,1.0,0.0,0.0,0.0,1.0,-0.780509741211,-0.383072265625,-10.9606552002,1.0,0.0,0.0,0.0,1.0,0.0,0.0,0.0,1.0
1463662914551993895,641,1463662913167002491,,-2.69259262085,-10.7734975815,-132.122680664,0.0100889997557,1.0,0.0,0.0,0.0,1.0,0.0,0.0,0.0,1.0,25.4878044128,-26.0365848541,22.6219520569,1.0,0.0,0.0,0.0,1.0,0.0,0.0,0.0,1.0,-0.823605371094,-0.277727392578,-11.2383825928,1.0,0.0,0.0,0.0,1.0,0.0,0.0,0.0,1.0
1463662914553263758,642,1463662913177027085,,-2.48167610168,-10.9722137451,-131.900497437,0.0101020000875,1.0,0.0,0.0,0.0,1.0,0.0,0.0,0.0,1.0,24.2682933807,-27.9268302917,22.9878044128,1.0,0.0,0.0,0.0,1.0,0.0,0.0,0.0,1.0,-0.799663354492,-0.598550451572,-11.0516348633,1.0,0.0,0.0,0.0,1.0,0.0,0.0,0.0,1.0
1463662914553607315,643,1463662913187166718,,-2.29455137253,-11.1887874603,-131.680328369,0.0101429997012,1.0,0.0,0.0,0.0,1.0,0.0,0.0,0.0,1.0,22.2560977936,-29.0243911743,22.682926178,1.0,0.0,0.0,0.0,1.0,0.0,0.0,0.0,1.0,-0.957680664062,-0.574608398438,-11.2958434326,1.0,0.0,0.0,0.0,1.0,0.0,0.0,0.0,1.0
1463662914553933946,644,1463662913197229796,,-2.12028884888,-11.4143667221,-131.47442627,0.0100299995393,1.0,0.0,0.0,0.0,1.0,0.0,0.0,0.0,1.0,20.6707324982,-30.3048782349,21.6463432312,1.0,0.0,0.0,0.0,1.0,0.0,0.0,0.0,1.0,-0.952892260742,-0.689530078125,-11.3389390625,1.0,0.0,0.0,0.0,1.0,0.0,0.0,0.0,1.0
1463662914556335145,645,1463662913207404009,,-1.9545481205,-11.6635513306,-131.283340454,0.0101929996163,1.0,0.0,0.0,0.0,1.0,0.0,0.0,0.0,1.0,17.9878044128,-30.9146327972,20.2439022064,1.0,0.0,0.0,0.0,1.0,0.0,0.0,0.0,1.0,-1.2497732666,-1.00077629395,-11.3772462891,1.0,0.0,0.0,0.0,1.0,0.0,0.0,0.0,1.0
1463662914556692606,646,1463662913217510729,,-1.82502925396,-11.9190635681,-131.116912842,0.0101100001484,1.0,0.0,0.0,0.0,1.0,0.0,0.0,0.0,1.0,14.6341466904,-31.5243930817,17.9878044128,1.0,0.0,0.0,0.0,1.0,0.0,0.0,0.0,1.0,-1.36469494629,-0.967257470703,-11.7603185547,1.0,0.0,0.0,0.0,1.0,0.0,0.0,0.0,1.0
1463662914556981377,647,1463662913227521677,,-1.72873461246,-12.1760854721,-130.972122192,0.0100269997492,1.0,0.0,0.0,0.0,1.0,0.0,0.0,0.0,1.0,10.8536586761,-31.0975627899,16.158536911,1.0,0.0,0.0,0.0,1.0,0.0,0.0,0.0,1.0,-1.57538469238,-1.0534486574,-11.8369330078,1.0,0.0,0.0,0.0,1.0,0.0,0.0,0.0,1.0
1463662914557272908,648,1463662913237592880,,-1.65620231628,-12.4306221008,-130.852890015,0.0100919995457,1.0,0.0,0.0,0.0,1.0,0.0,0.0,0.0,1.0,9.02439117432,-31.5853652954,13.4146347046,1.0,0.0,0.0,0.0,1.0,0.0,0.0,0.0,1.0,-1.49398183594,-0.881066210937,-12.4690022461,1.0,0.0,0.0,0.0,1.0,0.0,0.0,0.0,1.0
1463662914557532880,649,1463662913247714911,,-1.60379803181,-12.6789636612,-130.771331787,0.0101129999384,1.0,0.0,0.0,0.0,1.0,0.0,0.0,0.0,1.0,6.95121955872,-28.475610733,9.75609779358,1.0,0.0,0.0,0.0,1.0,0.0,0.0,0.0,1.0,-1.98718737793,-0.713472094727,-11.9279126709,1.0,0.0,0.0,0.0,1.0,0.0,0.0,0.0,1.0
1463662914557796341,650,1463662913257828088,,-1.56922221184,-12.9121398926,-130.722091675,0.0101079996675,1.0,0.0,0.0,0.0,1.0,0.0,0.0,0.0,1.0,4.93902444839,-26.8292694092,6.64634132385,1.0,0.0,0.0,0.0,1.0,0.0,0.0,0.0,1.0,-2.02070620117,-0.622492431641,-11.7267997314,1.0,0.0,0.0,0.0,1.0,0.0,0.0,0.0,1.0
1463662914558054698,651,1463662913273031913,,-1.53329586983,-13.1138820648,-130.704483032,0.0100769996643,1.0,0.0,0.0,0.0,1.0,0.0,0.0,0.0,1.0,4.51219558716,-25.4268302917,3.65853667259,1.0,0.0,0.0,0.0,1.0,0.0,0.0,0.0,1.0,-1.70467158203,-0.603338854892,-11.750741748,1.0,0.0,0.0,0.0,1.0,0.0,0.0,0.0,1.0
1463662914559847994,652,1463662913277960495,,-1.48828411102,-13.2885379791,-130.715744019,0.0101600000635,1.0,0.0,0.0,0.0,1.0,0.0,0.0,0.0,1.0,4.45121955872,-23.7195129395,1.03658533096,1.0,0.0,0.0,0.0,1.0,0.0,0.0,0.0,1.0,-1.44130939941,-0.646434448242,-11.3437274658,1.0,0.0,0.0,0.0,1.0,0.0,0.0,0.0,1.0
1463662914563724710,653,1463662913288795313,,-1.43635034561,-13.4739542007,-130.761016846,0.0103179998696,1.0,0.0,0.0,0.0,1.0,0.0,0.0,0.0,1.0,4.75609779358,-22.9878044128,-2.19512200356,1.0,0.0,0.0,0.0,1.0,0.0,0.0,0.0,1.0,-1.76213242187,-0.560243188477,-11.286266626,1.0,0.0,0.0,0.0,1.0,0.0,0.0,0.0,1.0
1463662914564071548,654,1463662913298227158,,-1.38156330585,-13.6482639313,-130.818939209,0.00982800032943,1.0,0.0,0.0,0.0,1.0,0.0,0.0,0.0,1.0,5.06097555161,-21.0975627899,-3.59756112099,1.0,0.0,0.0,0.0,1.0,0.0,0.0,0.0,1.0,-2.14041643031,-0.550666381836,-11.3197854492,1.0,0.0,0.0,0.0,1.0,0.0,0.0,0.0,1.0
1463662914564371516,655,1463662913308428659,,-1.30610382557,-13.8193559647,-130.911026001,0.010098000057,1.0,0.0,0.0,0.0,1.0,0.0,0.0,0.0,1.0,6.09756088257,-18.2317085266,-6.58536624908,1.0,0.0,0.0,0.0,1.0,0.0,0.0,0.0,1.0,-2.64798703613,-0.598550451572,-11.5496288086,1.0,0.0,0.0,0.0,1.0,0.0,0.0,0.0,1.0
1463662914564663255,656,1463662913318491582,,-1.24009001255,-13.9367341995,-131.010345459,0.0100859999657,1.0,0.0,0.0,0.0,1.0,0.0,0.0,0.0,1.0,6.82926845551,-11.7682924271,-7.56097555161,1.0,0.0,0.0,0.0,1.0,0.0,0.0,0.0,1.0,-2.92092602539,-0.215478149414,-11.5017447754,1.0,0.0,0.0,0.0,1.0,0.0,0.0,0.0,1.0
1463662914564950828,657,1463662913330924560,,-1.15751636028,-13.9742889404,-131.141830444,0.0124070001766,1.0,0.0,0.0,0.0,1.0,0.0,0.0,0.0,1.0,7.86585378647,-5.91463422775,-8.41463470459,1.0,0.0,0.0,0.0,1.0,0.0,0.0,0.0,1.0,-2.26012636719,0.0143652099609,-11.0372696533,1.0,0.0,0.0,0.0,1.0,0.0,0.0,0.0,1.0
1463662914565226319,658,1463662913338541758,,-1.08756566048,-13.9647550583,-131.222869873,0.00780599983409,1.0,0.0,0.0,0.0,1.0,0.0,0.0,0.0,1.0,9.02439117432,-4.39024400711,-7.86585378647,1.0,0.0,0.0,0.0,1.0,0.0,0.0,0.0,1.0,-1.69509477539,-0.239420166016,-10.8648871338,1.0,0.0,0.0,0.0,1.0,0.0,0.0,0.0,1.0
1463662914565524985,659,1463662913348854028,,-0.980203866959,-13.9074382782,-131.319961548,0.010106000118,1.0,0.0,0.0,0.0,1.0,0.0,0.0,0.0,1.0,9.32926845551,-3.23170733452,-6.70731735229,1.0,0.0,0.0,0.0,1.0,0.0,0.0,0.0,1.0,-1.01992990723,-0.541089611728,-10.539275708,1.0,0.0,0.0,0.0,1.0,0.0,0.0,0.0,1.0
1463662914565787664,660,1463662913358955071,,-0.901035308838,-13.8410568237,-131.379440308,0.0101070003584,1.0,0.0,0.0,0.0,1.0,0.0,0.0,0.0,1.0,7.43902492523,-3.17073178291,-3.10975623131,1.0,0.0,0.0,0.0,1.0,0.0,0.0,0.0,1.0,-0.818816967773,-0.531512805087,-9.99818613281,1.0,0.0,0.0,0.0,1.0,0.0,0.0,0.0,1.0
1463662914566061958,661,1463662913369285048,,-0.84527271986,-13.7715616226,-131.404495239,0.0102089997381,1.0,0.0,0.0,0.0,1.0,0.0,0.0,0.0,1.0,5.42682933807,-3.90243911743,0.304878056049,1.0,0.0,0.0,0.0,1.0,0.0,0.0,0.0,1.0,-0.61770402832,-0.60812722168,-9.65342167827,1.0,0.0,0.0,0.0,1.0,0.0,0.0,0.0,1.0
1463662914566332553,662,1463662913379061700,,-0.813039243221,-13.7105712891,-131.394470215,0.00998700037599,1.0,0.0,0.0,0.0,1.0,0.0,0.0,0.0,1.0,3.96341490746,-4.02439022064,3.65853667259,1.0,0.0,0.0,0.0,1.0,0.0,0.0,0.0,1.0,-0.699106884766,-0.612915625,-9.43794235981,1.0,0.0,0.0,0.0,1.0,0.0,0.0,0.0,1.0
1463662914566609242,663,1463662913389373137,,-0.791201353073,-13.6635112762,-131.360214233,0.0100910002366,1.0,0.0,0.0,0.0,1.0,0.0,0.0,0.0,1.0,2.62195134163,-4.87804889679,6.15853643417,1.0,0.0,0.0,0.0,1.0,0.0,0.0,0.0,1.0,-0.794874951172,-0.76614453125,-9.4570959731,1.0,0.0,0.0,0.0,1.0,0.0,0.0,0.0,1.0
1463662914567994509,664,1463662913399336851,,-0.809208452702,-13.6290941238,-131.294418335,0.0101229995489,1.0,0.0,0.0,0.0,1.0,0.0,0.0,0.0,1.0,0.731707334518,-4.45121955872,8.84146404266,1.0,0.0,0.0,0.0,1.0,0.0,0.0,0.0,1.0,-1.06781401349,-0.531512805087,-9.29907866352,1.0,0.0,0.0,0.0,1.0,0.0,0.0,0.0,1.0
1463662914568304215,665,1463662913409385348,,-0.839614629745,-13.5878667831,-131.219421387,0.0100769996643,1.0,0.0,0.0,0.0,1.0,0.0,0.0,0.0,1.0,0.731707334518,-3.65853667259,9.51219558716,1.0,0.0,0.0,0.0,1.0,0.0,0.0,0.0,1.0,-1.11090957031,-0.363918652344,-9.54807680523,1.0,0.0,0.0,0.0,1.0,0.0,0.0,0.0,1.0
1463662914568558198,666,1463662913420662566,,-0.875711858273,-13.5637979507,-131.133239746,0.0110769998282,1.0,0.0,0.0,0.0,1.0,0.0,0.0,0.0,1.0,1.40243899822,-3.47560977936,9.63414573669,1.0,0.0,0.0,0.0,1.0,0.0,0.0,0.0,1.0,-1.44609780273,-0.210689746094,-9.39963513325,1.0,0.0,0.0,0.0,1.0,0.0,0.0,0.0,1.0
1463662914568827128,667,1463662913429970362,,-0.89147746563,-13.5528945923,-131.079116821,0.0091350004077,1.0,0.0,0.0,0.0,1.0,0.0,0.0,0.0,1.0,2.25609779358,-1.40243899822,7.92682981491,1.0,0.0,0.0,0.0,1.0,0.0,0.0,0.0,1.0,-1.98718737793,-0.253785375977,-9.5193463853,1.0,0.0,0.0,0.0,1.0,0.0,0.0,0.0,1.0
1463662914569086891,668,1463662913439622808,,-0.881884455681,-13.5599336624,-131.048614502,0.0100929997861,1.0,0.0,0.0,0.0,1.0,0.0,0.0,0.0,1.0,4.20731735229,2.01219511032,5.18292713165,1.0,0.0,0.0,0.0,1.0,0.0,0.0,0.0,1.0,-3.02627089844,-0.277727392578,-9.83538041992,1.0,0.0,0.0,0.0,1.0,0.0,0.0,0.0,1.0
1463662914569475703,669,1463662913450113653,,-0.874743044376,-13.5082426071,-131.034301758,0.0102049997076,1.0,0.0,0.0,0.0,1.0,0.0,0.0,0.0,1.0,5.79268312454,7.68292665482,3.17073178291,1.0,0.0,0.0,0.0,1.0,0.0,0.0,0.0,1.0,-3.1124621582,0.138863696289,-10.1897222656,1.0,0.0,0.0,0.0,1.0,0.0,0.0,0.0,1.0
1463662914569790409,670,1463662913460978208,,-0.80174934864,-13.3886232376,-131.071517944,0.0112290000543,1.0,0.0,0.0,0.0,1.0,0.0,0.0,0.0,1.0,8.90243911743,14.0243902206,-0.914634168148,1.0,0.0,0.0,0.0,1.0,0.0,0.0,0.0,1.0,-3.23696064453,-0.172382519531,-10.1897222656,1.0,0.0,0.0,0.0,1.0,0.0,0.0,0.0,1.0
1463662914570097146,671,1463662913470438383,,-0.704737961292,-13.2411661148,-131.140457153,0.00893300026655,1.0,0.0,0.0,0.0,1.0,0.0,0.0,0.0,1.0,10.3658542633,18.1097564697,-4.69512224197,1.0,0.0,0.0,0.0,1.0,0.0,0.0,0.0,1.0,-2.95444484863,-0.565031591797,-10.539275708,1.0,0.0,0.0,0.0,1.0,0.0,0.0,0.0,1.0
1463662914574232949,672,1463662913480201754,,-0.582836449146,-13.0203819275,-131.265029907,0.0100919995457,1.0,0.0,0.0,0.0,1.0,0.0,0.0,0.0,1.0,10.1219511032,21.4634151459,-9.08536529541,1.0,0.0,0.0,0.0,1.0,0.0,0.0,0.0,1.0,-2.4756045166,-0.651222851562,-10.3668931885,1.0,0.0,0.0,0.0,1.0,0.0,0.0,0.0,1.0
1463662914574597910,673,1463662913490605942,,-0.45500561595,-12.7583370209,-131.427474976,0.0100570004433,1.0,0.0,0.0,0.0,1.0,0.0,0.0,0.0,1.0,9.5731716156,24.0243911743,-12.7439022064,1.0,0.0,0.0,0.0,1.0,0.0,0.0,0.0,1.0,-2.16435844691,-0.756567724609,-10.5823713379,1.0,0.0,0.0,0.0,1.0,0.0,0.0,0.0,1.0
1463662914574864131,674,1463662913500427536,,-0.340243309736,-12.4943742752,-131.628036499,0.010111999698,1.0,0.0,0.0,0.0,1.0,0.0,0.0,0.0,1.0,8.29268264771,24.8780498505,-16.5853652954,1.0,0.0,0.0,0.0,1.0,0.0,0.0,0.0,1.0,-2.34631748082,-0.641646044922,-10.927136377,1.0,0.0,0.0,0.0,1.0,0.0,0.0,0.0,1.0
1463662914575160245,675,1463662913510787718,,-0.22574339807,-12.2213220596,-131.867584229,0.0101239997894,1.0,0.0,0.0,0.0,1.0,0.0,0.0,0.0,1.0,6.89024400711,26.2195129395,-20.2439022064,1.0,0.0,0.0,0.0,1.0,0.0,0.0,0.0,1.0,-2.3415290775,-0.775721337891,-10.6925046143,1.0,0.0,0.0,0.0,1.0,0.0,0.0,0.0,1.0
1463662914575448651,676,1463662913520756796,,-0.131720140576,-11.9129104614,-132.133132935,0.0100990002975,1.0,0.0,0.0,0.0,1.0,0.0,0.0,0.0,1.0,5.18292713165,29.1463413239,-23.0487823486,1.0,0.0,0.0,0.0,1.0,0.0,0.0,0.0,1.0,-2.14041643031,-0.641646044922,-10.5584293213,1.0,0.0,0.0,0.0,1.0,0.0,0.0,0.0,1.0
1463662914576733096,677,1463662913531013136,,-0.051398947835,-11.5915603638,-132.415466309,0.0100739998743,1.0,0.0,0.0,0.0,1.0,0.0,0.0,0.0,1.0,2.98780488968,29.0243911743,-24.6951236725,1.0,0.0,0.0,0.0,1.0,0.0,0.0,0.0,1.0,-1.74776721191,-0.756567724609,-10.2423947021,1.0,0.0,0.0,0.0,1.0,0.0,0.0,0.0,1.0
1463662914577042750,678,1463662913541043509,,-0.0197970159352,-11.2510223389,-132.695739746,0.0101819997653,1.0,0.0,0.0,0.0,1.0,0.0,0.0,0.0,1.0,-0.853658556938,29.9390258789,-24.4512195587,1.0,0.0,0.0,0.0,1.0,0.0,0.0,0.0,1.0,-1.51313544922,-0.598550451572,-9.83538041992,1.0,0.0,0.0,0.0,1.0,0.0,0.0,0.0,1.0
1463662914580590022,679,1463662913551353436,,-0.0263468902558,-10.9164009094,-132.967956543,0.010214000009,1.0,0.0,0.0,0.0,1.0,0.0,0.0,0.0,1.0,-4.2682929039,29.6951236725,-23.658536911,1.0,0.0,0.0,0.0,1.0,0.0,0.0,0.0,1.0,-1.52271225586,-0.598550451572,-9.77313117676,1.0,0.0,0.0,0.0,1.0,0.0,0.0,0.0,1.0
1463662914580964826,680,1463662913560839025,,-0.174555271864,-10.6163082123,-133.194869995,0.00988699961454,1.0,0.0,0.0,0.0,1.0,0.0,0.0,0.0,1.0,-11.1585359573,28.1707324982,-21.341463089,1.0,0.0,0.0,0.0,1.0,0.0,0.0,0.0,1.0,-1.73340200195,0.627280834961,-10.4818148682,1.0,0.0,0.0,0.0,1.0,0.0,0.0,0.0,1.0
1463662914581289322,681,1463662913571391062,,-0.244526654482,-10.2946767807,-133.450500488,0.0103059997782,1.0,0.0,0.0,0.0,1.0,0.0,0.0,0.0,1.0,-8.29268264771,28.7804889679,-22.1341457367,1.0,0.0,0.0,0.0,1.0,0.0,0.0,0.0,1.0,-1.4604630127,-0.292092584273,-9.44751916645,1.0,0.0,0.0,0.0,1.0,0.0,0.0,0.0,1.0
1463662914581580957,682,1463662913581138862,,-0.344248473644,-9.98919487,-133.701721191,0.00991200003773,1.0,0.0,0.0,0.0,1.0,0.0,0.0,0.0,1.0,-9.75609779358,26.8902454376,-22.9878044128,1.0,0.0,0.0,0.0,1.0,0.0,0.0,0.0,1.0,-1.13963999023,0.0239420166016,-9.40921193989,1.0,0.0,0.0,0.0,1.0,0.0,0.0,0.0,1.0
1463662914581874675,683,1463662913591252404,,-0.448892861605,-9.6875,-133.957778931,0.0101469997317,1.0,0.0,0.0,0.0,1.0,0.0,0.0,0.0,1.0,-10.1829271317,25.7926845551,-22.8048782349,1.0,0.0,0.0,0.0,1.0,0.0,0.0,0.0,1.0,-1.05823706072,-0.0143652099609,-9.2176763916,1.0,0.0,0.0,0.0,1.0,0.0,0.0,0.0,1.0
1463662914583597614,684,1463662913601188882,,-0.56333231926,-9.41294193268,-134.203704834,0.0100499996915,1.0,0.0,0.0,0.0,1.0,0.0,0.0,0.0,1.0,-11.2195119858,23.7804889679,-22.0121955872,1.0,0.0,0.0,0.0,1.0,0.0,0.0,0.0,1.0,-1.09175595703,-0.0335188255255,-9.42357714985,1.0,0.0,0.0,0.0,1.0,0.0,0.0,0.0,1.0
1463662914583954346,685,1463662913617781306,,-0.725108087063,-9.05297470093,-134.592041016,0.0154060004279,1.0,0.0,0.0,0.0,1.0,0.0,0.0,0.0,1.0,-10.6097564697,21.2195129395,-22.682926178,1.0,0.0,0.0,0.0,1.0,0.0,0.0,0.0,1.0,-1.32159931641,-0.067037651051,-9.80186159668,1.0,0.0,0.0,0.0,1.0,0.0,0.0,0.0,1.0
1463662914584243950,686,1463662913621439609,,-0.775945901871,-8.94177150726,-134.71522522,0.0047800000757,1.0,0.0,0.0,0.0,1.0,0.0,0.0,0.0,1.0,-10.6707315445,21.158536911,-23.2317085266,1.0,0.0,0.0,0.0,1.0,0.0,0.0,0.0,1.0,-1.27850368652,-0.0287304199219,-9.97424411621,1.0,0.0,0.0,0.0,1.0,0.0,0.0,0.0,1.0
1463662914584568551,687,1463662913631658973,,-0.886850714684,-8.73056221008,-134.979064941,0.010106000118,1.0,0.0,0.0,0.0,1.0,0.0,0.0,0.0,1.0,-10.8536586761,19.1463432312,-23.5975627899,1.0,0.0,0.0,0.0,1.0,0.0,0.0,0.0,1.0,-1.33596452637,0.00478840332031,-10.1322614258,1.0,0.0,0.0,0.0,1.0,0.0,0.0,0.0,1.0
1463662914584840396,688,1463662913641754131,,-0.993473947048,-8.53137874603,-135.256790161,0.0101150004193,1.0,0.0,0.0,0.0,1.0,0.0,0.0,0.0,1.0,-10.7926826477,18.3536586761,-24.8780498505,1.0,0.0,0.0,0.0,1.0,0.0,0.0,0.0,1.0,-1.40300217285,-0.0239420166016,-10.4482960449,1.0,0.0,0.0,0.0,1.0,0.0,0.0,0.0,1.0
1463662914586983081,689,1463662913651734719,,-1.09533762932,-8.34789085388,-135.545608521,0.0101110003889,1.0,0.0,0.0,0.0,1.0,0.0,0.0,0.0,1.0,-10.7926826477,17.134147644,-25.9146347046,1.0,0.0,0.0,0.0,1.0,0.0,0.0,0.0,1.0,-1.46525141602,-0.0814028564453,-10.8265799072,1.0,0.0,0.0,0.0,1.0,0.0,0.0,0.0,1.0
1463662914587330700,690,1463662913661968925,,-1.2039796114,-8.18371677399,-135.844238281,0.0100899999961,1.0,0.0,0.0,0.0,1.0,0.0,0.0,0.0,1.0,-11.8902444839,15.975610733,-26.8902454376,1.0,0.0,0.0,0.0,1.0,0.0,0.0,0.0,1.0,-1.56101948242,-0.129286889648,-10.8648871338,1.0,0.0,0.0,0.0,1.0,0.0,0.0,0.0,1.0
1463662914587672486,691,1463662913672012943,,-1.32973766327,-8.04646492004,-136.14465332,0.0100959995762,1.0,0.0,0.0,0.0,1.0,0.0,0.0,0.0,1.0,-13.3536586761,15.3048791885,-27.0731716156,1.0,0.0,0.0,0.0,1.0,0.0,0.0,0.0,1.0,-1.92014973145,-0.076614453125,-10.9175595703,1.0,0.0,0.0,0.0,1.0,0.0,0.0,0.0,1.0
1463662914587935999,692,1463662913682049202,,-1.45969581604,-7.92145872116,-136.453125,0.0101009998471,1.0,0.0,0.0,0.0,1.0,0.0,0.0,0.0,1.0,-14.3902444839,15.1219511032,-27.7439041138,1.0,0.0,0.0,0.0,1.0,0.0,0.0,0.0,1.0,-2.12126281703,-0.172382519531,-11.1186725098,1.0,0.0,0.0,0.0,1.0,0.0,0.0,0.0,1.0
1463662914588202897,693,1463662913692261379,,-1.60559439659,-7.79985380173,-136.766708374,0.0100809996948,1.0,0.0,0.0,0.0,1.0,0.0,0.0,0.0,1.0,-15.7926826477,15.975610733,-28.2926845551,1.0,0.0,0.0,0.0,1.0,0.0,0.0,0.0,1.0,-2.3415290775,-0.105344873047,-11.2383825928,1.0,0.0,0.0,0.0,1.0,0.0,0.0,0.0,1.0
1463662914588479378,694,1463662913702098388,,-1.7698315382,-7.66908502579,-137.075424194,0.0101100001484,1.0,0.0,0.0,0.0,1.0,0.0,0.0,0.0,1.0,-17.2560977936,17.3780498505,-27.682926178,1.0,0.0,0.0,0.0,1.0,0.0,0.0,0.0,1.0,-2.41814367676,-0.0430956298828,-11.2623246094,1.0,0.0,0.0,0.0,1.0,0.0,0.0,0.0,1.0
1463662914588794292,695,1463662913712264581,,-1.95547556877,-7.52456092834,-137.372344971,0.0101129999384,1.0,0.0,0.0,0.0,1.0,0.0,0.0,0.0,1.0,-17.5609760284,18.9634151459,-26.6463432312,1.0,0.0,0.0,0.0,1.0,0.0,0.0,0.0,1.0,-2.44687409668,0.316034619141,-11.3485158691,1.0,0.0,0.0,0.0,1.0,0.0,0.0,0.0,1.0
1463662914590787774,696,1463662913723131270,,-2.14925861359,-7.35307741165,-137.677383423,0.0108139999211,1.0,0.0,0.0,0.0,1.0,0.0,0.0,0.0,1.0,-16.9512195587,19.5731716156,-25.4268302917,1.0,0.0,0.0,0.0,1.0,0.0,0.0,0.0,1.0,-2.16435844691,0.335188232422,-11.137826123,1.0,0.0,0.0,0.0,1.0,0.0,0.0,0.0,1.0
1463662914592948426,697,1463662913732463282,,-2.31037950516,-7.19519996643,-137.918670654,0.0093769999221,1.0,0.0,0.0,0.0,1.0,0.0,0.0,0.0,1.0,-16.2195110321,19.9390239716,-22.8658542633,1.0,0.0,0.0,0.0,1.0,0.0,0.0,0.0,1.0,-1.96803376465,0.287304199219,-10.9223479736,1.0,0.0,0.0,0.0,1.0,0.0,0.0,0.0,1.0
1463662914594218966,698,1463662913742570783,,-2.51616978645,-7.01638507843,-138.14402771,0.0100659998134,1.0,0.0,0.0,0.0,1.0,0.0,0.0,0.0,1.0,-15.548781395,20.1219520569,-19.9390239716,1.0,0.0,0.0,0.0,1.0,0.0,0.0,0.0,1.0,-1.76213242187,0.976834277344,-10.6781394043,1.0,0.0,0.0,0.0,1.0,0.0,0.0,0.0,1.0
1463662914594524297,699,1463662913753067253,,-2.66075372696,-6.83223676682,-138.348236084,0.0105910003185,1.0,0.0,0.0,0.0,1.0,0.0,0.0,0.0,1.0,-12.9268293381,17.6829280853,-16.341463089,1.0,0.0,0.0,0.0,1.0,0.0,0.0,0.0,1.0,-1.32159931641,0.124498486328,-10.5009684814,1.0,0.0,0.0,0.0,1.0,0.0,0.0,0.0,1.0
1463662914594802652,700,1463662913762911292,,-2.84477758408,-6.65552854538,-138.514846802,0.00972499977797,1.0,0.0,0.0,0.0,1.0,0.0,0.0,0.0,1.0,-12.9268293381,16.8292694092,-14.8170728683,1.0,0.0,0.0,0.0,1.0,0.0,0.0,0.0,1.0,-0.972045874023,1.06781401349,-10.3285859619,1.0,0.0,0.0,0.0,1.0,0.0,0.0,0.0,1.0
1463662914595101266,701,1463662913772960466,,-2.96926021576,-6.4959731102,-138.632751465,0.0100269997492,1.0,0.0,0.0,0.0,1.0,0.0,0.0,0.0,1.0,-10.0,14.2073173523,-9.08536529541,1.0,0.0,0.0,0.0,1.0,0.0,0.0,0.0,1.0,-0.905008227539,0.31124621582,-10.2088758789,1.0,0.0,0.0,0.0,1.0,0.0,0.0,0.0,1.0
1463662914595373268,702,1463662913782964853,,-3.13455247879,-6.36654996872,-138.708267212,0.0101100001484,1.0,0.0,0.0,0.0,1.0,0.0,0.0,0.0,1.0,-10.2439022064,11.8292684555,-5.30487823486,1.0,0.0,0.0,0.0,1.0,0.0,0.0,0.0,1.0,-1.08217922346,0.948103857422,-10.5727945312,1.0,0.0,0.0,0.0,1.0,0.0,0.0,0.0,1.0
1463662914595645061,703,1463662913793246190,,-3.27271914482,-6.27602243423,-138.748748779,0.0101030003279,1.0,0.0,0.0,0.0,1.0,0.0,0.0,0.0,1.0,-8.90243911743,7.50000047684,-1.8902438879,1.0,0.0,0.0,0.0,1.0,0.0,0.0,0.0,1.0,-0.991199487305,0.646434448242,-10.4961800781,1.0,0.0,0.0,0.0,1.0,0.0,0.0,0.0,1.0
1463662914597825711,704,1463662913803193968,,-3.40421104431,-6.20860624313,-138.746704102,0.0101009998471,1.0,0.0,0.0,0.0,1.0,0.0,0.0,0.0,1.0,-8.23170757294,5.97560977936,2.25609779358,1.0,0.0,0.0,0.0,1.0,0.0,0.0,0.0,1.0,-1.17315874041,0.593762048251,-10.6063133545,1.0,0.0,0.0,0.0,1.0,0.0,0.0,0.0,1.0
1463662914598115159,705,1463662913813234185,,-3.53135991096,-6.18515777588,-138.706558228,0.0100910002366,1.0,0.0,0.0,0.0,1.0,0.0,0.0,0.0,1.0,-9.08536529541,3.35365867615,6.0365858078,1.0,0.0,0.0,0.0,1.0,0.0,0.0,0.0,1.0,-1.54665427246,0.301669427446,-10.7068698242,1.0,0.0,0.0,0.0,1.0,0.0,0.0,0.0,1.0
1463662914598378412,706,1463662913823494899,,-3.67680191994,-6.15630722046,-138.633911133,0.0101330000907,1.0,0.0,0.0,0.0,1.0,0.0,0.0,0.0,1.0,-8.47560977936,2.01219511032,8.90243911743,1.0,0.0,0.0,0.0,1.0,0.0,0.0,0.0,1.0,-1.17315874041,0.684741674805,-10.2615483154,1.0,0.0,0.0,0.0,1.0,0.0,0.0,0.0,1.0
1463662914601291378,707,1463662913833611513,,-3.8178832531,-6.14745759964,-138.526916504,0.0100699998438,1.0,0.0,0.0,0.0,1.0,0.0,0.0,0.0,1.0,-8.04878044128,1.2804877758,12.3170728683,1.0,0.0,0.0,0.0,1.0,0.0,0.0,0.0,1.0,-1.40300217285,0.641646044922,-9.99339772949,1.0,0.0,0.0,0.0,1.0,0.0,0.0,0.0,1.0
1463662914601759400,708,1463662913843751511,,-3.95315337181,-6.13870954514,-138.376678467,0.0101039996371,1.0,0.0,0.0,0.0,1.0,0.0,0.0,0.0,1.0,-8.65853691101,-0.609756112099,16.5853652954,1.0,0.0,0.0,0.0,1.0,0.0,0.0,0.0,1.0,-1.11569797363,0.363918652344,-9.95509050293,1.0,0.0,0.0,0.0,1.0,0.0,0.0,0.0,1.0
1463662914602513642,709,1463662913854034930,,-4.10551166534,-6.15871477127,-138.193222046,0.0101260002702,1.0,0.0,0.0,0.0,1.0,0.0,0.0,0.0,1.0,-9.87804889679,-2.92682933807,19.6341457367,1.0,0.0,0.0,0.0,1.0,0.0,0.0,0.0,1.0,-1.20667770978,0.387860668945,-9.57680722515,1.0,0.0,0.0,0.0,1.0,0.0,0.0,0.0,1.0
1463662914610056107,710,1463662913863727163,,-4.35451221466,-6.23647594452,-137.966674805,0.0100630000234,1.0,0.0,0.0,0.0,1.0,0.0,0.0,0.0,1.0,-12.9268293381,-5.60975599289,23.1097564697,1.0,0.0,0.0,0.0,1.0,0.0,0.0,0.0,1.0,-2.04464821777,1.67594116211,-10.778695874,1.0,0.0,0.0,0.0,1.0,0.0,0.0,0.0,1.0
1463662914610573291,711,1463662913873942257,,-4.5306019783,-6.30375862122,-137.707824707,0.0101260002702,1.0,0.0,0.0,0.0,1.0,0.0,0.0,0.0,1.0,-7.50000047684,-4.39024400711,26.4634151459,1.0,0.0,0.0,0.0,1.0,0.0,0.0,0.0,1.0,-1.67594116211,0.991199487305,-8.41322404927,1.0,0.0,0.0,0.0,1.0,0.0,0.0,0.0,1.0
1463662914612665877,712,1463662913883999190,,-4.69514465332,-6.4066157341,-137.426971436,0.0100880004466,1.0,0.0,0.0,0.0,1.0,0.0,0.0,0.0,1.0,-5.30487823486,-5.36585378647,28.5365848541,1.0,0.0,0.0,0.0,1.0,0.0,0.0,0.0,1.0,-2.35589428746,1.26892687988,-9.27034882812,1.0,0.0,0.0,0.0,1.0,0.0,0.0,0.0,1.0
1463662914613127442,713,1463662913894331563,,-4.77933740616,-6.45183038712,-137.134490967,0.0101239997894,1.0,0.0,0.0,0.0,1.0,0.0,0.0,0.0,1.0,-3.41463422775,-2.13414645195,30.5487804413,1.0,0.0,0.0,0.0,1.0,0.0,0.0,0.0,1.0,-1.96324536133,0.229843359375,-9.30865547017,1.0,0.0,0.0,0.0,1.0,0.0,0.0,0.0,1.0
1463662914616281216,714,1463662913904245751,,-4.88481044769,-6.51051092148,-136.823776245,0.0100880004466,1.0,0.0,0.0,0.0,1.0,0.0,0.0,0.0,1.0,-1.2804877758,1.8292683363,32.317073822,1.0,0.0,0.0,0.0,1.0,0.0,0.0,0.0,1.0,-2.96881005859,0.933738647461,-9.32302068013,1.0,0.0,0.0,0.0,1.0,0.0,0.0,0.0,1.0
1463662914616611284,715,1463662913914373667,,-4.95028448105,-6.53740119934,-136.503967285,0.0100969998166,1.0,0.0,0.0,0.0,1.0,0.0,0.0,0.0,1.0,1.52439022064,1.95121955872,33.3536605835,1.0,0.0,0.0,0.0,1.0,0.0,0.0,0.0,1.0,-2.48518132324,0.737414111328,-9.46667277974,1.0,0.0,0.0,0.0,1.0,0.0,0.0,0.0,1.0
1463662914617940620,716,1463662913924460024,,-4.95820951462,-6.52055025101,-136.198699951,0.0101039996371,1.0,0.0,0.0,0.0,1.0,0.0,0.0,0.0,1.0,5.06097555161,3.96341490746,32.317073822,1.0,0.0,0.0,0.0,1.0,0.0,0.0,0.0,1.0,-2.07816689489,0.407014282227,-9.56723041851,1.0,0.0,0.0,0.0,1.0,0.0,0.0,0.0,1.0
1463662914620161838,717,1463662913934585700,,-4.94188499451,-6.50429439545,-135.899337769,0.010106000118,1.0,0.0,0.0,0.0,1.0,0.0,0.0,0.0,1.0,7.31707334518,2.86585378647,31.6463413239,1.0,0.0,0.0,0.0,1.0,0.0,0.0,0.0,1.0,-1.90099611816,0.402225878906,-9.66778688823,1.0,0.0,0.0,0.0,1.0,0.0,0.0,0.0,1.0
1463662914628451619,718,1463662913944626854,,-4.91478300095,-6.46437215805,-135.618545532,0.0101020000875,1.0,0.0,0.0,0.0,1.0,0.0,0.0,0.0,1.0,9.51219558716,2.37804889679,29.6341457367,1.0,0.0,0.0,0.0,1.0,0.0,0.0,0.0,1.0,-1.38863696289,0.646434448242,-9.79707319336,1.0,0.0,0.0,0.0,1.0,0.0,0.0,0.0,1.0
1463662914628766116,719,1463662913954728054,,-4.87263584137,-6.44629526138,-135.354187012,0.0101140001789,1.0,0.0,0.0,0.0,1.0,0.0,0.0,0.0,1.0,11.9512195587,0.365853667259,27.682926178,1.0,0.0,0.0,0.0,1.0,0.0,0.0,0.0,1.0,-1.35990654297,0.833182177734,-9.65342167827,1.0,0.0,0.0,0.0,1.0,0.0,0.0,0.0,1.0
1463662914629057803,720,1463662913965011525,,-4.79437923431,-6.44233512878,-135.098892212,0.0101190004498,1.0,0.0,0.0,0.0,1.0,0.0,0.0,0.0,1.0,14.7560987473,-1.34146344662,26.7073173523,1.0,0.0,0.0,0.0,1.0,0.0,0.0,0.0,1.0,-1.22583125,0.679953271484,-9.22246479492,1.0,0.0,0.0,0.0,1.0,0.0,0.0,0.0,1.0
1463662914629429898,721,1463662913975135431,,-4.69772052765,-6.45696401596,-134.846908569,0.0101789999753,1.0,0.0,0.0,0.0,1.0,0.0,0.0,0.0,1.0,15.7317075729,-2.56097555161,26.2195129395,1.0,0.0,0.0,0.0,1.0,0.0,0.0,0.0,1.0,-1.26892687988,0.526724328702,-8.91600698242,1.0,0.0,0.0,0.0,1.0,0.0,0.0,0.0,1.0
1463662914629740698,722,1463662913985091906,,-4.59633016586,-6.50121164322,-134.591842651,0.00998399965465,1.0,0.0,0.0,0.0,1.0,0.0,0.0,0.0,1.0,14.7560987473,-4.14634132385,27.0731716156,1.0,0.0,0.0,0.0,1.0,0.0,0.0,0.0,1.0,-1.4604630127,0.225054956055,-8.67658681641,1.0,0.0,0.0,0.0,1.0,0.0,0.0,0.0,1.0
1463662914630063371,723,1463662913995525309,,-4.50457859039,-6.55662202835,-134.325164795,0.010106000118,1.0,0.0,0.0,0.0,1.0,0.0,0.0,0.0,1.0,13.4756097794,-4.39024400711,27.9268302917,1.0,0.0,0.0,0.0,1.0,0.0,0.0,0.0,1.0,-1.59932670898,0.15801730957,-8.68137521973,1.0,0.0,0.0,0.0,1.0,0.0,0.0,0.0,1.0
1463662914630354538,724,1463662914005227281,,-4.43586874008,-6.60838699341,-134.051147461,0.0101250000298,1.0,0.0,0.0,0.0,1.0,0.0,0.0,0.0,1.0,11.6463422775,-5.42682933807,28.475610733,1.0,0.0,0.0,0.0,1.0,0.0,0.0,0.0,1.0,-1.40779057617,0.205901342773,-8.80587370605,1.0,0.0,0.0,0.0,1.0,0.0,0.0,0.0,1.0
1463662914630659765,725,1463662914015407066,,-4.3610086441,-6.66419315338,-133.789749146,0.0100710000843,1.0,0.0,0.0,0.0,1.0,0.0,0.0,0.0,1.0,11.7073173523,-6.15853643417,27.3780498505,1.0,0.0,0.0,0.0,1.0,0.0,0.0,0.0,1.0,-1.35511813965,0.119710083008,-8.84896933594,1.0,0.0,0.0,0.0,1.0,0.0,0.0,0.0,1.0
1463662914630926716,726,1463662914025641376,,-4.27674007416,-6.72009706497,-133.539337158,0.0101020000875,1.0,0.0,0.0,0.0,1.0,0.0,0.0,0.0,1.0,10.3658542633,-7.98780536652,26.3414649963,1.0,0.0,0.0,0.0,1.0,0.0,0.0,0.0,1.0,-1.07739082014,-0.234631762695,-9.06444748535,1.0,0.0,0.0,0.0,1.0,0.0,0.0,0.0,1.0
1463662914631201582,727,1463662914035581135,,-4.21114969254,-6.77992916107,-133.29826355,0.0100940000266,1.0,0.0,0.0,0.0,1.0,0.0,0.0,0.0,1.0,7.98780536652,-9.87804889679,25.3658542633,1.0,0.0,0.0,0.0,1.0,0.0,0.0,0.0,1.0,-0.794874951172,-0.3064578125,-8.70531723633,1.0,0.0,0.0,0.0,1.0,0.0,0.0,0.0,1.0
1463662914631479729,728,1463662914045684053,,-4.16741371155,-6.86097812653,-133.058517456,0.0101199997589,1.0,0.0,0.0,0.0,1.0,0.0,0.0,0.0,1.0,7.74390268326,-14.2073173523,24.6341457367,1.0,0.0,0.0,0.0,1.0,0.0,0.0,0.0,1.0,-0.45968671875,-0.0143652099609,-8.89206496582,1.0,0.0,0.0,0.0,1.0,0.0,0.0,0.0,1.0
1463662914631759073,729,1463662914055769786,,-4.13548564911,-6.97828006744,-132.837127686,0.0100819999352,1.0,0.0,0.0,0.0,1.0,0.0,0.0,0.0,1.0,7.25609779358,-17.8658542633,22.5609760284,1.0,0.0,0.0,0.0,1.0,0.0,0.0,0.0,1.0,-0.45968671875,0.114921679688,-9.20809958496,1.0,0.0,0.0,0.0,1.0,0.0,0.0,0.0,1.0
1463662914632049823,730,1463662914065934572,,-4.10585927963,-7.14800643921,-132.633117676,0.0100910002366,1.0,0.0,0.0,0.0,1.0,0.0,0.0,0.0,1.0,7.80487823486,-21.158536911,20.4878044128,1.0,0.0,0.0,0.0,1.0,0.0,0.0,0.0,1.0,-0.76614453125,0.263362164351,-9.22725319824,1.0,0.0,0.0,0.0,1.0,0.0,0.0,0.0,1.0
1463662914632349062,731,1463662914076117065,,-4.06694936752,-7.36721038818,-132.446716309,0.0101100001484,1.0,0.0,0.0,0.0,1.0,0.0,0.0,0.0,1.0,9.02439117432,-22.3170719147,18.5975627899,1.0,0.0,0.0,0.0,1.0,0.0,0.0,0.0,1.0,-1.41736738281,0.339976635742,-9.4570959731,1.0,0.0,0.0,0.0,1.0,0.0,0.0,0.0,1.0
1463662914632620022,732,1463662914086142856,,-3.98520374298,-7.61161708832,-132.28742981,0.0100999996066,1.0,0.0,0.0,0.0,1.0,0.0,0.0,0.0,1.0,9.08536529541,-22.7439041138,16.4634151459,1.0,0.0,0.0,0.0,1.0,0.0,0.0,0.0,1.0,-1.74776721191,-0.335188232422,-9.28950185688,1.0,0.0,0.0,0.0,1.0,0.0,0.0,0.0,1.0
1463662914632878640,733,1463662914096270823,,-3.93395996094,-7.83752155304,-132.139633179,0.010108999908,1.0,0.0,0.0,0.0,1.0,0.0,0.0,0.0,1.0,4.93902444839,-21.2195129395,15.6097564697,1.0,0.0,0.0,0.0,1.0,0.0,0.0,0.0,1.0,-1.71424838867,-0.521935925381,-9.27034882812,1.0,0.0,0.0,0.0,1.0,0.0,0.0,0.0,1.0
1463662914633162359,734,1463662914106234746,,-3.92166733742,-8.0574092865,-132.007858276,0.0100929997861,1.0,0.0,0.0,0.0,1.0,0.0,0.0,0.0,1.0,2.43902444839,-21.8902435303,13.841463089,1.0,0.0,0.0,0.0,1.0,0.0,0.0,0.0,1.0,-1.58496149902,-0.282515795898,-9.63905646831,1.0,0.0,0.0,0.0,1.0,0.0,0.0,0.0,1.0
1463662914633431809,735,1463662914116443694,,-3.92741560936,-8.26455783844,-131.899536133,0.010106000118,1.0,0.0,0.0,0.0,1.0,0.0,0.0,0.0,1.0,0.487804889679,-21.9512195587,11.5243911743,1.0,0.0,0.0,0.0,1.0,0.0,0.0,0.0,1.0,-1.37427175293,-0.263362164351,-9.73961235352,1.0,0.0,0.0,0.0,1.0,0.0,0.0,0.0,1.0
1463662914633683501,736,1463662914126437197,,-3.95228385925,-8.46122741699,-131.807403564,0.0101020000875,1.0,0.0,0.0,0.0,1.0,0.0,0.0,0.0,1.0,0.18292683363,-22.8658542633,9.63414573669,1.0,0.0,0.0,0.0,1.0,0.0,0.0,0.0,1.0,-1.11090957031,0.0574608398438,-10.2807019287,1.0,0.0,0.0,0.0,1.0,0.0,0.0,0.0,1.0
1463662914633926860,737,1463662914136668695,,-3.95775365829,-8.67240142822,-131.742263794,0.010111999698,1.0,0.0,0.0,0.0,1.0,0.0,0.0,0.0,1.0,0.12195122242,-24.3292694092,7.13414621353,1.0,0.0,0.0,0.0,1.0,0.0,0.0,0.0,1.0,-1.11569797363,-0.239420166016,-10.3860468018,1.0,0.0,0.0,0.0,1.0,0.0,0.0,0.0,1.0
1463662914634179072,738,1463662914146683342,,-3.97028231621,-8.89291000366,-131.698013306,0.0100800003856,1.0,0.0,0.0,0.0,1.0,0.0,0.0,0.0,1.0,-1.09756100178,-25.7317085266,5.06097555161,1.0,0.0,0.0,0.0,1.0,0.0,0.0,0.0,1.0,-1.05823706072,-0.282515795898,-10.4435076416,1.0,0.0,0.0,0.0,1.0,0.0,0.0,0.0,1.0
1463662914634414203,739,1463662914156816673,,-3.99063396454,-9.13512039185,-131.669036865,0.0101110003889,1.0,0.0,0.0,0.0,1.0,0.0,0.0,0.0,1.0,-2.31707310677,-26.7073173523,3.53658556938,1.0,0.0,0.0,0.0,1.0,0.0,0.0,0.0,1.0,-1.28329208984,-0.325611425781,-10.4243540283,1.0,0.0,0.0,0.0,1.0,0.0,0.0,0.0,1.0
1463662914634663499,740,1463662914167036454,,-4.01914453506,-9.38635444641,-131.652740479,0.0101020000875,1.0,0.0,0.0,0.0,1.0,0.0,0.0,0.0,1.0,-3.53658556938,-27.1951236725,2.31707310677,1.0,0.0,0.0,0.0,1.0,0.0,0.0,0.0,1.0,-1.42215578613,-0.373495458984,-10.6494089844,1.0,0.0,0.0,0.0,1.0,0.0,0.0,0.0,1.0
1463662914634908941,741,1463662914177014333,,-4.06505393982,-9.63610553741,-131.646911621,0.0100990002975,1.0,0.0,0.0,0.0,1.0,0.0,0.0,0.0,1.0,-4.32926845551,-26.7073173523,1.15853655338,1.0,0.0,0.0,0.0,1.0,0.0,0.0,0.0,1.0,-1.56101948242,-0.162805712891,-10.912771167,1.0,0.0,0.0,0.0,1.0,0.0,0.0,0.0,1.0
1463662914636608653,742,1463662914187162298,,-4.10642051697,-9.87995815277,-131.655426025,0.0101020000875,1.0,0.0,0.0,0.0,1.0,0.0,0.0,0.0,1.0,-3.47560977936,-26.0975627899,-0.304878056049,1.0,0.0,0.0,0.0,1.0,0.0,0.0,0.0,1.0,-1.60890351563,-0.0287304199219,-11.0133276367,1.0,0.0,0.0,0.0,1.0,0.0,0.0,0.0,1.0
1463662914636953824,743,1463662914197376715,,-4.13373470306,-10.1080970764,-131.674423218,0.010108999908,1.0,0.0,0.0,0.0,1.0,0.0,0.0,0.0,1.0,-3.10975623131,-25.1219520569,-1.09756100178,1.0,0.0,0.0,0.0,1.0,0.0,0.0,0.0,1.0,-1.54186586914,-0.191536132812,-11.137826123,1.0,0.0,0.0,0.0,1.0,0.0,0.0,0.0,1.0
1463662914637218067,744,1463662914207249033,,-4.16008472443,-10.3191661835,-131.700759888,0.0101049998775,1.0,0.0,0.0,0.0,1.0,0.0,0.0,0.0,1.0,-2.80487799644,-24.6341457367,-1.8292683363,1.0,0.0,0.0,0.0,1.0,0.0,0.0,0.0,1.0,-1.34075292969,-0.114921679688,-11.1569797363,1.0,0.0,0.0,0.0,1.0,0.0,0.0,0.0,1.0
1463662914637457832,745,1463662914217569115,,-4.17133760452,-10.530790329,-131.741210938,0.0101009998471,1.0,0.0,0.0,0.0,1.0,0.0,0.0,0.0,1.0,-2.43902444839,-24.8780498505,-3.04878044128,1.0,0.0,0.0,0.0,1.0,0.0,0.0,0.0,1.0,-1.35511813965,-0.292092584273,-11.4011883057,1.0,0.0,0.0,0.0,1.0,0.0,0.0,0.0,1.0
1463662914637750613,746,1463662914227546786,,-4.19251298904,-10.7248535156,-131.786697388,0.0100840004161,1.0,0.0,0.0,0.0,1.0,0.0,0.0,0.0,1.0,-2.43902444839,-24.6951236725,-3.71951246262,1.0,0.0,0.0,0.0,1.0,0.0,0.0,0.0,1.0,-1.08217922346,-0.0622492431641,-11.4251303223,1.0,0.0,0.0,0.0,1.0,0.0,0.0,0.0,1.0
1463662914638060944,747,1463662914237784377,,-4.20375061035,-10.9207525253,-131.835571289,0.0101509997621,1.0,0.0,0.0,0.0,1.0,0.0,0.0,0.0,1.0,-1.70731711388,-25.4268302917,-4.02439022064,1.0,0.0,0.0,0.0,1.0,0.0,0.0,0.0,1.0,-0.967257470703,-0.0957680664062,-11.2958434326,1.0,0.0,0.0,0.0,1.0,0.0,0.0,0.0,1.0
1463662914638332113,748,1463662914248561962,,-4.21020126343,-11.1467037201,-131.886230469,0.0108749996871,1.0,0.0,0.0,0.0,1.0,0.0,0.0,0.0,1.0,-1.70731711388,-25.7926845551,-3.7804877758,1.0,0.0,0.0,0.0,1.0,0.0,0.0,0.0,1.0,-1.21625444336,-0.201112939453,-11.137826123,1.0,0.0,0.0,0.0,1.0,0.0,0.0,0.0,1.0
1463662914638657338,749,1463662914257799713,,-4.24625492096,-11.3825550079,-131.910873413,0.00928399991244,1.0,0.0,0.0,0.0,1.0,0.0,0.0,0.0,1.0,-4.81707286835,-25.7926845551,-1.76829278469,1.0,0.0,0.0,0.0,1.0,0.0,0.0,0.0,1.0,-2.30322199707,-0.263362164351,-11.540052002,1.0,0.0,0.0,0.0,1.0,0.0,0.0,0.0,1.0
1463662914638995999,750,1463662914267955751,,-4.25352430344,-11.6129655838,-131.965332031,0.010158999823,1.0,0.0,0.0,0.0,1.0,0.0,0.0,0.0,1.0,-5.30487823486,-21.8902435303,-3.47560977936,1.0,0.0,0.0,0.0,1.0,0.0,0.0,0.0,1.0,-2.62404501953,-0.952892260742,-11.8082025879,1.0,0.0,0.0,0.0,1.0,0.0,0.0,0.0,1.0
1463662914639636295,751,1463662914278073511,,-4.28699445724,-11.8235673904,-132.043609619,0.0100400000811,1.0,0.0,0.0,0.0,1.0,0.0,0.0,0.0,1.0,-7.92682981491,-16.8292694092,-5.54878091812,1.0,0.0,0.0,0.0,1.0,0.0,0.0,0.0,1.0,-3.40455476074,-0.871489404297,-11.8752402344,1.0,0.0,0.0,0.0,1.0,0.0,0.0,0.0,1.0
1463662914639894808,752,1463662914288285011,,-4.35278558731,-11.9211492538,-132.149429321,0.0101150004193,1.0,0.0,0.0,0.0,1.0,0.0,0.0,0.0,1.0,-11.5853662491,-8.35365867615,-7.50000047684,1.0,0.0,0.0,0.0,1.0,0.0,0.0,0.0,1.0,-2.79642753906,-0.833182177734,-11.9949503174,1.0,0.0,0.0,0.0,1.0,0.0,0.0,0.0,1.0
1463662914640162904,753,1463662914298343195,,-4.44233751297,-11.9462156296,-132.292785645,0.0101070003584,1.0,0.0,0.0,0.0,1.0,0.0,0.0,0.0,1.0,-13.5365858078,-3.96341490746,-11.0365858078,1.0,0.0,0.0,0.0,1.0,0.0,0.0,0.0,1.0,-2.15478164027,-0.541089611728,-12.0715647705,1.0,0.0,0.0,0.0,1.0,0.0,0.0,0.0,1.0
1463662914641899488,754,1463662914308510793,,-4.53482341766,-11.9276638031,-132.479492188,0.0101049998775,1.0,0.0,0.0,0.0,1.0,0.0,0.0,0.0,1.0,-14.7560987473,-1.95121955872,-15.0609760284,1.0,0.0,0.0,0.0,1.0,0.0,0.0,0.0,1.0,-1.5562310791,-0.512359155273,-11.884817041,1.0,0.0,0.0,0.0,1.0,0.0,0.0,0.0,1.0
1463662914642230077,755,1463662914318624543,,-4.61809778214,-11.8986730576,-132.711257935,0.0100649995729,1.0,0.0,0.0,0.0,1.0,0.0,0.0,0.0,1.0,-17.0731716156,-0.365853667259,-18.9024391174,1.0,0.0,0.0,0.0,1.0,0.0,0.0,0.0,1.0,-1.5562310791,-0.972045874023,-11.6693388916,1.0,0.0,0.0,0.0,1.0,0.0,0.0,0.0,1.0
1463662914642493382,756,1463662914328500663,,-4.72429418564,-11.8650493622,-132.988540649,0.0101129999384,1.0,0.0,0.0,0.0,1.0,0.0,0.0,0.0,1.0,-21.4024391174,2.07317066193,-22.7439041138,1.0,0.0,0.0,0.0,1.0,0.0,0.0,0.0,1.0,-1.838746875,-1.19231249982,-11.3485158691,1.0,0.0,0.0,0.0,1.0,0.0,0.0,0.0,1.0
1463662914642818711,757,1463662914338702373,,-4.86233758926,-11.8072872162,-133.312896729,0.0101250000298,1.0,0.0,0.0,0.0,1.0,0.0,0.0,0.0,1.0,-26.0975627899,5.60975599289,-26.8292694092,1.0,0.0,0.0,0.0,1.0,0.0,0.0,0.0,1.0,-1.96324536133,-1.2976572998,-11.2335941895,1.0,0.0,0.0,0.0,1.0,0.0,0.0,0.0,1.0
1463662914643110971,758,1463662914348762327,,-5.05881261826,-11.7283000946,-133.675918579,0.0100870002061,1.0,0.0,0.0,0.0,1.0,0.0,0.0,0.0,1.0,-30.7926845551,9.93902492523,-30.7317066193,1.0,0.0,0.0,0.0,1.0,0.0,0.0,0.0,1.0,-2.29843359375,-0.866701000977,-11.1186725098,1.0,0.0,0.0,0.0,1.0,0.0,0.0,0.0,1.0
1463662914643389743,759,1463662914358851496,,-5.2698059082,-11.6083555222,-134.086380005,0.0100990002975,1.0,0.0,0.0,0.0,1.0,0.0,0.0,0.0,1.0,-33.1097564697,15.0000009537,-34.817073822,1.0,0.0,0.0,0.0,1.0,0.0,0.0,0.0,1.0,-2.3654710941,-0.828393774414,-11.0276928467,1.0,0.0,0.0,0.0,1.0,0.0,0.0,0.0,1.0
1463662914643648048,760,1463662914369013679,,-5.48978376389,-11.4326038361,-134.548278809,0.0100899999961,1.0,0.0,0.0,0.0,1.0,0.0,0.0,0.0,1.0,-36.1585350037,20.2439022064,-39.0853652954,1.0,0.0,0.0,0.0,1.0,0.0,0.0,0.0,1.0,-2.14520483363,-1.02471831055,-10.9558667969,1.0,0.0,0.0,0.0,1.0,0.0,0.0,0.0,1.0
1463662914643910468,761,1463662914379046813,,-5.73600959778,-11.1964387894,-135.065811157,0.0100959995762,1.0,0.0,0.0,0.0,1.0,0.0,0.0,0.0,1.0,-40.1829299927,24.6951236725,-43.9024391174,1.0,0.0,0.0,0.0,1.0,0.0,0.0,0.0,1.0,-1.66157595215,-1.06781401349,-10.9079827637,1.0,0.0,0.0,0.0,1.0,0.0,0.0,0.0,1.0
1463662914647764739,762,1463662914389338929,,-6.02036762238,-10.9335794449,-135.630355835,0.0101100001484,1.0,0.0,0.0,0.0,1.0,0.0,0.0,0.0,1.0,-42.9878044128,27.5,-48.4146347046,1.0,0.0,0.0,0.0,1.0,0.0,0.0,0.0,1.0,-1.51792385254,-0.689530078125,-10.8696755371,1.0,0.0,0.0,0.0,1.0,0.0,0.0,0.0,1.0
1463662914648094078,763,1463662914399372376,,-6.30493307114,-10.661734581,-136.249603271,0.0100870002061,1.0,0.0,0.0,0.0,1.0,0.0,0.0,0.0,1.0,-44.390247345,30.0000019073,-53.4756126404,1.0,0.0,0.0,0.0,1.0,0.0,0.0,0.0,1.0,-1.58496149902,-0.732625708008,-10.7212350342,1.0,0.0,0.0,0.0,1.0,0.0,0.0,0.0,1.0
1463662914648370663,764,1463662914409407645,,-6.60755252838,-10.389544487,-136.930206299,0.0101039996371,1.0,0.0,0.0,0.0,1.0,0.0,0.0,0.0,1.0,-44.6951217651,33.2317085266,-59.390247345,1.0,0.0,0.0,0.0,1.0,0.0,0.0,0.0,1.0,-1.93930334473,-0.239420166016,-10.4961800781,1.0,0.0,0.0,0.0,1.0,0.0,0.0,0.0,1.0
1463662914648623656,765,1463662914419666015,,-6.88180303574,-10.0907878876,-137.69644165,0.0101309996098,1.0,0.0,0.0,0.0,1.0,0.0,0.0,0.0,1.0,-42.134147644,38.1707305908,-67.0731735229,1.0,0.0,0.0,0.0,1.0,0.0,0.0,0.0,1.0,-2.11168571813,-0.0287304199219,-10.524910498,1.0,0.0,0.0,0.0,1.0,0.0,0.0,0.0,1.0
1463662914648924145,766,1463662914429589005,,-7.13519668579,-9.75046253204,-138.530990601,0.0100800003856,1.0,0.0,0.0,0.0,1.0,0.0,0.0,0.0,1.0,-38.7804870605,41.5853652954,-74.0853729248,1.0,0.0,0.0,0.0,1.0,0.0,0.0,0.0,1.0,-1.60890351563,0.445321508789,-10.165780249,1.0,0.0,0.0,0.0,1.0,0.0,0.0,0.0,1.0
1463662914649467523,767,1463662914439889297,,-7.34550905228,-9.37597942352,-139.438369751,0.0101159997284,1.0,0.0,0.0,0.0,1.0,0.0,0.0,0.0,1.0,-32.2560958862,44.7560997009,-80.9756088257,1.0,0.0,0.0,0.0,1.0,0.0,0.0,0.0,1.0,-1.28808049316,0.991199487305,-9.94551369629,1.0,0.0,0.0,0.0,1.0,0.0,0.0,0.0,1.0
1463662914649966063,768,1463662914449812339,,-7.48626995087,-8.97441005707,-140.396865845,0.0100940000266,1.0,0.0,0.0,0.0,1.0,0.0,0.0,0.0,1.0,-25.182926178,46.9512214661,-85.9756088257,1.0,0.0,0.0,0.0,1.0,0.0,0.0,0.0,1.0,-0.91458503418,1.06781401349,-9.5432884019,1.0,0.0,0.0,0.0,1.0,0.0,0.0,0.0,1.0
1463662914650245356,769,1463662914460138722,,-7.56155920029,-8.5372209549,-141.41255188,0.0101319998503,1.0,0.0,0.0,0.0,1.0,0.0,0.0,0.0,1.0,-20.0609760284,49.4512176514,-90.7317047119,1.0,0.0,0.0,0.0,1.0,0.0,0.0,0.0,1.0,-0.545877978516,0.857124194336,-9.38526992329,1.0,0.0,0.0,0.0,1.0,0.0,0.0,0.0,1.0
1463662914650542928,770,1463662914470184876,,-7.59379053116,-8.10062026978,-142.432144165,0.0100880004466,1.0,0.0,0.0,0.0,1.0,0.0,0.0,0.0,1.0,-15.975610733,49.4512176514,-91.5243911743,1.0,0.0,0.0,0.0,1.0,0.0,0.0,0.0,1.0,-0.402225878906,0.708683691406,-9.01656345215,1.0,0.0,0.0,0.0,1.0,0.0,0.0,0.0,1.0
1463662914650832793,771,1463662914480560108,,-7.6133108139,-7.65157318115,-143.466918945,0.0100800003856,1.0,0.0,0.0,0.0,1.0,0.0,0.0,0.0,1.0,-14.5121955872,51.7073173523,-92.8658599854,1.0,0.0,0.0,0.0,1.0,0.0,0.0,0.0,1.0,-0.440533105469,0.641646044922,-8.80108530273,1.0,0.0,0.0,0.0,1.0,0.0,0.0,0.0,1.0
1463662914651461422,772,1463662914490550799,,-7.63260650635,-7.1884522438,-144.508148193,0.0101110003889,1.0,0.0,0.0,0.0,1.0,0.0,0.0,0.0,1.0,-13.048781395,52.5,-93.2926864624,1.0,0.0,0.0,0.0,1.0,0.0,0.0,0.0,1.0,-0.282515795898,0.746990917969,-8.75320126953,1.0,0.0,0.0,0.0,1.0,0.0,0.0,0.0,1.0
1463662914651769045,773,1463662914500405515,,-7.64462900162,-6.69729137421,-145.56362915,0.0100899999961,1.0,0.0,0.0,0.0,1.0,0.0,0.0,0.0,1.0,-11.4634151459,53.4146347046,-94.9390258789,1.0,0.0,0.0,0.0,1.0,0.0,0.0,0.0,1.0,0.134075302102,0.780509741211,-8.71010563965,1.0,0.0,0.0,0.0,1.0,0.0,0.0,0.0,1.0
1463662914653632594,774,1463662914510496247,,-7.64022350311,-6.19828605652,-146.632537842,0.0101169999689,1.0,0.0,0.0,0.0,1.0,0.0,0.0,0.0,1.0,-10.3658542633,52.317073822,-96.0975646973,1.0,0.0,0.0,0.0,1.0,0.0,0.0,0.0,1.0,0.507570751953,0.579396801758,-8.73404765625,1.0,0.0,0.0,0.0,1.0,0.0,0.0,0.0,1.0
1463662914655792673,775,1463662914521118327,,-7.63511562347,-5.71657752991,-147.709197998,0.0101300003007,1.0,0.0,0.0,0.0,1.0,0.0,0.0,0.0,1.0,-10.6707315445,50.6707344055,-96.9512252808,1.0,0.0,0.0,0.0,1.0,0.0,0.0,0.0,1.0,0.588973571866,0.397437475586,-8.87769975586,1.0,0.0,0.0,0.0,1.0,0.0,0.0,0.0,1.0
1463662914661465028,776,1463662914530955857,,-7.64052391052,-5.26529693604,-148.78338623,0.0100640002638,1.0,0.0,0.0,0.0,1.0,0.0,0.0,0.0,1.0,-12.3170728683,48.9024391174,-97.6219558716,1.0,0.0,0.0,0.0,1.0,0.0,0.0,0.0,1.0,0.541089611728,0.177170922852,-9.11233151855,1.0,0.0,0.0,0.0,1.0,0.0,0.0,0.0,1.0
1463662914661779942,777,1463662914540824426,,-7.67630767822,-4.83390665054,-149.8855896,0.0101819997653,1.0,0.0,0.0,0.0,1.0,0.0,0.0,0.0,1.0,-14.6341466904,47.3780517578,-99.4512252808,1.0,0.0,0.0,0.0,1.0,0.0,0.0,0.0,1.0,0.507570751953,0.177170922852,-9.20809958496,1.0,0.0,0.0,0.0,1.0,0.0,0.0,0.0,1.0
1463662914662078816,778,1463662914550893858,,-7.75075101852,-4.43187379837,-150.989944458,0.0100469999015,1.0,0.0,0.0,0.0,1.0,0.0,0.0,0.0,1.0,-16.2195110321,45.1219520569,-101.646347046,1.0,0.0,0.0,0.0,1.0,0.0,0.0,0.0,1.0,0.627280834961,0.45968671875,-9.28471345356,1.0,0.0,0.0,0.0,1.0,0.0,0.0,0.0,1.0
1463662914662363942,779,1463662914560927773,,-7.840072155,-4.05048131943,-152.118423462,0.0100969998166,1.0,0.0,0.0,0.0,1.0,0.0,0.0,0.0,1.0,-16.4634151459,42.3780517578,-103.963417053,1.0,0.0,0.0,0.0,1.0,0.0,0.0,0.0,1.0,0.871489404297,0.579396801758,-9.49061596538,1.0,0.0,0.0,0.0,1.0,0.0,0.0,0.0,1.0
1463662914662640318,780,1463662914571174634,,-7.92197942734,-3.702252388,-153.265609741,0.0101150004193,1.0,0.0,0.0,0.0,1.0,0.0,0.0,0.0,1.0,-17.0731716156,39.4512214661,-105.914634705,1.0,0.0,0.0,0.0,1.0,0.0,0.0,0.0,1.0,0.938527050781,0.263362164351,-9.53849999858,1.0,0.0,0.0,0.0,1.0,0.0,0.0,0.0,1.0
1463662914662930703,781,1463662914581159180,,-8.02432441711,-3.38996434212,-154.413253784,0.0100589999929,1.0,0.0,0.0,0.0,1.0,0.0,0.0,0.0,1.0,-19.7560977936,35.7317085266,-107.073173523,1.0,0.0,0.0,0.0,1.0,0.0,0.0,0.0,1.0,1.08217922346,0.067037651051,-9.31344387349,1.0,0.0,0.0,0.0,1.0,0.0,0.0,0.0,1.0
1463662914663224057,782,1463662914591353807,,-8.18870544434,-3.11905145645,-155.575805664,0.0101889995858,1.0,0.0,0.0,0.0,1.0,0.0,0.0,0.0,1.0,-22.1341457367,32.0731697083,-107.804878235,1.0,0.0,0.0,0.0,1.0,0.0,0.0,0.0,1.0,1.04866025408,0.584185168546,-9.27992563477,1.0,0.0,0.0,0.0,1.0,0.0,0.0,0.0,1.0
1463662914664489181,783,1463662914601490575,,-8.35978507996,-2.88878560066,-156.714904785,0.0100039998069,1.0,0.0,0.0,0.0,1.0,0.0,0.0,0.0,1.0,-23.5975627899,29.2073173523,-107.926834106,1.0,0.0,0.0,0.0,1.0,0.0,0.0,0.0,1.0,1.02950671387,0.445321508789,-9.2942902602,1.0,0.0,0.0,0.0,1.0,0.0,0.0,0.0,1.0
1463662914664890075,784,1463662914616721064,,-8.68775558472,-2.61962914467,-158.447982788,0.0153099996969,1.0,0.0,0.0,0.0,1.0,0.0,0.0,0.0,1.0,-27.8658542633,24.8780498505,-107.865852356,1.0,0.0,0.0,0.0,1.0,0.0,0.0,0.0,1.0,0.957680664062,0.397437475586,-9.32780908345,1.0,0.0,0.0,0.0,1.0,0.0,0.0,0.0,1.0
1463662914665185980,785,1463662914621971278,,-8.80319023132,-2.54185533524,-159.00692749,0.00496899988502,1.0,0.0,0.0,0.0,1.0,0.0,0.0,0.0,1.0,-29.2073173523,23.1097564697,-107.439025879,1.0,0.0,0.0,0.0,1.0,0.0,0.0,0.0,1.0,1.0534486574,0.474051928711,-9.4954043687,1.0,0.0,0.0,0.0,1.0,0.0,0.0,0.0,1.0
1463662914665449129,786,1463662914631642472,,-9.06914901733,-2.40418744087,-160.118560791,0.0100260004401,1.0,0.0,0.0,0.0,1.0,0.0,0.0,0.0,1.0,-31.8292694092,19.817073822,-106.341461182,1.0,0.0,0.0,0.0,1.0,0.0,0.0,0.0,1.0,1.32638771973,0.555454785156,-9.4570959731,1.0,0.0,0.0,0.0,1.0,0.0,0.0,0.0,1.0
1463662921965123656,787,1463662914641619101,,-9.36991500854,-2.30588436127,-161.215316772,0.0101030003279,1.0,0.0,0.0,0.0,1.0,0.0,0.0,0.0,1.0,-34.5731735229,16.4024391174,-104.573173523,1.0,0.0,0.0,0.0,1.0,0.0,0.0,0.0,1.0,1.27850368652,0.627280834961,-9.40442353657,1.0,0.0,0.0,0.0,1.0,0.0,0.0,0.0,1.0
1463662921965434560,788,1463662914651917779,,-9.70159912109,-2.25678515434,-162.282806396,0.010108999908,1.0,0.0,0.0,0.0,1.0,0.0,0.0,0.0,1.0,-36.6463432312,13.1097564697,-102.195121765,1.0,0.0,0.0,0.0,1.0,0.0,0.0,0.0,1.0,1.06302561017,0.809240161133,-9.50976957866,1.0,0.0,0.0,0.0,1.0,0.0,0.0,0.0,1.0
1463662921965707603,789,1463662914661970443,,-10.0468616486,-2.25284552574,-163.316543579,0.0100889997557,1.0,0.0,0.0,0.0,1.0,0.0,0.0,0.0,1.0,-37.5,10.9756097794,-99.4512252808,1.0,0.0,0.0,0.0,1.0,0.0,0.0,0.0,1.0,0.684741674805,0.92416184082,-9.41400034321,1.0,0.0,0.0,0.0,1.0,0.0,0.0,0.0,1.0
1463662921965987781,790,1463662914671996598,,-10.3970489502,-2.27093911171,-164.31187439,0.0101159997284,1.0,0.0,0.0,0.0,1.0,0.0,0.0,0.0,1.0,-37.5609779358,9.75609779358,-95.6097564697,1.0,0.0,0.0,0.0,1.0,0.0,0.0,0.0,1.0,0.512359155273,1.01992990723,-9.46667277974,1.0,0.0,0.0,0.0,1.0,0.0,0.0,0.0,1.0
1463662921966262127,791,1463662914682058844,,-10.7424201965,-2.28869342804,-165.270278931,0.010098000057,1.0,0.0,0.0,0.0,1.0,0.0,0.0,0.0,1.0,-35.8536605835,9.69512176514,-92.1951293945,1.0,0.0,0.0,0.0,1.0,0.0,0.0,0.0,1.0,0.536301208408,1.32159931641,-9.76834277344,1.0,0.0,0.0,0.0,1.0,0.0,0.0,0.0,1.0
1463662921967436219,792,1463662914692094113,,-11.0717506409,-2.32915973663,-166.194732666,0.0100889997557,1.0,0.0,0.0,0.0,1.0,0.0,0.0,0.0,1.0,-33.1097564697,8.10975551605,-89.2682876587,1.0,0.0,0.0,0.0,1.0,0.0,0.0,0.0,1.0,0.430956298828,1.65199914551,-10.2328178955,1.0,0.0,0.0,0.0,1.0,0.0,0.0,0.0,1.0
1463662921967782327,793,1463662914702215310,,-11.3595867157,-2.3766207695,-167.090255737,0.010106000118,1.0,0.0,0.0,0.0,1.0,0.0,0.0,0.0,1.0,-28.6585388184,7.13414621353,-86.4634170532,1.0,0.0,0.0,0.0,1.0,0.0,0.0,0.0,1.0,0.474051928711,1.79565124512,-10.4626612549,1.0,0.0,0.0,0.0,1.0,0.0,0.0,0.0,1.0
1463662921968071514,794,1463662914712478680,,-11.598862648,-2.4393351078,-167.942764282,0.010106000118,1.0,0.0,0.0,0.0,1.0,0.0,0.0,0.0,1.0,-24.0243911743,6.7682929039,-82.2560958862,1.0,0.0,0.0,0.0,1.0,0.0,0.0,0.0,1.0,0.167594116211,1.80043964844,-10.4674496582,1.0,0.0,0.0,0.0,1.0,0.0,0.0,0.0,1.0
1463662921968371013,795,1463662914722549622,,-11.7900772095,-2.44999980927,-168.775558472,0.0101960003376,1.0,0.0,0.0,0.0,1.0,0.0,0.0,0.0,1.0,-19.817073822,8.04878044128,-79.2682952881,1.0,0.0,0.0,0.0,1.0,0.0,0.0,0.0,1.0,0.842758984375,1.70945998535,-10.5488525146,1.0,0.0,0.0,0.0,1.0,0.0,0.0,0.0,1.0
1463662921968625517,796,1463662914732503494,,-11.9142990112,-2.52254128456,-169.531280518,0.0100710000843,1.0,0.0,0.0,0.0,1.0,0.0,0.0,0.0,1.0,-16.7073173523,7.86585378647,-72.4390258789,1.0,0.0,0.0,0.0,1.0,0.0,0.0,0.0,1.0,-0.502782348633,1.06302561017,-10.4482960449,1.0,0.0,0.0,0.0,1.0,0.0,0.0,0.0,1.0
1463662921968884447,797,1463662914742870602,,-12.0492162704,-2.58786582947,-170.234344482,0.0100189996883,1.0,0.0,0.0,0.0,1.0,0.0,0.0,0.0,1.0,-15.6707315445,8.59756088257,-67.4390258789,1.0,0.0,0.0,0.0,1.0,0.0,0.0,0.0,1.0,-0.684741674805,1.4604630127,-10.3860468018,1.0,0.0,0.0,0.0,1.0,0.0,0.0,0.0,1.0
1463662921969232118,798,1463662914752874312,,-12.1580619812,-2.59763765335,-170.884399414,0.0101180002093,1.0,0.0,0.0,0.0,1.0,0.0,0.0,0.0,1.0,-12.0121955872,12.2560977936,-60.6707382202,1.0,0.0,0.0,0.0,1.0,0.0,0.0,0.0,1.0,-0.60812722168,1.73819040527,-11.1282493164,1.0,0.0,0.0,0.0,1.0,0.0,0.0,0.0,1.0
1463662921969524795,799,1463662914762922861,,-12.1945228577,-2.56941437721,-171.491439819,0.010098000057,1.0,0.0,0.0,0.0,1.0,0.0,0.0,0.0,1.0,-6.7682929039,12.1341466904,-56.4024429321,1.0,0.0,0.0,0.0,1.0,0.0,0.0,0.0,1.0,0.0,1.40300217285,-11.6693388916,1.0,0.0,0.0,0.0,1.0,0.0,0.0,0.0,1.0
1463662921969803671,800,1463662914773040621,,-12.1797466278,-2.51107358932,-172.03855896,0.0101340003312,1.0,0.0,0.0,0.0,1.0,0.0,0.0,0.0,1.0,-3.04878044128,9.81707286835,-50.6097564697,1.0,0.0,0.0,0.0,1.0,0.0,0.0,0.0,1.0,0.861912597656,1.08217922346,-11.9518546875,1.0,0.0,0.0,0.0,1.0,0.0,0.0,0.0,1.0
1463662921970065153,801,1463662914783049279,,-12.1518945694,-2.4500374794,-172.515457153,0.0101279998198,1.0,0.0,0.0,0.0,1.0,0.0,0.0,0.0,1.0,-2.68292689323,5.67073154449,-44.4512176514,1.0,0.0,0.0,0.0,1.0,0.0,0.0,0.0,1.0,1.54186586914,0.804451757813,-12.1098719971,1.0,0.0,0.0,0.0,1.0,0.0,0.0,0.0,1.0
1463662921970333666,802,1463662914793203129,,-12.1237688065,-2.42842674255,-172.906967163,0.0100840004161,1.0,0.0,0.0,0.0,1.0,0.0,0.0,0.0,1.0,-3.7804877758,0.12195122242,-37.1951255798,1.0,0.0,0.0,0.0,1.0,0.0,0.0,0.0,1.0,1.5322890625,0.45968671875,-11.9614314941,1.0,0.0,0.0,0.0,1.0,0.0,0.0,0.0,1.0
1463662921970599574,803,1463662914803363541,,-12.0933208466,-2.47123861313,-173.246185303,0.0100579997525,1.0,0.0,0.0,0.0,1.0,0.0,0.0,0.0,1.0,-4.14634132385,-5.97560977936,-33.2926826477,1.0,0.0,0.0,0.0,1.0,0.0,0.0,0.0,1.0,1.25456166992,0.282515795898,-11.9183358643,1.0,0.0,0.0,0.0,1.0,0.0,0.0,0.0,1.0
1463662921970855901,804,1463662914813455679,,-12.0788383484,-2.61066651344,-173.542694092,0.0100929997861,1.0,0.0,0.0,0.0,1.0,0.0,0.0,0.0,1.0,-4.57317066193,-11.0975618362,-30.0000019073,1.0,0.0,0.0,0.0,1.0,0.0,0.0,0.0,1.0,0.119710083008,0.483628735352,-11.2958434326,1.0,0.0,0.0,0.0,1.0,0.0,0.0,0.0,1.0
1463662921971115664,805,1463662914823304406,,-12.0717258453,-2.77469611168,-173.815841675,0.0101100001484,1.0,0.0,0.0,0.0,1.0,0.0,0.0,0.0,1.0,-3.59756112099,-10.9756097794,-27.6219520569,1.0,0.0,0.0,0.0,1.0,0.0,0.0,0.0,1.0,-0.517147558594,0.818816967773,-11.3102086426,1.0,0.0,0.0,0.0,1.0,0.0,0.0,0.0,1.0
1463662921971364127,806,1463662914833560536,,-12.0363903046,-2.96166777611,-174.082855225,0.010098000057,1.0,0.0,0.0,0.0,1.0,0.0,0.0,0.0,1.0,0.0609756112099,-9.39024448395,-26.7073173523,1.0,0.0,0.0,0.0,1.0,0.0,0.0,0.0,1.0,-1.35032973633,0.981622680664,-11.166556543,1.0,0.0,0.0,0.0,1.0,0.0,0.0,0.0,1.0
1463662921971613579,807,1463662914843840987,,-11.9679021835,-3.1208794117,-174.365203857,0.0101279998198,1.0,0.0,0.0,0.0,1.0,0.0,0.0,0.0,1.0,3.23170733452,-6.46341466904,-27.5,1.0,0.0,0.0,0.0,1.0,0.0,0.0,0.0,1.0,-1.33117612305,0.957680664062,-10.8361567139,1.0,0.0,0.0,0.0,1.0,0.0,0.0,0.0,1.0
1463662921971854491,808,1463662914853805796,,-11.8631334305,-3.24852633476,-174.675704956,0.0100889997557,1.0,0.0,0.0,0.0,1.0,0.0,0.0,0.0,1.0,7.01219511032,-3.90243911743,-29.8780498505,1.0,0.0,0.0,0.0,1.0,0.0,0.0,0.0,1.0,-1.16837033709,1.02471831055,-10.8648871338,1.0,0.0,0.0,0.0,1.0,0.0,0.0,0.0,1.0
1463662921972119983,809,1463662914863940273,,-11.7158308029,-3.36826682091,-175.026763916,0.010098000057,1.0,0.0,0.0,0.0,1.0,0.0,0.0,0.0,1.0,11.0365858078,-2.80487799644,-33.6585388184,1.0,0.0,0.0,0.0,1.0,0.0,0.0,0.0,1.0,-1.10133276367,1.01992990723,-10.7834842773,1.0,0.0,0.0,0.0,1.0,0.0,0.0,0.0,1.0
1463662921972385736,810,1463662914874079593,,-11.512843132,-3.4825835228,-175.42137146,0.0101020000875,1.0,0.0,0.0,0.0,1.0,0.0,0.0,0.0,1.0,15.3658533096,-1.40243899822,-37.6219520569,1.0,0.0,0.0,0.0,1.0,0.0,0.0,0.0,1.0,-1.15879360352,0.833182177734,-10.8888291504,1.0,0.0,0.0,0.0,1.0,0.0,0.0,0.0,1.0
1463662921972673934,811,1463662914884103145,,-11.2683582306,-3.59795260429,-175.855789185,0.0100880004466,1.0,0.0,0.0,0.0,1.0,0.0,0.0,0.0,1.0,17.8048782349,-0.18292683363,-41.2804908752,1.0,0.0,0.0,0.0,1.0,0.0,0.0,0.0,1.0,-1.31202250977,0.517147558594,-10.8170031006,1.0,0.0,0.0,0.0,1.0,0.0,0.0,0.0,1.0
1463662921980007724,812,1463662914894190231,,-10.9957494736,-3.70364570618,-176.330886841,0.0100999996066,1.0,0.0,0.0,0.0,1.0,0.0,0.0,0.0,1.0,18.9024391174,1.52439022064,-44.817073822,1.0,0.0,0.0,0.0,1.0,0.0,0.0,0.0,1.0,-1.34075292969,0.205901342773,-10.5823713379,1.0,0.0,0.0,0.0,1.0,0.0,0.0,0.0,1.0
1463662921980332949,813,1463662914904343092,,-10.7167539597,-3.80325317383,-176.835723877,0.010108999908,1.0,0.0,0.0,0.0,1.0,0.0,0.0,0.0,1.0,18.475610733,3.17073178291,-47.317073822,1.0,0.0,0.0,0.0,1.0,0.0,0.0,0.0,1.0,-1.4844050293,0.00478840332031,-10.4578728516,1.0,0.0,0.0,0.0,1.0,0.0,0.0,0.0,1.0
1463662921980603857,814,1463662914914419346,,-10.4347305298,-3.88891434669,-177.37953186,0.010156000033,1.0,0.0,0.0,0.0,1.0,0.0,0.0,0.0,1.0,17.2560977936,5.97560977936,-50.3048820496,1.0,0.0,0.0,0.0,1.0,0.0,0.0,0.0,1.0,-1.63763393555,-0.248996972656,-10.1035310059,1.0,0.0,0.0,0.0,1.0,0.0,0.0,0.0,1.0
1463662921980852476,815,1463662914924451595,,-10.1918888092,-3.9493932724,-177.941955566,0.0100389998406,1.0,0.0,0.0,0.0,1.0,0.0,0.0,0.0,1.0,15.548781395,8.90243911743,-52.3780517578,1.0,0.0,0.0,0.0,1.0,0.0,0.0,0.0,1.0,-1.64721074219,0.0814028564453,-9.67257470703,1.0,0.0,0.0,0.0,1.0,0.0,0.0,0.0,1.0
1463662921981320655,816,1463662914934773448,,-9.97948741913,-3.98855185509,-178.536941528,0.0101079996675,1.0,0.0,0.0,0.0,1.0,0.0,0.0,0.0,1.0,14.6951217651,11.5243911743,-54.9390258789,1.0,0.0,0.0,0.0,1.0,0.0,0.0,0.0,1.0,-1.62326872559,0.469263525391,-9.2416184082,1.0,0.0,0.0,0.0,1.0,0.0,0.0,0.0,1.0
1463662921981589792,817,1463662914944629622,,-9.83442783356,-4.04057645798,-179.154769897,0.010095000267,1.0,0.0,0.0,0.0,1.0,0.0,0.0,0.0,1.0,12.1341466904,14.1463422775,-57.134147644,1.0,0.0,0.0,0.0,1.0,0.0,0.0,0.0,1.0,-2.34631748082,1.18273554705,-9.50976957866,1.0,0.0,0.0,0.0,1.0,0.0,0.0,0.0,1.0
1463662921981853722,818,1463662914954899241,,-9.58665943146,-4.03346967697,-179.792617798,0.0100910002366,1.0,0.0,0.0,0.0,1.0,0.0,0.0,0.0,1.0,13.658536911,17.0731716156,-58.0487823486,1.0,0.0,0.0,0.0,1.0,0.0,0.0,0.0,1.0,-1.52750065918,-0.263362164351,-8.04451757812,1.0,0.0,0.0,0.0,1.0,0.0,0.0,0.0,1.0
1463662921982114632,819,1463662914964865090,,-9.40398406982,-3.98048400879,179.561859131,0.010106000118,1.0,0.0,0.0,0.0,1.0,0.0,0.0,0.0,1.0,9.5731716156,18.3536586761,-58.7195129395,1.0,0.0,0.0,0.0,1.0,0.0,0.0,0.0,1.0,-1.11090957031,0.0718260498047,-8.36534001606,1.0,0.0,0.0,0.0,1.0,0.0,0.0,0.0,1.0
1463662921982356012,820,1463662914975185120,,-9.23979854584,-3.90649271011,178.900650024,0.0101110003889,1.0,0.0,0.0,0.0,1.0,0.0,0.0,0.0,1.0,7.43902492523,18.9024391174,-60.1829299927,1.0,0.0,0.0,0.0,1.0,0.0,0.0,0.0,1.0,-0.852335791016,0.00957680664062,-8.23605371094,1.0,0.0,0.0,0.0,1.0,0.0,0.0,0.0,1.0
1463662921982651344,821,1463662914985028014,,-9.09824848175,-3.84089946747,178.228317261,0.0100959995762,1.0,0.0,0.0,0.0,1.0,0.0,0.0,0.0,1.0,5.36585378647,19.5121955872,-61.3414611816,1.0,0.0,0.0,0.0,1.0,0.0,0.0,0.0,1.0,-1.06781401349,0.00478840332031,-8.37970522602,1.0,0.0,0.0,0.0,1.0,0.0,0.0,0.0,1.0
1463662921982912045,822,1463662914995177334,,-8.97535705566,-3.78732252121,177.546951294,0.0101020000875,1.0,0.0,0.0,0.0,1.0,0.0,0.0,0.0,1.0,3.47560977936,20.1219520569,-62.134147644,1.0,0.0,0.0,0.0,1.0,0.0,0.0,0.0,1.0,-1.29286889648,-0.0287304199219,-8.12113203125,1.0,0.0,0.0,0.0,1.0,0.0,0.0,0.0,1.0
1463662921984534578,823,1463662915005393104,,-8.89726161957,-3.72679066658,176.853118896,0.0101020000875,1.0,0.0,0.0,0.0,1.0,0.0,0.0,0.0,1.0,0.914634168148,21.6463432312,-63.2926826477,1.0,0.0,0.0,0.0,1.0,0.0,0.0,0.0,1.0,-1.37427175293,0.225054956055,-7.97269152832,1.0,0.0,0.0,0.0,1.0,0.0,0.0,0.0,1.0
1463662921984898185,824,1463662915015573149,,-8.82907104492,-3.65696787834,176.152206421,0.0101009998471,1.0,0.0,0.0,0.0,1.0,0.0,0.0,0.0,1.0,-0.914634168148,22.5,-63.8414649963,1.0,0.0,0.0,0.0,1.0,0.0,0.0,0.0,1.0,-1.33596452637,0.0861912597656,-7.87213505859,1.0,0.0,0.0,0.0,1.0,0.0,0.0,0.0,1.0
1463662921985175186,825,1463662915025543165,,-8.80832386017,-3.54626870155,175.433746338,0.0100940000266,1.0,0.0,0.0,0.0,1.0,0.0,0.0,0.0,1.0,-3.10975623131,24.6951236725,-65.4878082275,1.0,0.0,0.0,0.0,1.0,0.0,0.0,0.0,1.0,-1.01514150391,0.430956298828,-7.73805976562,1.0,0.0,0.0,0.0,1.0,0.0,0.0,0.0,1.0
1463662921985475258,826,1463662915035633845,,-8.79526138306,-3.46339464188,174.701019287,0.0101129999384,1.0,0.0,0.0,0.0,1.0,0.0,0.0,0.0,1.0,-2.37804889679,22.3170719147,-67.2560958862,1.0,0.0,0.0,0.0,1.0,0.0,0.0,0.0,1.0,-1.02950671387,0.632069238281,-7.75721337891,1.0,0.0,0.0,0.0,1.0,0.0,0.0,0.0,1.0
1463662921985735386,827,1463662915045785612,,-8.76597976685,-3.37264418602,173.949829102,0.0100880004466,1.0,0.0,0.0,0.0,1.0,0.0,0.0,0.0,1.0,0.0,22.3780498505,-69.3292694092,1.0,0.0,0.0,0.0,1.0,0.0,0.0,0.0,1.0,-0.866701000977,0.732625708008,-7.68059892578,1.0,0.0,0.0,0.0,1.0,0.0,0.0,0.0,1.0
1463662921986010148,828,1463662915055793488,,-8.73897647858,-3.26600408554,173.194732666,0.0101009998471,1.0,0.0,0.0,0.0,1.0,0.0,0.0,0.0,1.0,0.792682945728,19.6341457367,-70.1219482422,1.0,0.0,0.0,0.0,1.0,0.0,0.0,0.0,1.0,-0.253785375977,0.842758984375,-7.55610043945,1.0,0.0,0.0,0.0,1.0,0.0,0.0,0.0,1.0
1463662921986354017,829,1463662915065802979,,-8.73121547699,-3.21657681465,172.45552063,0.0100999996066,1.0,0.0,0.0,0.0,1.0,0.0,0.0,0.0,1.0,4.02439022064,17.317073822,-69.207321167,1.0,0.0,0.0,0.0,1.0,0.0,0.0,0.0,1.0,-0.790086547852,1.65199914551,-8.22168850098,1.0,0.0,0.0,0.0,1.0,0.0,0.0,0.0,1.0
1463662921986700386,830,1463662915075984587,,-8.65092563629,-3.159522295,171.713088989,0.0101229995489,1.0,0.0,0.0,0.0,1.0,0.0,0.0,0.0,1.0,10.1829271317,15.975610733,-69.5121994019,1.0,0.0,0.0,0.0,1.0,0.0,0.0,0.0,1.0,-0.46447512207,1.45567460937,-8.0397291748,1.0,0.0,0.0,0.0,1.0,0.0,0.0,0.0,1.0
1463662921986969211,831,1463662915086012096,,-8.47863864899,-3.12242984772,171.00289917,0.0100790001452,1.0,0.0,0.0,0.0,1.0,0.0,0.0,0.0,1.0,14.6341466904,14.0853662491,-66.6463470459,1.0,0.0,0.0,0.0,1.0,0.0,0.0,0.0,1.0,-0.550666381836,0.732625708008,-8.09240161133,1.0,0.0,0.0,0.0,1.0,0.0,0.0,0.0,1.0
1463662921987242098,832,1463662915096201932,,-8.26438713074,-3.07766461372,170.310516357,0.0101150004193,1.0,0.0,0.0,0.0,1.0,0.0,0.0,0.0,1.0,16.158536911,11.9512195587,-64.8170776367,1.0,0.0,0.0,0.0,1.0,0.0,0.0,0.0,1.0,-0.210689746094,0.325611425781,-8.33182119282,1.0,0.0,0.0,0.0,1.0,0.0,0.0,0.0,1.0
1463662921987527119,833,1463662915106235378,,-8.05072212219,-3.04600954056,169.651245117,0.0101110003889,1.0,0.0,0.0,0.0,1.0,0.0,0.0,0.0,1.0,17.1951217651,10.1219511032,-61.890247345,1.0,0.0,0.0,0.0,1.0,0.0,0.0,0.0,1.0,-0.234631762695,0.435744702148,-8.5760309312,1.0,0.0,0.0,0.0,1.0,0.0,0.0,0.0,1.0
1463662921990983568,834,1463662915116365117,,-7.84273719788,-3.03447818756,169.010421753,0.0100859999657,1.0,0.0,0.0,0.0,1.0,0.0,0.0,0.0,1.0,18.1707305908,5.79268312454,-60.9146347046,1.0,0.0,0.0,0.0,1.0,0.0,0.0,0.0,1.0,0.0622492431641,0.627280834961,-8.76756647949,1.0,0.0,0.0,0.0,1.0,0.0,0.0,0.0,1.0
1463662921991296399,835,1463662915126397834,,-7.61448574066,-3.05994725227,168.378219604,0.0100880004466,1.0,0.0,0.0,0.0,1.0,0.0,0.0,0.0,1.0,21.7682933807,1.76829278469,-60.6707382202,1.0,0.0,0.0,0.0,1.0,0.0,0.0,0.0,1.0,0.0718260498047,0.857124194336,-8.97346782227,1.0,0.0,0.0,0.0,1.0,0.0,0.0,0.0,1.0
1463662921991565068,836,1463662915136693544,,-7.35511016846,-3.14562439919,167.749710083,0.0101150004193,1.0,0.0,0.0,0.0,1.0,0.0,0.0,0.0,1.0,26.0975627899,-3.35365867615,-60.8536643982,1.0,0.0,0.0,0.0,1.0,0.0,0.0,0.0,1.0,-0.110133276367,1.03908344744,-9.00219824219,1.0,0.0,0.0,0.0,1.0,0.0,0.0,0.0,1.0
1463662921991818634,837,1463662915146719856,,-7.04464149475,-3.27638435364,167.122024536,0.0100999996066,1.0,0.0,0.0,0.0,1.0,0.0,0.0,0.0,1.0,29.2682933807,-7.43902492523,-61.2195167542,1.0,0.0,0.0,0.0,1.0,0.0,0.0,0.0,1.0,-0.234631762695,0.713472094727,-9.08838950195,1.0,0.0,0.0,0.0,1.0,0.0,0.0,0.0,1.0
1463662921992096886,838,1463662915156782309,,-6.65194272995,-3.42374777794,166.5027771,0.0100910002366,1.0,0.0,0.0,0.0,1.0,0.0,0.0,0.0,1.0,33.0487823486,-10.2439022064,-60.4268302917,1.0,0.0,0.0,0.0,1.0,0.0,0.0,0.0,1.0,-0.138863696289,-0.0287304199219,-8.60954975444,1.0,0.0,0.0,0.0,1.0,0.0,0.0,0.0,1.0
1463662921992353472,839,1463662915166977301,,-6.28682947159,-3.61994838715,165.88369751,0.0101770004258,1.0,0.0,0.0,0.0,1.0,0.0,0.0,0.0,1.0,31.5853652954,-14.7560987473,-60.3658561707,1.0,0.0,0.0,0.0,1.0,0.0,0.0,0.0,1.0,-0.277727392578,0.191536132812,-9.39963513325,1.0,0.0,0.0,0.0,1.0,0.0,0.0,0.0,1.0
1463662921993990743,840,1463662915177004185,,-5.92454957962,-3.85334777832,165.290634155,0.0100320000201,1.0,0.0,0.0,0.0,1.0,0.0,0.0,0.0,1.0,31.341463089,-17.1951217651,-58.7195129395,1.0,0.0,0.0,0.0,1.0,0.0,0.0,0.0,1.0,-0.641646044922,0.067037651051,-9.10275471191,1.0,0.0,0.0,0.0,1.0,0.0,0.0,0.0,1.0
1463662921994557713,841,1463662915187093876,,-5.5509595871,-4.12146425247,164.714996338,0.0101100001484,1.0,0.0,0.0,0.0,1.0,0.0,0.0,0.0,1.0,28.4146347046,-18.9634151459,-56.2804870605,1.0,0.0,0.0,0.0,1.0,0.0,0.0,0.0,1.0,-1.04866025408,-0.612915625,-9.36611631001,1.0,0.0,0.0,0.0,1.0,0.0,0.0,0.0,1.0
1463662921994859399,842,1463662915197113886,,-5.20437002182,-4.39974689484,164.171020508,0.0100969998166,1.0,0.0,0.0,0.0,1.0,0.0,0.0,0.0,1.0,21.7073173523,-20.4878044128,-52.8658561707,1.0,0.0,0.0,0.0,1.0,0.0,0.0,0.0,1.0,-1.11090957031,-1.35511813965,-9.24640681152,1.0,0.0,0.0,0.0,1.0,0.0,0.0,0.0,1.0
1463662921997779500,843,1463662915207502451,,-4.95557022095,-4.67541360855,163.656417847,0.0101030003279,1.0,0.0,0.0,0.0,1.0,0.0,0.0,0.0,1.0,12.0731716156,-20.7317085266,-49.7560997009,1.0,0.0,0.0,0.0,1.0,0.0,0.0,0.0,1.0,-1.23061965332,-1.47961662598,-9.79228479004,1.0,0.0,0.0,0.0,1.0,0.0,0.0,0.0,1.0
1463662921998085405,844,1463662915217516003,,-4.79866933823,-4.96085166931,163.158676147,0.0101030003279,1.0,0.0,0.0,0.0,1.0,0.0,0.0,0.0,1.0,3.10975623131,-22.6219520569,-48.1097602844,1.0,0.0,0.0,0.0,1.0,0.0,0.0,0.0,1.0,-1.20188930646,-1.51313544922,-10.0412817627,1.0,0.0,0.0,0.0,1.0,0.0,0.0,0.0,1.0
1463662921998364802,845,1463662915227568719,,-4.72319698334,-5.25888204575,162.664489746,0.0100999996066,1.0,0.0,0.0,0.0,1.0,0.0,0.0,0.0,1.0,-4.2682929039,-23.7195129395,-47.8048782349,1.0,0.0,0.0,0.0,1.0,0.0,0.0,0.0,1.0,-1.40779057617,-1.4844050293,-10.8361567139,1.0,0.0,0.0,0.0,1.0,0.0,0.0,0.0,1.0
1463662921998644407,846,1463662915237546442,,-4.72282600403,-5.60040998459,162.175735474,0.0100929997861,1.0,0.0,0.0,0.0,1.0,0.0,0.0,0.0,1.0,-12.3170728683,-25.6097564697,-47.317073822,1.0,0.0,0.0,0.0,1.0,0.0,0.0,0.0,1.0,-2.03028300781,-1.65199914551,-11.1952869629,1.0,0.0,0.0,0.0,1.0,0.0,0.0,0.0,1.0
1463662921998907920,847,1463662915247771222,,-4.80108976364,-5.95268058777,161.692474365,0.0101020000875,1.0,0.0,0.0,0.0,1.0,0.0,0.0,0.0,1.0,-20.6707324982,-25.9146347046,-46.6463432312,1.0,0.0,0.0,0.0,1.0,0.0,0.0,0.0,1.0,-2.4277204834,-1.86747729492,-12.0428343506,1.0,0.0,0.0,0.0,1.0,0.0,0.0,0.0,1.0
1463662921999578108,848,1463662915257939341,,-4.94726228714,-6.29738235474,161.208145142,0.0101180002093,1.0,0.0,0.0,0.0,1.0,0.0,0.0,0.0,1.0,-28.2926845551,-24.817073822,-46.4634170532,1.0,0.0,0.0,0.0,1.0,0.0,0.0,0.0,1.0,-2.66235224609,-2.08774370153,-12.5599819092,1.0,0.0,0.0,0.0,1.0,0.0,0.0,0.0,1.0
1463662922000082949,849,1463662915267920970,,-5.15617895126,-6.62003612518,160.719039917,0.0100929997861,1.0,0.0,0.0,0.0,1.0,0.0,0.0,0.0,1.0,-35.5487823486,-24.0853652954,-46.8902435303,1.0,0.0,0.0,0.0,1.0,0.0,0.0,0.0,1.0,-2.50912333984,-2.32237546422,-13.2734540039,1.0,0.0,0.0,0.0,1.0,0.0,0.0,0.0,1.0
1463662922000384427,850,1463662915278156530,,-5.44674253464,-6.91977024078,160.218948364,0.0101190004498,1.0,0.0,0.0,0.0,1.0,0.0,0.0,0.0,1.0,-42.3780517578,-24.2682933807,-48.0487823486,1.0,0.0,0.0,0.0,1.0,0.0,0.0,0.0,1.0,-1.95845695801,-1.92014973145,-13.737929126,1.0,0.0,0.0,0.0,1.0,0.0,0.0,0.0,1.0
1463662922000636848,851,1463662915288294757,,-5.7817234993,-7.23094844818,159.702011108,0.0100830001757,1.0,0.0,0.0,0.0,1.0,0.0,0.0,0.0,1.0,-45.9756088257,-26.9512195587,-50.365852356,1.0,0.0,0.0,0.0,1.0,0.0,0.0,0.0,1.0,-1.55144267578,-1.47482822266,-13.6756798828,1.0,0.0,0.0,0.0,1.0,0.0,0.0,0.0,1.0
1463662922000918640,852,1463662915298357575,,-6.12738990784,-7.57858324051,159.168670654,0.0100919995457,1.0,0.0,0.0,0.0,1.0,0.0,0.0,0.0,1.0,-46.0365867615,-31.5243930817,-52.6829299927,1.0,0.0,0.0,0.0,1.0,0.0,0.0,0.0,1.0,-1.25456166992,-1.01514150391,-13.5655466064,1.0,0.0,0.0,0.0,1.0,0.0,0.0,0.0,1.0
1463662922001188976,853,1463662915308408103,,-6.46608734131,-7.98634195328,158.625640869,0.0101340003312,1.0,0.0,0.0,0.0,1.0,0.0,0.0,0.0,1.0,-45.4878082275,-35.7926826477,-54.0243911743,1.0,0.0,0.0,0.0,1.0,0.0,0.0,0.0,1.0,-1.6041151123,-0.900219824219,-13.5655466064,1.0,0.0,0.0,0.0,1.0,0.0,0.0,0.0,1.0
1463662922001449989,854,1463662915318532946,,-6.75569629669,-8.46712970734,158.054641724,0.0100689996034,1.0,0.0,0.0,0.0,1.0,0.0,0.0,0.0,1.0,-43.0487823486,-37.1951255798,-57.1951217651,1.0,0.0,0.0,0.0,1.0,0.0,0.0,0.0,1.0,-3.03105930176,-1.20188930646,-13.4745669434,1.0,0.0,0.0,0.0,1.0,0.0,0.0,0.0,1.0
1463662922001699702,855,1463662915328676849,,-7.04687261581,-8.94750976562,157.478118896,0.0101129999384,1.0,0.0,0.0,0.0,1.0,0.0,0.0,0.0,1.0,-43.0487823486,-36.6463432312,-57.5609779358,1.0,0.0,0.0,0.0,1.0,0.0,0.0,0.0,1.0,-3.3231519043,-1.06302561017,-14.2407114746,1.0,0.0,0.0,0.0,1.0,0.0,0.0,0.0,1.0
1463662922005040590,856,1463662915338786381,,-7.30870199203,-9.4178314209,156.883331299,0.0100830001757,1.0,0.0,0.0,0.0,1.0,0.0,0.0,0.0,1.0,-40.1219520569,-36.0975646973,-59.6341438293,1.0,0.0,0.0,0.0,1.0,0.0,0.0,0.0,1.0,-3.27526787109,-0.76614453125,-14.4466128174,1.0,0.0,0.0,0.0,1.0,0.0,0.0,0.0,1.0
1463662922005318633,857,1463662915348769573,,-7.5462641716,-9.85251426697,156.272720337,0.010108999908,1.0,0.0,0.0,0.0,1.0,0.0,0.0,0.0,1.0,-35.0000038147,-33.4756126404,-61.2804870605,1.0,0.0,0.0,0.0,1.0,0.0,0.0,0.0,1.0,-3.02627089844,0.201112939453,-14.5088620605,1.0,0.0,0.0,0.0,1.0,0.0,0.0,0.0,1.0
1463662922005620528,858,1463662915358905508,,-7.69494533539,-10.2672948837,155.640060425,0.0100999996066,1.0,0.0,0.0,0.0,1.0,0.0,0.0,0.0,1.0,-26.8902454376,-34.0243911743,-63.5975646973,1.0,0.0,0.0,0.0,1.0,0.0,0.0,0.0,1.0,-2.40377861293,0.320823022461,-14.829685083,1.0,0.0,0.0,0.0,1.0,0.0,0.0,0.0,1.0
1463662922005898883,859,1463662915368973899,,-7.76049947739,-10.6828556061,155.001068115,0.0101220002398,1.0,0.0,0.0,0.0,1.0,0.0,0.0,0.0,1.0,-18.658536911,-36.4024391174,-64.4512252808,1.0,0.0,0.0,0.0,1.0,0.0,0.0,0.0,1.0,-1.77649763184,0.493205541992,-14.4466128174,1.0,0.0,0.0,0.0,1.0,0.0,0.0,0.0,1.0
1463662922006178436,860,1463662915379066870,,-7.7281665802,-11.1073513031,154.35609436,0.0101349996403,1.0,0.0,0.0,0.0,1.0,0.0,0.0,0.0,1.0,-11.5243911743,-39.0243911743,-64.8170776367,1.0,0.0,0.0,0.0,1.0,0.0,0.0,0.0,1.0,-1.37906015625,-0.00957680664062,-14.2694418945,1.0,0.0,0.0,0.0,1.0,0.0,0.0,0.0,1.0
1463662922006462520,861,1463662915389310034,,-7.64603662491,-11.5651550293,153.741104126,0.0100419996306,1.0,0.0,0.0,0.0,1.0,0.0,0.0,0.0,1.0,-6.89024400711,-42.682926178,-62.682926178,1.0,0.0,0.0,0.0,1.0,0.0,0.0,0.0,1.0,-1.54665427246,-0.110133276367,-13.8480624023,1.0,0.0,0.0,0.0,1.0,0.0,0.0,0.0,1.0
1463662922007657912,862,1463662915399458988,,-7.53195047379,-12.0509853363,153.148544312,0.0101300003007,1.0,0.0,0.0,0.0,1.0,0.0,0.0,0.0,1.0,-3.41463422775,-45.5487823486,-60.1829299927,1.0,0.0,0.0,0.0,1.0,0.0,0.0,0.0,1.0,-1.61369191895,-0.0526724365234,-13.5320277832,1.0,0.0,0.0,0.0,1.0,0.0,0.0,0.0,1.0
1463662922008062035,863,1463662915409974987,,-7.39371299744,-12.5412216187,152.598266602,0.0101020000875,1.0,0.0,0.0,0.0,1.0,0.0,0.0,0.0,1.0,0.670731723309,-48.2317085266,-56.5853691101,1.0,0.0,0.0,0.0,1.0,0.0,0.0,0.0,1.0,-1.32159931641,0.229843359375,-13.0196686279,1.0,0.0,0.0,0.0,1.0,0.0,0.0,0.0,1.0
1463662922008369241,864,1463662915419553847,,-7.22552061081,-13.0463552475,152.092575073,0.0100819999352,1.0,0.0,0.0,0.0,1.0,0.0,0.0,0.0,1.0,5.42682933807,-51.7682952881,-52.8048782349,1.0,0.0,0.0,0.0,1.0,0.0,0.0,0.0,1.0,-1.12527478027,0.493205541992,-12.9047469482,1.0,0.0,0.0,0.0,1.0,0.0,0.0,0.0,1.0
1463662922008662386,865,1463662915429713426,,-7.01537752151,-13.567820549,151.62689209,0.0101279998198,1.0,0.0,0.0,0.0,1.0,0.0,0.0,0.0,1.0,10.1219511032,-54.6951217651,-48.7804870605,1.0,0.0,0.0,0.0,1.0,0.0,0.0,0.0,1.0,-0.972045874023,0.445321508789,-12.0428343506,1.0,0.0,0.0,0.0,1.0,0.0,0.0,0.0,1.0
1463662922008943189,866,1463662915439640894,,-6.77832746506,-14.0998487473,151.209503174,0.0100670000538,1.0,0.0,0.0,0.0,1.0,0.0,0.0,0.0,1.0,13.1097564697,-58.2926826477,-44.3292694092,1.0,0.0,0.0,0.0,1.0,0.0,0.0,0.0,1.0,-0.737414111328,0.287304199219,-11.7555301514,1.0,0.0,0.0,0.0,1.0,0.0,0.0,0.0,1.0
1463662922012940153,867,1463662915450136061,,-6.52303409576,-14.6608753204,150.845794678,0.0101150004193,1.0,0.0,0.0,0.0,1.0,0.0,0.0,0.0,1.0,15.6707315445,-62.4390258789,-39.0243911743,1.0,0.0,0.0,0.0,1.0,0.0,0.0,0.0,1.0,-0.660799658203,0.201112939453,-11.1426145264,1.0,0.0,0.0,0.0,1.0,0.0,0.0,0.0,1.0
1463662922013273659,868,1463662915460070873,,-6.25104522705,-15.2380771637,150.519470215,0.0101030003279,1.0,0.0,0.0,0.0,1.0,0.0,0.0,0.0,1.0,18.2317085266,-65.7926864624,-35.4878044128,1.0,0.0,0.0,0.0,1.0,0.0,0.0,0.0,1.0,-0.521935925381,0.196324536133,-10.5967365479,1.0,0.0,0.0,0.0,1.0,0.0,0.0,0.0,1.0
1463662922013555763,869,1463662915470051929,,-5.97630786896,-15.8206253052,150.234817505,0.0100880004466,1.0,0.0,0.0,0.0,1.0,0.0,0.0,0.0,1.0,19.8780498505,-67.9268264771,-31.4634151459,1.0,0.0,0.0,0.0,1.0,0.0,0.0,0.0,1.0,-0.430956298828,0.239420166016,-10.1083194092,1.0,0.0,0.0,0.0,1.0,0.0,0.0,0.0,1.0
1463662922013821464,870,1463662915480336702,,-5.70004606247,-16.4491653442,149.985015869,0.010106000118,1.0,0.0,0.0,0.0,1.0,0.0,0.0,0.0,1.0,21.341463089,-73.1097564697,-28.3536586761,1.0,0.0,0.0,0.0,1.0,0.0,0.0,0.0,1.0,-0.493205541992,0.316034619141,-10.1753570557,1.0,0.0,0.0,0.0,1.0,0.0,0.0,0.0,1.0
1463662922014112891,871,1463662915490752503,,-5.43188905716,-17.1074542999,149.780883789,0.0101039996371,1.0,0.0,0.0,0.0,1.0,0.0,0.0,0.0,1.0,23.5975627899,-77.4390258789,-24.5731716156,1.0,0.0,0.0,0.0,1.0,0.0,0.0,0.0,1.0,-0.416591088867,0.598550451572,-9.47146118306,1.0,0.0,0.0,0.0,1.0,0.0,0.0,0.0,1.0
1463662922014387496,872,1463662915500436821,,-5.1494345665,-17.7676925659,149.60067749,0.0101239997894,1.0,0.0,0.0,0.0,1.0,0.0,0.0,0.0,1.0,25.975610733,-78.5365829468,-22.0731716156,1.0,0.0,0.0,0.0,1.0,0.0,0.0,0.0,1.0,-0.407014282227,0.646434448242,-9.50976957866,1.0,0.0,0.0,0.0,1.0,0.0,0.0,0.0,1.0
1463662922014663560,873,1463662915510579006,,-4.84200620651,-18.4630050659,149.446182251,0.0100870002061,1.0,0.0,0.0,0.0,1.0,0.0,0.0,0.0,1.0,29.5731697083,-81.6463394165,-19.6341457367,1.0,0.0,0.0,0.0,1.0,0.0,0.0,0.0,1.0,-0.665588061523,0.660799658203,-9.28471345356,1.0,0.0,0.0,0.0,1.0,0.0,0.0,0.0,1.0
