%time,field.header.seq,field.header.stamp,field.header.frame_id,field.orientation.x,field.orientation.y,field.orientation.z,field.orientation.w,field.orientation_covariance0,field.orientation_covariance1,field.orientation_covariance2,field.orientation_covariance3,field.orientation_covariance4,field.orientation_covariance5,field.orientation_covariance6,field.orientation_covariance7,field.orientation_covariance8,field.angular_velocity.x,field.angular_velocity.y,field.angular_velocity.z,field.angular_velocity_covariance0,field.angular_velocity_covariance1,field.angular_velocity_covariance2,field.angular_velocity_covariance3,field.angular_velocity_covariance4,field.angular_velocity_covariance5,field.angular_velocity_covariance6,field.angular_velocity_covariance7,field.angular_velocity_covariance8,field.linear_acceleration.x,field.linear_acceleration.y,field.linear_acceleration.z,field.linear_acceleration_covariance0,field.linear_acceleration_covariance1,field.linear_acceleration_covariance2,field.linear_acceleration_covariance3,field.linear_acceleration_covariance4,field.linear_acceleration_covariance5,field.linear_acceleration_covariance6,field.linear_acceleration_covariance7,field.linear_acceleration_covariance8
1464167291102954819,173,1464167290895238737,,6.9935669899,-13.0171289444,-55.4392051697,0.00109999999404,1.0,0.0,0.0,0.0,1.0,0.0,0.0,0.0,1.0,0.0,2.01219511032,3.23170733452,1.0,0.0,0.0,0.0,1.0,0.0,0.0,0.0,1.0,-0.0861912597656,-0.804451757813,10.0891657959,1.0,0.0,0.0,0.0,1.0,0.0,0.0,0.0,1.0
1464167291103006070,174,1464167290910248990,,6.94867277145,-12.8348007202,-55.3772010803,0.00370200001635,1.0,0.0,0.0,0.0,1.0,0.0,0.0,0.0,1.0,-0.243902444839,1.64634156227,0.914634168148,1.0,0.0,0.0,0.0,1.0,0.0,0.0,0.0,1.0,-0.100556469727,-0.708683691406,10.180145459,1.0,0.0,0.0,0.0,1.0,0.0,0.0,0.0,1.0
1464167291103042581,175,1464167290930564961,,6.87939596176,-12.6899147034,-55.3671340942,0.00118899997324,1.0,0.0,0.0,0.0,1.0,0.0,0.0,0.0,1.0,-1.03658533096,1.8902438879,-0.487804889679,1.0,0.0,0.0,0.0,1.0,0.0,0.0,0.0,1.0,0.0383072265625,-0.909796630859,10.3094323486,1.0,0.0,0.0,0.0,1.0,0.0,0.0,0.0,1.0
1464167291103080239,176,1464167290951538293,,6.78220319748,-12.5543851852,-55.3988800049,0.00113700004295,1.0,0.0,0.0,0.0,1.0,0.0,0.0,0.0,1.0,0.0609756112099,0.304878056049,-3.10975623131,1.0,0.0,0.0,0.0,1.0,0.0,0.0,0.0,1.0,0.268150604204,-0.780509741211,10.2328178955,1.0,0.0,0.0,0.0,1.0,0.0,0.0,0.0,1.0
1464167291105051178,177,1464167290972582253,,6.73796415329,-12.4345970154,-55.4619369507,0.00130000000354,1.0,0.0,0.0,0.0,1.0,0.0,0.0,0.0,1.0,-1.40243899822,2.92682933807,-2.62195134163,1.0,0.0,0.0,0.0,1.0,0.0,0.0,0.0,1.0,-0.368707055664,-0.866701000977,10.2423947021,1.0,0.0,0.0,0.0,1.0,0.0,0.0,0.0,1.0
1464167291109244001,178,1464167290994967967,,6.81192588806,-12.305847168,-55.4414176941,0.00249999994412,1.0,0.0,0.0,0.0,1.0,0.0,0.0,0.0,1.0,-0.365853667259,4.08536577225,3.23170733452,1.0,0.0,0.0,0.0,1.0,0.0,0.0,0.0,1.0,-0.799663354492,-0.957680664062,9.94072529297,1.0,0.0,0.0,0.0,1.0,0.0,0.0,0.0,1.0
1464167291109315773,179,1464167291017576136,,6.83566761017,-12.1606235504,-55.3661155701,0.00132100004703,1.0,0.0,0.0,0.0,1.0,0.0,0.0,0.0,1.0,-2.31707310677,1.95121955872,2.56097555161,1.0,0.0,0.0,0.0,1.0,0.0,0.0,0.0,1.0,-0.162805712891,-0.703895288086,9.99818613281,1.0,0.0,0.0,0.0,1.0,0.0,0.0,0.0,1.0
1464167291109383379,180,1464167291038123728,,6.76580238342,-12.0482873917,-55.3268547058,0.00284800003283,1.0,0.0,0.0,0.0,1.0,0.0,0.0,0.0,1.0,-2.62195134163,0.304878056049,0.731707334518,1.0,0.0,0.0,0.0,1.0,0.0,0.0,0.0,1.0,-0.0957680664062,-0.852335791016,10.5488525146,1.0,0.0,0.0,0.0,1.0,0.0,0.0,0.0,1.0
1464167291109415880,181,1464167291059883175,,6.68688154221,-11.9427976608,-55.3034629822,0.00184399995487,1.0,0.0,0.0,0.0,1.0,0.0,0.0,0.0,1.0,-1.46341466904,0.487804889679,0.609756112099,1.0,0.0,0.0,0.0,1.0,0.0,0.0,0.0,1.0,-0.354341845703,-0.847547387695,9.95509050293,1.0,0.0,0.0,0.0,1.0,0.0,0.0,0.0,1.0
1464167291109545988,182,1464167291081181881,,6.58257579803,-11.8368701935,-55.3061332703,0.00152399996296,1.0,0.0,0.0,0.0,1.0,0.0,0.0,0.0,1.0,-1.95121955872,-0.853658556938,-1.8902438879,1.0,0.0,0.0,0.0,1.0,0.0,0.0,0.0,1.0,0.277727392578,-0.77093293457,10.0891657959,1.0,0.0,0.0,0.0,1.0,0.0,0.0,0.0,1.0
1464167291117359013,183,1464167291102969506,,6.48225688934,-11.742228508,-55.3413124084,0.00137499999255,1.0,0.0,0.0,0.0,1.0,0.0,0.0,0.0,1.0,-0.792682945728,0.792682945728,-2.31707310677,1.0,0.0,0.0,0.0,1.0,0.0,0.0,0.0,1.0,-0.234631762695,-0.986411083984,10.0556469727,1.0,0.0,0.0,0.0,1.0,0.0,0.0,0.0,1.0
1464167291128229727,184,1464167291123259956,,6.51395320892,-11.6318817139,-55.3194084167,0.000959999975748,1.0,0.0,0.0,0.0,1.0,0.0,0.0,0.0,1.0,-0.243902444839,4.20731735229,2.62195134163,1.0,0.0,0.0,0.0,1.0,0.0,0.0,0.0,1.0,-0.215478149414,-1.12527478027,10.1035310059,1.0,0.0,0.0,0.0,1.0,0.0,0.0,0.0,1.0
1464167291146715439,185,1464167291144428866,,6.57533168793,-11.4901561737,-55.2371902466,0.00105900003109,1.0,0.0,0.0,0.0,1.0,0.0,0.0,0.0,1.0,-0.12195122242,5.06097555161,5.12195110321,1.0,0.0,0.0,0.0,1.0,0.0,0.0,0.0,1.0,-0.335188232422,-0.718260498047,9.88805285645,1.0,0.0,0.0,0.0,1.0,0.0,0.0,0.0,1.0
1464167291169340067,186,1464167291165924765,,6.64689350128,-11.3437395096,-55.1178512573,0.00153100001626,1.0,0.0,0.0,0.0,1.0,0.0,0.0,0.0,1.0,-0.304878056049,2.62195134163,5.24390268326,1.0,0.0,0.0,0.0,1.0,0.0,0.0,0.0,1.0,-0.325611425781,-0.938527050781,9.97903251953,1.0,0.0,0.0,0.0,1.0,0.0,0.0,0.0,1.0
1464167291188093026,187,1464167291186341416,,6.57536840439,-11.1995687485,-55.0430107117,0.00113600003533,1.0,0.0,0.0,0.0,1.0,0.0,0.0,0.0,1.0,-0.12195122242,0.0609756112099,0.975609779358,1.0,0.0,0.0,0.0,1.0,0.0,0.0,0.0,1.0,0.31124621582,-0.694318481445,10.2328178955,1.0,0.0,0.0,0.0,1.0,0.0,0.0,0.0,1.0
1464167291208977918,188,1464167291207470794,,6.49639606476,-11.0809144974,-55.0141105652,0.00101999996696,1.0,0.0,0.0,0.0,1.0,0.0,0.0,0.0,1.0,-1.15853655338,0.304878056049,0.365853667259,1.0,0.0,0.0,0.0,1.0,0.0,0.0,0.0,1.0,0.0814028564453,-0.837970581055,10.314220752,1.0,0.0,0.0,0.0,1.0,0.0,0.0,0.0,1.0
1464167291229800622,189,1464167291227956457,,6.43289995193,-10.9700622559,-54.9957466125,0.00098600005731,1.0,0.0,0.0,0.0,1.0,0.0,0.0,0.0,1.0,0.18292683363,0.12195122242,0.0,1.0,0.0,0.0,0.0,1.0,0.0,0.0,0.0,1.0,-0.0909796630859,-0.909796630859,10.3621047852,1.0,0.0,0.0,0.0,1.0,0.0,0.0,0.0,1.0
1464167291250783486,190,1464167291248513580,,6.37147569656,-10.8517856598,-54.9879493713,0.001007999992,1.0,0.0,0.0,0.0,1.0,0.0,0.0,0.0,1.0,-0.0609756112099,0.0,-1.09756100178,1.0,0.0,0.0,0.0,1.0,0.0,0.0,0.0,1.0,-0.0287304199219,-0.713472094727,10.0556469727,1.0,0.0,0.0,0.0,1.0,0.0,0.0,0.0,1.0
1464167291272372564,191,1464167291270224693,,6.26876020432,-10.7341241837,-55.0196380615,0.00120900000911,1.0,0.0,0.0,0.0,1.0,0.0,0.0,0.0,1.0,-0.304878056049,0.426829278469,-3.35365867615,1.0,0.0,0.0,0.0,1.0,0.0,0.0,0.0,1.0,0.0957680664062,-0.794874951172,10.3429511719,1.0,0.0,0.0,0.0,1.0,0.0,0.0,0.0,1.0
1464167291296396657,192,1464167291290907236,,6.20536279678,-10.6381216049,-55.0921897888,0.00102399999741,1.0,0.0,0.0,0.0,1.0,0.0,0.0,0.0,1.0,-0.18292683363,3.71951246262,-3.17073178291,1.0,0.0,0.0,0.0,1.0,0.0,0.0,0.0,1.0,0.0143652099609,-1.06302561017,10.2328178955,1.0,0.0,0.0,0.0,1.0,0.0,0.0,0.0,1.0
1464167291317157952,193,1464167291311832859,,6.31536102295,-10.5351257324,-55.1139907837,0.001304000034,1.0,0.0,0.0,0.0,1.0,0.0,0.0,0.0,1.0,0.0609756112099,7.86585378647,1.95121955872,1.0,0.0,0.0,0.0,1.0,0.0,0.0,0.0,1.0,-1.01514150391,-0.76135612793,9.65342167827,1.0,0.0,0.0,0.0,1.0,0.0,0.0,0.0,1.0
1464167291337468454,194,1464167291332259770,,6.39484500885,-10.4222745895,-55.0843582153,0.00106399995275,1.0,0.0,0.0,0.0,1.0,0.0,0.0,0.0,1.0,-1.2804877758,4.51219558716,0.609756112099,1.0,0.0,0.0,0.0,1.0,0.0,0.0,0.0,1.0,-0.210689746094,-0.603338854892,9.96466730957,1.0,0.0,0.0,0.0,1.0,0.0,0.0,0.0,1.0
1464167291356391157,195,1464167291353766190,,6.37381362915,-10.3342695236,-55.0810775757,0.00130700005684,1.0,0.0,0.0,0.0,1.0,0.0,0.0,0.0,1.0,-1.95121955872,2.07317066193,-0.975609779358,1.0,0.0,0.0,0.0,1.0,0.0,0.0,0.0,1.0,-0.0430956298828,-0.794874951172,10.4482960449,1.0,0.0,0.0,0.0,1.0,0.0,0.0,0.0,1.0
1464167291381343192,196,1464167291375469282,,6.32606315613,-10.2683286667,-55.0975914001,0.00217500003055,1.0,0.0,0.0,0.0,1.0,0.0,0.0,0.0,1.0,-0.975609779358,1.76829278469,-1.15853655338,1.0,0.0,0.0,0.0,1.0,0.0,0.0,0.0,1.0,-0.0478840332031,-0.876277807617,10.1992990723,1.0,0.0,0.0,0.0,1.0,0.0,0.0,0.0,1.0
1464167291398467045,197,1464167291395814941,,6.28391456604,-10.19739151,-55.113571167,0.00127000000793,1.0,0.0,0.0,0.0,1.0,0.0,0.0,0.0,1.0,-0.914634168148,2.01219511032,-0.243902444839,1.0,0.0,0.0,0.0,1.0,0.0,0.0,0.0,1.0,-0.244208569336,-0.948103857422,10.0364933594,1.0,0.0,0.0,0.0,1.0,0.0,0.0,0.0,1.0
1464167291422371655,198,1464167291416982289,,6.25160980225,-10.1154136658,-55.1094360352,0.00138899998274,1.0,0.0,0.0,0.0,1.0,0.0,0.0,0.0,1.0,-0.304878056049,1.8292683363,0.0609756112099,1.0,0.0,0.0,0.0,1.0,0.0,0.0,0.0,1.0,-0.15801730957,-0.876277807617,10.1609918457,1.0,0.0,0.0,0.0,1.0,0.0,0.0,0.0,1.0
1464167291440242715,199,1464167291437739470,,6.22105884552,-10.0114898682,-55.0975723267,0.00135200005025,1.0,0.0,0.0,0.0,1.0,0.0,0.0,0.0,1.0,0.18292683363,2.25609779358,0.304878056049,1.0,0.0,0.0,0.0,1.0,0.0,0.0,0.0,1.0,-0.201112939453,-0.790086547852,10.1418382324,1.0,0.0,0.0,0.0,1.0,0.0,0.0,0.0,1.0
1464167291460403473,200,1464167291458802700,,6.20456171036,-9.91044807434,-55.0829963684,0.00123599998187,1.0,0.0,0.0,0.0,1.0,0.0,0.0,0.0,1.0,-0.731707334518,2.86585378647,0.670731723309,1.0,0.0,0.0,0.0,1.0,0.0,0.0,0.0,1.0,-0.205901342773,-0.881066210937,10.2711251221,1.0,0.0,0.0,0.0,1.0,0.0,0.0,0.0,1.0
1464167291482771583,201,1464167291479672749,,6.20479393005,-9.82190704346,-55.06615448,0.00108700001147,1.0,0.0,0.0,0.0,1.0,0.0,0.0,0.0,1.0,-0.548780500889,2.74390244484,0.792682945728,1.0,0.0,0.0,0.0,1.0,0.0,0.0,0.0,1.0,-0.196324536133,-0.861912597656,10.1562034424,1.0,0.0,0.0,0.0,1.0,0.0,0.0,0.0,1.0
1464167291503706425,202,1464167291500785460,,6.1801109314,-9.73083591461,-55.052318573,0.00104000000283,1.0,0.0,0.0,0.0,1.0,0.0,0.0,0.0,1.0,-0.548780500889,1.03658533096,-0.487804889679,1.0,0.0,0.0,0.0,1.0,0.0,0.0,0.0,1.0,-0.0191536132812,-0.756567724609,9.99818613281,1.0,0.0,0.0,0.0,1.0,0.0,0.0,0.0,1.0
1464167291525121436,203,1464167291521904994,,6.09494066238,-9.64705562592,-55.0717391968,0.00101600005291,1.0,0.0,0.0,0.0,1.0,0.0,0.0,0.0,1.0,-0.853658556938,0.12195122242,-2.37804889679,1.0,0.0,0.0,0.0,1.0,0.0,0.0,0.0,1.0,-0.196324536133,-0.967257470703,10.3621047852,1.0,0.0,0.0,0.0,1.0,0.0,0.0,0.0,1.0
1464167291546583844,204,1464167291543145313,,6.06834363937,-9.58309841156,-55.0960083008,0.0010150000453,1.0,0.0,0.0,0.0,1.0,0.0,0.0,0.0,1.0,-0.975609779358,2.01219511032,0.548780500889,1.0,0.0,0.0,0.0,1.0,0.0,0.0,0.0,1.0,-0.335188232422,-0.732625708008,10.3956236084,1.0,0.0,0.0,0.0,1.0,0.0,0.0,0.0,1.0
1464167291567250189,205,1464167291564465061,,6.12938737869,-9.49390029907,-55.0178146362,0.001408000011,1.0,0.0,0.0,0.0,1.0,0.0,0.0,0.0,1.0,-0.548780500889,1.09756100178,4.14634132385,1.0,0.0,0.0,0.0,1.0,0.0,0.0,0.0,1.0,-0.239420166016,-0.651222851562,10.285490332,1.0,0.0,0.0,0.0,1.0,0.0,0.0,0.0,1.0
1464167291589982111,206,1464167291585519698,,6.07906103134,-9.41235733032,-54.9484176636,0.00107999995816,1.0,0.0,0.0,0.0,1.0,0.0,0.0,0.0,1.0,-1.09756100178,-2.62195134163,0.0,1.0,0.0,0.0,0.0,1.0,0.0,0.0,0.0,1.0,0.502782348633,-0.636857641602,10.165780249,1.0,0.0,0.0,0.0,1.0,0.0,0.0,0.0,1.0
1464167291608779759,207,1464167291606170001,,5.91995000839,-9.35576534271,-54.9817085266,0.00125900004059,1.0,0.0,0.0,0.0,1.0,0.0,0.0,0.0,1.0,-2.13414645195,1.2195122242,-3.10975623131,1.0,0.0,0.0,0.0,1.0,0.0,0.0,0.0,1.0,0.263362164351,-1.03429511719,10.6829278076,1.0,0.0,0.0,0.0,1.0,0.0,0.0,0.0,1.0
1464167291636655988,208,1464167291626924525,,5.94841384888,-9.3266210556,-54.9802742004,0.001215999946,1.0,0.0,0.0,0.0,1.0,0.0,0.0,0.0,1.0,0.18292683363,4.20731735229,2.98780488968,1.0,0.0,0.0,0.0,1.0,0.0,0.0,0.0,1.0,-0.818816967773,-0.857124194336,9.80665,1.0,0.0,0.0,0.0,1.0,0.0,0.0,0.0,1.0
1464167291650510845,209,1464167291647511649,,6.01101303101,-9.23773574829,-54.897808075,0.0009710000013,1.0,0.0,0.0,0.0,1.0,0.0,0.0,0.0,1.0,0.487804889679,3.04878044128,4.2682929039,1.0,0.0,0.0,0.0,1.0,0.0,0.0,0.0,1.0,-0.565031591797,-0.641646044922,10.0077629395,1.0,0.0,0.0,0.0,1.0,0.0,0.0,0.0,1.0
1464167291678152068,210,1464167291668855408,,5.95917892456,-9.15029811859,-54.8555870056,0.00108499999624,1.0,0.0,0.0,0.0,1.0,0.0,0.0,0.0,1.0,-0.548780500889,-0.487804889679,-2.13414645195,1.0,0.0,0.0,0.0,1.0,0.0,0.0,0.0,1.0,0.263362164351,-0.526724328702,9.94551369629,1.0,0.0,0.0,0.0,1.0,0.0,0.0,0.0,1.0
1464167291694766532,211,1464167291689700925,,5.84144020081,-9.06827926636,-54.9137458801,0.00106599996798,1.0,0.0,0.0,0.0,1.0,0.0,0.0,0.0,1.0,0.0609756112099,2.92682933807,-2.68292689323,1.0,0.0,0.0,0.0,1.0,0.0,0.0,0.0,1.0,-0.296881024126,-1.41736738281,10.3477395752,1.0,0.0,0.0,0.0,1.0,0.0,0.0,0.0,1.0
1464167291715904139,212,1464167291710587640,,5.87496232986,-8.97867965698,-54.9263572693,0.00106299994513,1.0,0.0,0.0,0.0,1.0,0.0,0.0,0.0,1.0,2.31707310677,3.7804877758,0.914634168148,1.0,0.0,0.0,0.0,1.0,0.0,0.0,0.0,1.0,-0.3064578125,-0.77093293457,10.0508585693,1.0,0.0,0.0,0.0,1.0,0.0,0.0,0.0,1.0
1464167291738085109,213,1464167291731714883,,5.91803598404,-8.86329269409,-54.9051818848,0.00115200004075,1.0,0.0,0.0,0.0,1.0,0.0,0.0,0.0,1.0,1.70731711388,2.13414645195,0.670731723309,1.0,0.0,0.0,0.0,1.0,0.0,0.0,0.0,1.0,-0.244208569336,-0.694318481445,9.90720646973,1.0,0.0,0.0,0.0,1.0,0.0,0.0,0.0,1.0
1464167291761263085,214,1464167291755305422,,5.89607810974,-8.74767208099,-54.8967475891,0.0012229999993,1.0,0.0,0.0,0.0,1.0,0.0,0.0,0.0,1.0,1.8292683363,2.07317066193,0.0,1.0,0.0,0.0,0.0,1.0,0.0,0.0,0.0,1.0,-0.143652099609,-0.852335791016,10.2902787354,1.0,0.0,0.0,0.0,1.0,0.0,0.0,0.0,1.0
1464167291780193445,215,1464167291776925543,,5.87433767319,-8.6336107254,-54.8880271912,0.00535700004548,1.0,0.0,0.0,0.0,1.0,0.0,0.0,0.0,1.0,1.46341466904,2.68292689323,0.426829278469,1.0,0.0,0.0,0.0,1.0,0.0,0.0,0.0,1.0,-0.172382519531,-0.852335791016,10.0221281494,1.0,0.0,0.0,0.0,1.0,0.0,0.0,0.0,1.0
1464167291801135422,216,1464167291798365711,,5.89302158356,-8.53919410706,-54.8637466431,0.00477899983525,1.0,0.0,0.0,0.0,1.0,0.0,0.0,0.0,1.0,0.731707334518,2.92682933807,1.46341466904,1.0,0.0,0.0,0.0,1.0,0.0,0.0,0.0,1.0,-0.469263525391,-0.995987890625,10.2376062988,1.0,0.0,0.0,0.0,1.0,0.0,0.0,0.0,1.0
1464167291823521970,217,1464167291820071511,,5.90034627914,-8.45324039459,-54.8275222778,0.00121200003196,1.0,0.0,0.0,0.0,1.0,0.0,0.0,0.0,1.0,0.548780500889,0.975609779358,1.03658533096,1.0,0.0,0.0,0.0,1.0,0.0,0.0,0.0,1.0,-0.536301208408,-0.723048901367,9.75397756348,1.0,0.0,0.0,0.0,1.0,0.0,0.0,0.0,1.0
1464167291846479419,218,1464167291840981144,,5.7582154274,-8.38206577301,-54.8659591675,0.0011040000245,1.0,0.0,0.0,0.0,1.0,0.0,0.0,0.0,1.0,0.0,0.0609756112099,-3.41463422775,1.0,0.0,0.0,0.0,1.0,0.0,0.0,0.0,1.0,0.215478149414,-0.790086547852,10.2423947021,1.0,0.0,0.0,0.0,1.0,0.0,0.0,0.0,1.0
1464167291866489913,219,1464167291862320060,,5.74395418167,-8.34765338898,-54.9156761169,0.00110600003973,1.0,0.0,0.0,0.0,1.0,0.0,0.0,0.0,1.0,-0.975609779358,2.37804889679,-1.34146344662,1.0,0.0,0.0,0.0,1.0,0.0,0.0,0.0,1.0,-0.114921679688,-0.905008227539,10.4770264648,1.0,0.0,0.0,0.0,1.0,0.0,0.0,0.0,1.0
1464167291887704762,220,1464167291882885308,,5.78203582764,-8.29607105255,-54.9211769104,0.00100100005511,1.0,0.0,0.0,0.0,1.0,0.0,0.0,0.0,1.0,-0.18292683363,3.90243911743,0.0609756112099,1.0,0.0,0.0,0.0,1.0,0.0,0.0,0.0,1.0,-0.541089611728,-0.804451757813,10.0556469727,1.0,0.0,0.0,0.0,1.0,0.0,0.0,0.0,1.0
1464167291906964767,221,1464167291903705876,,5.79549407959,-8.2488861084,-54.9225654602,0.000957000011113,1.0,0.0,0.0,0.0,1.0,0.0,0.0,0.0,1.0,-0.975609779358,3.84146332741,-0.0609756112099,1.0,0.0,0.0,0.0,1.0,0.0,0.0,0.0,1.0,-0.148440512063,-0.847547387695,10.1131078125,1.0,0.0,0.0,0.0,1.0,0.0,0.0,0.0,1.0
1464167291932731511,222,1464167291924375294,,5.80740737915,-8.22150039673,-54.9340591431,0.00116500002332,1.0,0.0,0.0,0.0,1.0,0.0,0.0,0.0,1.0,-1.03658533096,3.47560977936,-0.548780500889,1.0,0.0,0.0,0.0,1.0,0.0,0.0,0.0,1.0,-0.244208569336,-0.967257470703,10.3764699951,1.0,0.0,0.0,0.0,1.0,0.0,0.0,0.0,1.0
1464167291955587030,223,1464167291945350032,,5.83088922501,-8.18601417542,-54.9476013184,0.00125400000252,1.0,0.0,0.0,0.0,1.0,0.0,0.0,0.0,1.0,0.18292683363,3.53658556938,-0.487804889679,1.0,0.0,0.0,0.0,1.0,0.0,0.0,0.0,1.0,-0.138863696289,-0.895431420898,10.0891657959,1.0,0.0,0.0,0.0,1.0,0.0,0.0,0.0,1.0
1464167291968627855,224,1464167291966164402,,5.84213018417,-8.13767623901,-54.9588050842,0.00103499996476,1.0,0.0,0.0,0.0,1.0,0.0,0.0,0.0,1.0,-0.304878056049,2.86585378647,-0.426829278469,1.0,0.0,0.0,0.0,1.0,0.0,0.0,0.0,1.0,-0.0909796630859,-0.938527050781,10.3046439453,1.0,0.0,0.0,0.0,1.0,0.0,0.0,0.0,1.0
1464167291993887710,225,1464167291986697045,,5.86246490479,-8.08398914337,-54.9612693787,0.00103399995714,1.0,0.0,0.0,0.0,1.0,0.0,0.0,0.0,1.0,0.243902444839,4.39024400711,0.243902444839,1.0,0.0,0.0,0.0,1.0,0.0,0.0,0.0,1.0,-0.584185168546,-0.876277807617,10.0939541992,1.0,0.0,0.0,0.0,1.0,0.0,0.0,0.0,1.0
1464167292010373160,226,1464167292007594751,,5.90218305588,-8.01721286774,-54.9319229126,0.0011269999668,1.0,0.0,0.0,0.0,1.0,0.0,0.0,0.0,1.0,0.914634168148,2.98780488968,2.31707310677,1.0,0.0,0.0,0.0,1.0,0.0,0.0,0.0,1.0,-0.579396801758,-0.670376464844,9.86411083984,1.0,0.0,0.0,0.0,1.0,0.0,0.0,0.0,1.0
1464167292033565042,227,1464167292028401881,,5.85146188736,-7.93982458115,-54.9028358459,0.00100599997677,1.0,0.0,0.0,0.0,1.0,0.0,0.0,0.0,1.0,-0.12195122242,-1.70731711388,-2.13414645195,1.0,0.0,0.0,0.0,1.0,0.0,0.0,0.0,1.0,0.320823022461,-0.579396801758,10.0077629395,1.0,0.0,0.0,0.0,1.0,0.0,0.0,0.0,1.0
1464167292054701192,228,1464167292048783166,,5.72575616837,-7.89176130295,-54.9515304565,0.0011569999624,1.0,0.0,0.0,0.0,1.0,0.0,0.0,0.0,1.0,-0.731707334518,1.64634156227,-2.56097555161,1.0,0.0,0.0,0.0,1.0,0.0,0.0,0.0,1.0,-0.411802685547,-1.2737152832,10.4099888184,1.0,0.0,0.0,0.0,1.0,0.0,0.0,0.0,1.0
1464167292074573557,229,1464167292070008067,,5.75089645386,-7.85784053802,-54.9428253174,0.000967999978457,1.0,0.0,0.0,0.0,1.0,0.0,0.0,0.0,1.0,-0.0609756112099,3.04878044128,2.68292689323,1.0,0.0,0.0,0.0,1.0,0.0,0.0,0.0,1.0,-0.3064578125,-0.876277807617,10.0891657959,1.0,0.0,0.0,0.0,1.0,0.0,0.0,0.0,1.0
1464167292096853800,230,1464167292091162915,,5.7939915657,-7.80363321304,-54.8847770691,0.000976999988779,1.0,0.0,0.0,0.0,1.0,0.0,0.0,0.0,1.0,-1.03658533096,0.609756112099,2.37804889679,1.0,0.0,0.0,0.0,1.0,0.0,0.0,0.0,1.0,-0.181959326172,-0.622492431641,10.1705686523,1.0,0.0,0.0,0.0,1.0,0.0,0.0,0.0,1.0
1464167292118919610,231,1464167292111866553,,5.73092937469,-7.77877426147,-54.8631134033,0.00124200002756,1.0,0.0,0.0,0.0,1.0,0.0,0.0,0.0,1.0,-2.31707310677,-0.609756112099,-1.15853655338,1.0,0.0,0.0,0.0,1.0,0.0,0.0,0.0,1.0,0.148440512063,-0.579396801758,10.4674496582,1.0,0.0,0.0,0.0,1.0,0.0,0.0,0.0,1.0
1464167292140670620,232,1464167292133267657,,5.66267776489,-7.77950954437,-54.8987083435,0.00115599995479,1.0,0.0,0.0,0.0,1.0,0.0,0.0,0.0,1.0,-2.80487799644,2.37804889679,-1.2804877758,1.0,0.0,0.0,0.0,1.0,0.0,0.0,0.0,1.0,-0.292092584273,-1.11090957031,10.6206785645,1.0,0.0,0.0,0.0,1.0,0.0,0.0,0.0,1.0
1464167292157833431,233,1464167292155693686,,5.72213554382,-7.77026224136,-54.8885345459,0.0015640000347,1.0,0.0,0.0,0.0,1.0,0.0,0.0,0.0,1.0,-0.792682945728,4.45121955872,2.01219511032,1.0,0.0,0.0,0.0,1.0,0.0,0.0,0.0,1.0,-0.339976635742,-0.751779321289,9.99818613281,1.0,0.0,0.0,0.0,1.0,0.0,0.0,0.0,1.0
1464167292177528552,234,1464167292175920279,,5.7671456337,-7.73674488068,-54.84633255,0.00181699998211,1.0,0.0,0.0,0.0,1.0,0.0,0.0,0.0,1.0,-1.46341466904,1.34146344662,0.609756112099,1.0,0.0,0.0,0.0,1.0,0.0,0.0,0.0,1.0,0.148440512063,-0.900219824219,9.81622680664,1.0,0.0,0.0,0.0,1.0,0.0,0.0,0.0,1.0
1464167292201328732,235,1464167292196642563,,5.66325378418,-7.70147323608,-54.8803634644,0.00140399998054,1.0,0.0,0.0,0.0,1.0,0.0,0.0,0.0,1.0,-1.03658533096,0.18292683363,-4.57317066193,1.0,0.0,0.0,0.0,1.0,0.0,0.0,0.0,1.0,0.828393774414,-0.967257470703,10.299855542,1.0,0.0,0.0,0.0,1.0,0.0,0.0,0.0,1.0
1464167292222009244,236,1464167292217467141,,5.66578102112,-7.6791434288,-54.9584960938,0.00147300004028,1.0,0.0,0.0,0.0,1.0,0.0,0.0,0.0,1.0,-0.0609756112099,4.87804889679,-1.52439022064,1.0,0.0,0.0,0.0,1.0,0.0,0.0,0.0,1.0,-0.694318481445,-1.10612116699,10.2040874756,1.0,0.0,0.0,0.0,1.0,0.0,0.0,0.0,1.0
1464167292241123620,237,1464167292237926397,,5.72861766815,-7.62604570389,-54.9784088135,0.00144899997395,1.0,0.0,0.0,0.0,1.0,0.0,0.0,0.0,1.0,0.0,3.96341490746,-0.365853667259,1.0,0.0,0.0,0.0,1.0,0.0,0.0,0.0,1.0,-0.325611425781,-0.708683691406,10.0939541992,1.0,0.0,0.0,0.0,1.0,0.0,0.0,0.0,1.0
1464167292261810746,238,1464167292258861447,,5.74265480042,-7.57099294662,-55.0001068115,0.00115899997763,1.0,0.0,0.0,0.0,1.0,0.0,0.0,0.0,1.0,0.304878056049,1.8292683363,-1.40243899822,1.0,0.0,0.0,0.0,1.0,0.0,0.0,0.0,1.0,-0.258573779297,-0.9193734375,10.1609918457,1.0,0.0,0.0,0.0,1.0,0.0,0.0,0.0,1.0
1464167292281961869,239,1464167292279464978,,5.76312732697,-7.52300834656,-54.9988708496,0.00120199995581,1.0,0.0,0.0,0.0,1.0,0.0,0.0,0.0,1.0,0.426829278469,2.37804889679,1.09756100178,1.0,0.0,0.0,0.0,1.0,0.0,0.0,0.0,1.0,-0.541089611728,-0.9193734375,10.4291424316,1.0,0.0,0.0,0.0,1.0,0.0,0.0,0.0,1.0
1464167292303815902,240,1464167292300291796,,5.76245641708,-7.46560525894,-54.9633789062,0.00114299997222,1.0,0.0,0.0,0.0,1.0,0.0,0.0,0.0,1.0,0.487804889679,0.670731723309,1.46341466904,1.0,0.0,0.0,0.0,1.0,0.0,0.0,0.0,1.0,-0.114921679688,-0.679953271484,9.77791958008,1.0,0.0,0.0,0.0,1.0,0.0,0.0,0.0,1.0
1464167292325625976,241,1464167292321368152,,5.63414096832,-7.40785169601,-55.008769989,0.00137299997732,1.0,0.0,0.0,0.0,1.0,0.0,0.0,0.0,1.0,0.18292683363,0.304878056049,-3.71951246262,1.0,0.0,0.0,0.0,1.0,0.0,0.0,0.0,1.0,0.167594116211,-0.818816967773,10.3429511719,1.0,0.0,0.0,0.0,1.0,0.0,0.0,0.0,1.0
1464167292345441152,242,1464167292342269243,,5.64114570618,-7.39111328125,-55.0489501953,0.0009710000013,1.0,0.0,0.0,0.0,1.0,0.0,0.0,0.0,1.0,0.731707334518,2.92682933807,-0.609756112099,1.0,0.0,0.0,0.0,1.0,0.0,0.0,0.0,1.0,-0.268150604204,-1.10612116699,10.3621047852,1.0,0.0,0.0,0.0,1.0,0.0,0.0,0.0,1.0
1464167292367119816,243,1464167292363807226,,5.68971204758,-7.31351900101,-55.034614563,0.00113999994937,1.0,0.0,0.0,0.0,1.0,0.0,0.0,0.0,1.0,2.01219511032,3.10975623131,1.15853655338,1.0,0.0,0.0,0.0,1.0,0.0,0.0,0.0,1.0,-0.469263525391,-0.636857641602,9.89762966309,1.0,0.0,0.0,0.0,1.0,0.0,0.0,0.0,1.0
1464167292387938301,244,1464167292384077883,,5.69364547729,-7.23918008804,-55.0223197937,0.00105600000825,1.0,0.0,0.0,0.0,1.0,0.0,0.0,0.0,1.0,0.304878056049,2.25609779358,0.18292683363,1.0,0.0,0.0,0.0,1.0,0.0,0.0,0.0,1.0,-0.15801730957,-0.689530078125,10.2184526855,1.0,0.0,0.0,0.0,1.0,0.0,0.0,0.0,1.0
1464167292408775015,245,1464167292405166479,,5.69175195694,-7.18970394135,-55.0228996277,0.00159600004554,1.0,0.0,0.0,0.0,1.0,0.0,0.0,0.0,1.0,-0.18292683363,3.47560977936,-0.18292683363,1.0,0.0,0.0,0.0,1.0,0.0,0.0,0.0,1.0,0.0,-0.866701000977,10.3908352051,1.0,0.0,0.0,0.0,1.0,0.0,0.0,0.0,1.0
1464167292433526263,246,1464167292430895618,,5.72818565369,-7.15701198578,-55.0251998901,0.00322500010952,1.0,0.0,0.0,0.0,1.0,0.0,0.0,0.0,1.0,-1.2804877758,4.02439022064,-0.12195122242,1.0,0.0,0.0,0.0,1.0,0.0,0.0,0.0,1.0,-0.407014282227,-0.742202514648,10.165780249,1.0,0.0,0.0,0.0,1.0,0.0,0.0,0.0,1.0
1464167292452601939,247,1464167292448522036,,5.74941730499,-7.14174127579,-55.0322303772,0.00114499998745,1.0,0.0,0.0,0.0,1.0,0.0,0.0,0.0,1.0,-0.914634168148,2.80487799644,-0.365853667259,1.0,0.0,0.0,0.0,1.0,0.0,0.0,0.0,1.0,-0.344765039063,-0.957680664062,10.165780249,1.0,0.0,0.0,0.0,1.0,0.0,0.0,0.0,1.0
1464167292473937261,248,1464167292470295182,,5.73944616318,-7.12078237534,-55.0430984497,0.00188300001901,1.0,0.0,0.0,0.0,1.0,0.0,0.0,0.0,1.0,0.12195122242,1.76829278469,-0.670731723309,1.0,0.0,0.0,0.0,1.0,0.0,0.0,0.0,1.0,-0.239420166016,-0.957680664062,10.180145459,1.0,0.0,0.0,0.0,1.0,0.0,0.0,0.0,1.0
1464167292493064814,249,1464167292491297734,,5.72690534592,-7.08333301544,-55.0487670898,0.000999000039883,1.0,0.0,0.0,0.0,1.0,0.0,0.0,0.0,1.0,0.243902444839,2.74390244484,-0.12195122242,1.0,0.0,0.0,0.0,1.0,0.0,0.0,0.0,1.0,-0.100556469727,-0.890643017578,9.92157167969,1.0,0.0,0.0,0.0,1.0,0.0,0.0,0.0,1.0
1464167292522397905,250,1464167292512808790,,5.75381469727,-7.03080272675,-55.036151886,0.00117099995259,1.0,0.0,0.0,0.0,1.0,0.0,0.0,0.0,1.0,0.243902444839,4.93902444839,1.58536589146,1.0,0.0,0.0,0.0,1.0,0.0,0.0,0.0,1.0,-0.359130249023,-0.679953271484,9.90720646973,1.0,0.0,0.0,0.0,1.0,0.0,0.0,0.0,1.0
1464167292540073700,251,1464167292533680713,,5.80301427841,-6.9789557457,-54.9953727722,0.00125900004059,1.0,0.0,0.0,0.0,1.0,0.0,0.0,0.0,1.0,0.12195122242,3.10975623131,2.19512200356,1.0,0.0,0.0,0.0,1.0,0.0,0.0,0.0,1.0,-0.330399829102,-0.837970581055,9.92157167969,1.0,0.0,0.0,0.0,1.0,0.0,0.0,0.0,1.0
1464167292559829759,252,1464167292555822150,,5.7841925621,-6.92985677719,-54.957359314,0.00185899995267,1.0,0.0,0.0,0.0,1.0,0.0,0.0,0.0,1.0,-0.12195122242,0.914634168148,0.792682945728,1.0,0.0,0.0,0.0,1.0,0.0,0.0,0.0,1.0,-0.067037651051,-0.881066210937,10.2567599121,1.0,0.0,0.0,0.0,1.0,0.0,0.0,0.0,1.0
1464167292585521814,253,1464167292576872099,,5.73161745071,-6.89378833771,-54.9530754089,0.00131800002418,1.0,0.0,0.0,0.0,1.0,0.0,0.0,0.0,1.0,0.0,0.487804889679,-0.731707334518,1.0,0.0,0.0,0.0,1.0,0.0,0.0,0.0,1.0,-0.287304199219,-0.790086547852,10.2376062988,1.0,0.0,0.0,0.0,1.0,0.0,0.0,0.0,1.0
1464167292604834424,254,1464167292598059187,,5.63068532944,-6.86014270782,-54.9910850525,0.00132799998391,1.0,0.0,0.0,0.0,1.0,0.0,0.0,0.0,1.0,-0.609756112099,0.304878056049,-3.23170733452,1.0,0.0,0.0,0.0,1.0,0.0,0.0,0.0,1.0,0.172382519531,-0.694318481445,10.4147772217,1.0,0.0,0.0,0.0,1.0,0.0,0.0,0.0,1.0
1464167292628109851,255,1464167292619870564,,5.62783098221,-6.85905981064,-55.0376205444,0.00152000004891,1.0,0.0,0.0,0.0,1.0,0.0,0.0,0.0,1.0,0.365853667259,5.54878091812,0.487804889679,1.0,0.0,0.0,0.0,1.0,0.0,0.0,0.0,1.0,-1.05823706072,-1.09175595703,10.3477395752,1.0,0.0,0.0,0.0,1.0,0.0,0.0,0.0,1.0
1464167292643803508,256,1464167292641296356,,5.73364448547,-6.81612491608,-54.9848861694,0.00153300003149,1.0,0.0,0.0,0.0,1.0,0.0,0.0,0.0,1.0,-0.487804889679,4.63414621353,3.84146332741,1.0,0.0,0.0,0.0,1.0,0.0,0.0,0.0,1.0,-0.478840332031,-0.517147558594,10.2471831055,1.0,0.0,0.0,0.0,1.0,0.0,0.0,0.0,1.0
1464167292666280058,257,1464167292662919654,,5.75301504135,-6.78467607498,-54.9280776978,0.00136999995448,1.0,0.0,0.0,0.0,1.0,0.0,0.0,0.0,1.0,-1.76829278469,1.03658533096,0.731707334518,1.0,0.0,0.0,0.0,1.0,0.0,0.0,0.0,1.0,0.0526724365234,-0.665588061523,10.1705686523,1.0,0.0,0.0,0.0,1.0,0.0,0.0,0.0,1.0
1464167292687090782,258,1464167292684784105,,5.62991380692,-6.77960824966,-54.9858131409,0.00147599994671,1.0,0.0,0.0,0.0,1.0,0.0,0.0,0.0,1.0,-2.25609779358,2.13414645195,-3.90243911743,1.0,0.0,0.0,0.0,1.0,0.0,0.0,0.0,1.0,0.215478149414,-0.905008227539,10.5775829346,1.0,0.0,0.0,0.0,1.0,0.0,0.0,0.0,1.0
1464167292707377169,259,1464167292705158202,,5.66542577744,-6.80367851257,-55.0156135559,0.00109899998643,1.0,0.0,0.0,0.0,1.0,0.0,0.0,0.0,1.0,-0.609756112099,4.02439022064,0.0,1.0,0.0,0.0,0.0,1.0,0.0,0.0,0.0,1.0,-0.531512805087,-1.03908344744,10.2471831055,1.0,0.0,0.0,0.0,1.0,0.0,0.0,0.0,1.0
1464167292729411884,260,1464167292726687591,,5.71269893646,-6.77587175369,-54.9918251038,0.00151500001084,1.0,0.0,0.0,0.0,1.0,0.0,0.0,0.0,1.0,-0.243902444839,1.64634156227,1.34146344662,1.0,0.0,0.0,0.0,1.0,0.0,0.0,0.0,1.0,-0.507570751953,-0.622492431641,9.84016882324,1.0,0.0,0.0,0.0,1.0,0.0,0.0,0.0,1.0
1464167292751179978,261,1464167292748206876,,5.67226886749,-6.73882055283,-54.9745101929,0.00168500002474,1.0,0.0,0.0,0.0,1.0,0.0,0.0,0.0,1.0,0.18292683363,0.0609756112099,0.243902444839,1.0,0.0,0.0,0.0,1.0,0.0,0.0,0.0,1.0,0.0,-0.876277807617,10.2567599121,1.0,0.0,0.0,0.0,1.0,0.0,0.0,0.0,1.0
1464167292771203910,262,1464167292768986870,,5.62036371231,-6.70323419571,-54.9635353088,0.00138899998274,1.0,0.0,0.0,0.0,1.0,0.0,0.0,0.0,1.0,1.03658533096,1.58536589146,0.670731723309,1.0,0.0,0.0,0.0,1.0,0.0,0.0,0.0,1.0,-0.138863696289,-0.871489404297,10.5009684814,1.0,0.0,0.0,0.0,1.0,0.0,0.0,0.0,1.0
1464167292793520560,263,1464167292790210834,,5.6368765831,-6.64747619629,-54.9276008606,0.00137399998493,1.0,0.0,0.0,0.0,1.0,0.0,0.0,0.0,1.0,1.2804877758,3.04878044128,2.07317066193,1.0,0.0,0.0,0.0,1.0,0.0,0.0,0.0,1.0,-0.478840332031,-0.76614453125,9.83538041992,1.0,0.0,0.0,0.0,1.0,0.0,0.0,0.0,1.0
1464167292815397459,264,1464167292811621366,,5.67695474625,-6.58663511276,-54.8655395508,0.00124400004279,1.0,0.0,0.0,0.0,1.0,0.0,0.0,0.0,1.0,0.731707334518,2.13414645195,2.56097555161,1.0,0.0,0.0,0.0,1.0,0.0,0.0,0.0,1.0,-0.349553442383,-0.814028564453,10.0939541992,1.0,0.0,0.0,0.0,1.0,0.0,0.0,0.0,1.0
1464167292835264146,265,1464167292832762203,,5.64935779572,-6.52703475952,-54.8256874084,0.00112399994396,1.0,0.0,0.0,0.0,1.0,0.0,0.0,0.0,1.0,0.853658556938,0.0609756112099,0.670731723309,1.0,0.0,0.0,0.0,1.0,0.0,0.0,0.0,1.0,-0.0957680664062,-0.76135612793,10.3716815918,1.0,0.0,0.0,0.0,1.0,0.0,0.0,0.0,1.0
1464167292856945988,266,1464167292853847674,,5.5880355835,-6.48654985428,-54.8230018616,0.00126799999271,1.0,0.0,0.0,0.0,1.0,0.0,0.0,0.0,1.0,0.243902444839,0.975609779358,-0.609756112099,1.0,0.0,0.0,0.0,1.0,0.0,0.0,0.0,1.0,-0.0861912597656,-0.972045874023,10.4722380615,1.0,0.0,0.0,0.0,1.0,0.0,0.0,0.0,1.0
1464167292878942942,267,1464167292876378288,,5.55070447922,-6.45560216904,-54.8354644775,0.00198599998839,1.0,0.0,0.0,0.0,1.0,0.0,0.0,0.0,1.0,0.731707334518,1.70731711388,-0.731707334518,1.0,0.0,0.0,0.0,1.0,0.0,0.0,0.0,1.0,-0.215478149414,-0.876277807617,10.0795889893,1.0,0.0,0.0,0.0,1.0,0.0,0.0,0.0,1.0
1464167292901337719,268,1464167292897882312,,5.54172372818,-6.41966676712,-54.843006134,0.00148400000762,1.0,0.0,0.0,0.0,1.0,0.0,0.0,0.0,1.0,0.487804889679,1.46341466904,-0.792682945728,1.0,0.0,0.0,0.0,1.0,0.0,0.0,0.0,1.0,-0.282515795898,-0.790086547852,10.1897222656,1.0,0.0,0.0,0.0,1.0,0.0,0.0,0.0,1.0
1464167292922337667,269,1464167292919456599,,5.48153543472,-6.37874031067,-54.8724822998,0.00124899996445,1.0,0.0,0.0,0.0,1.0,0.0,0.0,0.0,1.0,-0.12195122242,1.2195122242,-2.25609779358,1.0,0.0,0.0,0.0,1.0,0.0,0.0,0.0,1.0,-0.00957680664062,-0.708683691406,10.1609918457,1.0,0.0,0.0,0.0,1.0,0.0,0.0,0.0,1.0
1464167292943144120,270,1464167292940487849,,5.47412538528,-6.37139606476,-54.9145278931,0.00145500001963,1.0,0.0,0.0,0.0,1.0,0.0,0.0,0.0,1.0,-1.58536589146,4.2682929039,-0.975609779358,1.0,0.0,0.0,0.0,1.0,0.0,0.0,0.0,1.0,-0.31124621582,-0.876277807617,10.1609918457,1.0,0.0,0.0,0.0,1.0,0.0,0.0,0.0,1.0
1464167292963780568,271,1464167292961349929,,5.5477514267,-6.37303209305,-54.9074745178,0.00137800001539,1.0,0.0,0.0,0.0,1.0,0.0,0.0,0.0,1.0,-1.2804877758,4.57317066193,1.2195122242,1.0,0.0,0.0,0.0,1.0,0.0,0.0,0.0,1.0,-0.416591088867,-0.804451757813,10.1131078125,1.0,0.0,0.0,0.0,1.0,0.0,0.0,0.0,1.0
1464167292984234303,272,1464167292981713713,,5.59130334854,-6.36615991592,-54.8820304871,0.00119900004938,1.0,0.0,0.0,0.0,1.0,0.0,0.0,0.0,1.0,-0.975609779358,4.45121955872,1.52439022064,1.0,0.0,0.0,0.0,1.0,0.0,0.0,0.0,1.0,-0.632069238281,-1.22583125,10.1609918457,1.0,0.0,0.0,0.0,1.0,0.0,0.0,0.0,1.0
1464167293005742441,273,1464167293002898249,,5.63100004196,-6.36574602127,-54.8417282104,0.00102500000503,1.0,0.0,0.0,0.0,1.0,0.0,0.0,0.0,1.0,-0.243902444839,4.81707286835,2.86585378647,1.0,0.0,0.0,0.0,1.0,0.0,0.0,0.0,1.0,-0.45968671875,-0.866701000977,10.060435376,1.0,0.0,0.0,0.0,1.0,0.0,0.0,0.0,1.0
1464167293027265268,274,1464167293024994164,,5.63225078583,-6.33728837967,-54.8045387268,0.0011340000201,1.0,0.0,0.0,0.0,1.0,0.0,0.0,0.0,1.0,-0.18292683363,0.365853667259,-1.40243899822,1.0,0.0,0.0,0.0,1.0,0.0,0.0,0.0,1.0,-0.0383072265625,-0.828393774414,9.86411083984,1.0,0.0,0.0,0.0,1.0,0.0,0.0,0.0,1.0
1464167293047419776,275,1464167293045291749,,5.50516653061,-6.31259918213,-54.8689231873,0.0012450000504,1.0,0.0,0.0,0.0,1.0,0.0,0.0,0.0,1.0,-0.365853667259,0.18292683363,-4.32926845551,1.0,0.0,0.0,0.0,1.0,0.0,0.0,0.0,1.0,0.181959326172,-0.900219824219,10.1945106689,1.0,0.0,0.0,0.0,1.0,0.0,0.0,0.0,1.0
1464167293068585718,276,1464167293065924343,,5.5066614151,-6.32065916061,-54.9050254822,0.00117800000589,1.0,0.0,0.0,0.0,1.0,0.0,0.0,0.0,1.0,0.365853667259,2.80487799644,0.0609756112099,1.0,0.0,0.0,0.0,1.0,0.0,0.0,0.0,1.0,-0.474051928711,-1.03429511719,9.98860932617,1.0,0.0,0.0,0.0,1.0,0.0,0.0,0.0,1.0
1464167293089211332,277,1464167293086333754,,5.55304431915,-6.28162002563,-54.8740005493,0.000962999998592,1.0,0.0,0.0,0.0,1.0,0.0,0.0,0.0,1.0,1.2804877758,2.13414645195,1.64634156227,1.0,0.0,0.0,0.0,1.0,0.0,0.0,0.0,1.0,-0.258573779297,-0.943315454102,10.0077629395,1.0,0.0,0.0,0.0,1.0,0.0,0.0,0.0,1.0
1464167293114493689,278,1464167293107453861,,5.5538315773,-6.24063873291,-54.8358192444,0.00141200004146,1.0,0.0,0.0,0.0,1.0,0.0,0.0,0.0,1.0,0.548780500889,1.34146344662,1.8292683363,1.0,0.0,0.0,0.0,1.0,0.0,0.0,0.0,1.0,-0.143652099609,-0.857124194336,10.1131078125,1.0,0.0,0.0,0.0,1.0,0.0,0.0,0.0,1.0
1464167293136619084,279,1464167293127661235,,5.53115224838,-6.2162027359,-54.8031654358,0.000996000017039,1.0,0.0,0.0,0.0,1.0,0.0,0.0,0.0,1.0,-0.548780500889,-0.243902444839,0.853658556938,1.0,0.0,0.0,0.0,1.0,0.0,0.0,0.0,1.0,-0.296881024126,-0.665588061523,9.97903251953,1.0,0.0,0.0,0.0,1.0,0.0,0.0,0.0,1.0
1464167293152534518,280,1464167293148961816,,5.4360165596,-6.20539617538,-54.7924385071,0.00118100002874,1.0,0.0,0.0,0.0,1.0,0.0,0.0,0.0,1.0,-2.56097555161,-2.25609779358,-1.64634156227,1.0,0.0,0.0,0.0,1.0,0.0,0.0,0.0,1.0,0.15322890625,-0.703895288086,10.3094323486,1.0,0.0,0.0,0.0,1.0,0.0,0.0,0.0,1.0
1464167293176947944,281,1464167293169774519,,5.33456611633,-6.23092699051,-54.8399391174,0.000981000019237,1.0,0.0,0.0,0.0,1.0,0.0,0.0,0.0,1.0,-2.01219511032,0.792682945728,-2.01219511032,1.0,0.0,0.0,0.0,1.0,0.0,0.0,0.0,1.0,-0.258573779297,-0.852335791016,9.95987890625,1.0,0.0,0.0,0.0,1.0,0.0,0.0,0.0,1.0
1464167293193252086,282,1464167293190475084,,5.35138368607,-6.26988792419,-54.8451042175,0.00101799995173,1.0,0.0,0.0,0.0,1.0,0.0,0.0,0.0,1.0,-1.64634156227,3.10975623131,1.58536589146,1.0,0.0,0.0,0.0,1.0,0.0,0.0,0.0,1.0,-0.3064578125,-0.857124194336,10.1562034424,1.0,0.0,0.0,0.0,1.0,0.0,0.0,0.0,1.0
1464167293217903228,283,1464167293212073381,,5.39289808273,-6.27018928528,-54.797542572,0.00109200004954,1.0,0.0,0.0,0.0,1.0,0.0,0.0,0.0,1.0,-2.01219511032,1.46341466904,1.09756100178,1.0,0.0,0.0,0.0,1.0,0.0,0.0,0.0,1.0,-0.292092584273,-0.632069238281,10.1035310059,1.0,0.0,0.0,0.0,1.0,0.0,0.0,0.0,1.0
1464167293237554388,284,1464167293233455006,,5.3462305069,-6.29435825348,-54.7946052551,0.00116099999286,1.0,0.0,0.0,0.0,1.0,0.0,0.0,0.0,1.0,-2.80487799644,1.34146344662,-1.76829278469,1.0,0.0,0.0,0.0,1.0,0.0,0.0,0.0,1.0,0.124498486328,-0.981622680664,10.2376062988,1.0,0.0,0.0,0.0,1.0,0.0,0.0,0.0,1.0
1464167293259683794,285,1464167293255347426,,5.31749629974,-6.32701873779,-54.8386497498,0.00157399999443,1.0,0.0,0.0,0.0,1.0,0.0,0.0,0.0,1.0,-2.07317066193,3.35365867615,-2.07317066193,1.0,0.0,0.0,0.0,1.0,0.0,0.0,0.0,1.0,-0.205901342773,-0.981622680664,10.3046439453,1.0,0.0,0.0,0.0,1.0,0.0,0.0,0.0,1.0
1464167293281123285,286,1464167293277417455,,5.33021593094,-6.35229635239,-54.8990135193,0.0014309999533,1.0,0.0,0.0,0.0,1.0,0.0,0.0,0.0,1.0,-2.01219511032,2.86585378647,-2.5,1.0,0.0,0.0,0.0,1.0,0.0,0.0,0.0,1.0,-0.268150604204,-0.790086547852,9.97424411621,1.0,0.0,0.0,0.0,1.0,0.0,0.0,0.0,1.0
1464167293303048310,287,1464167293297428521,,5.34248828888,-6.37408828735,-54.9478340149,0.0015269999858,1.0,0.0,0.0,0.0,1.0,0.0,0.0,0.0,1.0,-1.76829278469,1.76829278469,-2.80487799644,1.0,0.0,0.0,0.0,1.0,0.0,0.0,0.0,1.0,-0.110133276367,-0.775721337891,10.3764699951,1.0,0.0,0.0,0.0,1.0,0.0,0.0,0.0,1.0
1464167293325302823,288,1464167293318866137,,5.30425024033,-6.37733602524,-55.0142364502,0.00153500004672,1.0,0.0,0.0,0.0,1.0,0.0,0.0,0.0,1.0,-0.243902444839,1.34146344662,-3.96341490746,1.0,0.0,0.0,0.0,1.0,0.0,0.0,0.0,1.0,0.067037651051,-0.890643017578,10.180145459,1.0,0.0,0.0,0.0,1.0,0.0,0.0,0.0,1.0
1464167293342957628,289,1464167293340362765,,5.29603910446,-6.37451171875,-55.0873298645,0.00167799997143,1.0,0.0,0.0,0.0,1.0,0.0,0.0,0.0,1.0,-1.09756100178,3.65853667259,-2.07317066193,1.0,0.0,0.0,0.0,1.0,0.0,0.0,0.0,1.0,-0.440533105469,-0.780509741211,10.2280294922,1.0,0.0,0.0,0.0,1.0,0.0,0.0,0.0,1.0
1464167293365887993,290,1464167293362093566,,5.35696744919,-6.37460613251,-55.0931816101,0.00116800004616,1.0,0.0,0.0,0.0,1.0,0.0,0.0,0.0,1.0,-0.731707334518,2.98780488968,0.914634168148,1.0,0.0,0.0,0.0,1.0,0.0,0.0,0.0,1.0,-0.550666381836,-0.814028564453,10.2567599121,1.0,0.0,0.0,0.0,1.0,0.0,0.0,0.0,1.0
1464167293384764601,291,1464167293382300888,,5.38991355896,-6.36135578156,-55.0651016235,0.00117800000589,1.0,0.0,0.0,0.0,1.0,0.0,0.0,0.0,1.0,-0.792682945728,2.62195134163,1.95121955872,1.0,0.0,0.0,0.0,1.0,0.0,0.0,0.0,1.0,-0.675164868164,-0.852335791016,10.0891657959,1.0,0.0,0.0,0.0,1.0,0.0,0.0,0.0,1.0
1464167293407014843,292,1464167293403142498,,5.41449642181,-6.35152626038,-55.0053024292,0.00112300005276,1.0,0.0,0.0,0.0,1.0,0.0,0.0,0.0,1.0,-0.487804889679,2.37804889679,4.02439022064,1.0,0.0,0.0,0.0,1.0,0.0,0.0,0.0,1.0,-0.565031591797,-0.818816967773,10.1945106689,1.0,0.0,0.0,0.0,1.0,0.0,0.0,0.0,1.0
1464167293426888094,293,1464167293424012703,,5.39699935913,-6.33625555038,-54.9338264465,0.00113099999726,1.0,0.0,0.0,0.0,1.0,0.0,0.0,0.0,1.0,-0.792682945728,-0.304878056049,2.56097555161,1.0,0.0,0.0,0.0,1.0,0.0,0.0,0.0,1.0,0.0191536132812,-0.703895288086,10.3333743652,1.0,0.0,0.0,0.0,1.0,0.0,0.0,0.0,1.0
1464167293448127006,294,1464167293444526127,,5.32555961609,-6.32164382935,-54.9013252258,0.0010150000453,1.0,0.0,0.0,0.0,1.0,0.0,0.0,0.0,1.0,-0.792682945728,-0.548780500889,0.609756112099,1.0,0.0,0.0,0.0,1.0,0.0,0.0,0.0,1.0,0.0526724365234,-0.890643017578,10.4147772217,1.0,0.0,0.0,0.0,1.0,0.0,0.0,0.0,1.0
1464167293467941192,295,1464167293465169034,,5.2626953125,-6.30509710312,-54.8960494995,0.00107300002128,1.0,0.0,0.0,0.0,1.0,0.0,0.0,0.0,1.0,0.0609756112099,-0.243902444839,-1.46341466904,1.0,0.0,0.0,0.0,1.0,0.0,0.0,0.0,1.0,-0.00478840332031,-0.694318481445,10.0939541992,1.0,0.0,0.0,0.0,1.0,0.0,0.0,0.0,1.0
1464167293488963641,296,1464167293486354351,,5.19183635712,-6.28416347504,-54.9519691467,0.00109599996358,1.0,0.0,0.0,0.0,1.0,0.0,0.0,0.0,1.0,-0.304878056049,1.8902438879,-3.59756112099,1.0,0.0,0.0,0.0,1.0,0.0,0.0,0.0,1.0,-0.0622492431641,-0.857124194336,10.1178962158,1.0,0.0,0.0,0.0,1.0,0.0,0.0,0.0,1.0
1464167293517276288,297,1464167293507405394,,5.27641487122,-6.28026914597,-54.9852523804,0.00110100000165,1.0,0.0,0.0,0.0,1.0,0.0,0.0,0.0,1.0,-1.09756100178,6.7682929039,1.09756100178,1.0,0.0,0.0,0.0,1.0,0.0,0.0,0.0,1.0,-0.995987890625,-0.995987890625,9.94551369629,1.0,0.0,0.0,0.0,1.0,0.0,0.0,0.0,1.0
1464167293532727334,298,1464167293528448051,,5.40695095062,-6.25658416748,-54.9525794983,0.0010229999898,1.0,0.0,0.0,0.0,1.0,0.0,0.0,0.0,1.0,-0.548780500889,5.67073154449,1.40243899822,1.0,0.0,0.0,0.0,1.0,0.0,0.0,0.0,1.0,-0.196324536133,-0.775721337891,9.82580361328,1.0,0.0,0.0,0.0,1.0,0.0,0.0,0.0,1.0
1464167293553055597,299,1464167293549119448,,5.39769554138,-6.24558544159,-54.972530365,0.00102600001264,1.0,0.0,0.0,0.0,1.0,0.0,0.0,0.0,1.0,-2.01219511032,1.58536589146,-4.93902444839,1.0,0.0,0.0,0.0,1.0,0.0,0.0,0.0,1.0,0.253785375977,-0.775721337891,10.0748005859,1.0,0.0,0.0,0.0,1.0,0.0,0.0,0.0,1.0
1464167293580672027,300,1464167293569619174,,5.34555625916,-6.26540565491,-55.0823898315,0.00102800002787,1.0,0.0,0.0,0.0,1.0,0.0,0.0,0.0,1.0,-0.609756112099,4.69512224197,-4.2682929039,1.0,0.0,0.0,0.0,1.0,0.0,0.0,0.0,1.0,-0.713472094727,-1.28808049316,10.2040874756,1.0,0.0,0.0,0.0,1.0,0.0,0.0,0.0,1.0
1464167293594506988,301,1464167293590727927,,5.43577432632,-6.2685046196,-55.1285095215,0.000983000034466,1.0,0.0,0.0,0.0,1.0,0.0,0.0,0.0,1.0,0.365853667259,7.19512224197,0.914634168148,1.0,0.0,0.0,0.0,1.0,0.0,0.0,0.0,1.0,-0.842758984375,-0.876277807617,9.72045874023,1.0,0.0,0.0,0.0,1.0,0.0,0.0,0.0,1.0
1464167293612997909,302,1464167293611372240,,5.52581214905,-6.22673940659,-55.1052017212,0.00104400003329,1.0,0.0,0.0,0.0,1.0,0.0,0.0,0.0,1.0,0.731707334518,1.52439022064,0.487804889679,1.0,0.0,0.0,0.0,1.0,0.0,0.0,0.0,1.0,-0.397437475586,-0.723048901367,9.95987890625,1.0,0.0,0.0,0.0,1.0,0.0,0.0,0.0,1.0
1464167293642432253,303,1464167293632745375,,5.47315168381,-6.19596481323,-55.1157264709,0.00108399998862,1.0,0.0,0.0,0.0,1.0,0.0,0.0,0.0,1.0,0.426829278469,0.0609756112099,-1.76829278469,1.0,0.0,0.0,0.0,1.0,0.0,0.0,0.0,1.0,0.138863696289,-0.885854614258,10.2519715088,1.0,0.0,0.0,0.0,1.0,0.0,0.0,0.0,1.0
1464167293659449072,304,1464167293653101503,,5.40892314911,-6.17412424088,-55.1501922607,0.0012309999438,1.0,0.0,0.0,0.0,1.0,0.0,0.0,0.0,1.0,0.548780500889,1.70731711388,-1.58536589146,1.0,0.0,0.0,0.0,1.0,0.0,0.0,0.0,1.0,0.100556469727,-0.890643017578,10.6302553711,1.0,0.0,0.0,0.0,1.0,0.0,0.0,0.0,1.0
1464167293680772414,305,1464167293673921237,,5.39651489258,-6.13775014877,-55.1787452698,0.0010890000267,1.0,0.0,0.0,0.0,1.0,0.0,0.0,0.0,1.0,2.01219511032,2.37804889679,-1.34146344662,1.0,0.0,0.0,0.0,1.0,0.0,0.0,0.0,1.0,-0.363918652344,-0.909796630859,10.2232410889,1.0,0.0,0.0,0.0,1.0,0.0,0.0,0.0,1.0
1464167293701440477,306,1464167293695176192,,5.41153430939,-6.0915389061,-55.1959228516,0.00144000002183,1.0,0.0,0.0,0.0,1.0,0.0,0.0,0.0,1.0,0.487804889679,1.76829278469,-0.853658556938,1.0,0.0,0.0,0.0,1.0,0.0,0.0,0.0,1.0,-0.268150604204,-0.76614453125,10.1609918457,1.0,0.0,0.0,0.0,1.0,0.0,0.0,0.0,1.0
1464167293720742202,307,1464167293716540524,,5.39608478546,-6.06327056885,-55.2093048096,0.00127200002316,1.0,0.0,0.0,0.0,1.0,0.0,0.0,0.0,1.0,-0.365853667259,2.01219511032,-0.670731723309,1.0,0.0,0.0,0.0,1.0,0.0,0.0,0.0,1.0,-0.31124621582,-0.799663354492,10.2328178955,1.0,0.0,0.0,0.0,1.0,0.0,0.0,0.0,1.0
1464167293741324846,308,1464167293737174108,,5.38192272186,-6.04316139221,-55.2202568054,0.00143299996853,1.0,0.0,0.0,0.0,1.0,0.0,0.0,0.0,1.0,-0.609756112099,2.5,-0.548780500889,1.0,0.0,0.0,0.0,1.0,0.0,0.0,0.0,1.0,-0.220266552734,-0.689530078125,10.2040874756,1.0,0.0,0.0,0.0,1.0,0.0,0.0,0.0,1.0
1464167293762716263,309,1464167293757714720,,5.40043973923,-6.04321289062,-55.2275352478,0.0011419999646,1.0,0.0,0.0,0.0,1.0,0.0,0.0,0.0,1.0,-1.2804877758,3.53658556938,0.0609756112099,1.0,0.0,0.0,0.0,1.0,0.0,0.0,0.0,1.0,-0.191536132812,-0.900219824219,10.0843773926,1.0,0.0,0.0,0.0,1.0,0.0,0.0,0.0,1.0
1464167293782499094,310,1464167293778350491,,5.42043447495,-6.04920768738,-55.2404251099,0.00113600003533,1.0,0.0,0.0,0.0,1.0,0.0,0.0,0.0,1.0,-0.670731723309,3.23170733452,-1.2195122242,1.0,0.0,0.0,0.0,1.0,0.0,0.0,0.0,1.0,-0.124498486328,-0.737414111328,10.3190091553,1.0,0.0,0.0,0.0,1.0,0.0,0.0,0.0,1.0
1464167293805283257,311,1464167293799001471,,5.3983502388,-6.04779672623,-55.2908210754,0.00109599996358,1.0,0.0,0.0,0.0,1.0,0.0,0.0,0.0,1.0,-0.670731723309,2.37804889679,-3.23170733452,1.0,0.0,0.0,0.0,1.0,0.0,0.0,0.0,1.0,0.138863696289,-0.876277807617,10.3190091553,1.0,0.0,0.0,0.0,1.0,0.0,0.0,0.0,1.0
1464167293822494508,312,1464167293819897875,,5.40357971191,-6.05569267273,-55.3624839783,0.0012309999438,1.0,0.0,0.0,0.0,1.0,0.0,0.0,0.0,1.0,-0.670731723309,4.32926845551,-2.5,1.0,0.0,0.0,0.0,1.0,0.0,0.0,0.0,1.0,-0.248996972656,-0.909796630859,10.2088758789,1.0,0.0,0.0,0.0,1.0,0.0,0.0,0.0,1.0
1464167293843190645,313,1464167293840265097,,5.47411346436,-6.0525765419,-55.3837738037,0.00100399996154,1.0,0.0,0.0,0.0,1.0,0.0,0.0,0.0,1.0,0.0,3.96341490746,-0.304878056049,1.0,0.0,0.0,0.0,1.0,0.0,0.0,0.0,1.0,-0.474051928711,-0.794874951172,10.0221281494,1.0,0.0,0.0,0.0,1.0,0.0,0.0,0.0,1.0
1464167293877768984,314,1464167293861300358,,5.50487852097,-6.03548955917,-55.3845863342,0.00109599996358,1.0,0.0,0.0,0.0,1.0,0.0,0.0,0.0,1.0,-0.365853667259,2.5,-0.304878056049,1.0,0.0,0.0,0.0,1.0,0.0,0.0,0.0,1.0,-0.3064578125,-0.775721337891,10.1514150391,1.0,0.0,0.0,0.0,1.0,0.0,0.0,0.0,1.0
1464167293885369296,315,1464167293882358901,,5.49371528625,-6.02798366547,-55.388458252,0.00109499995597,1.0,0.0,0.0,0.0,1.0,0.0,0.0,0.0,1.0,-0.548780500889,1.70731711388,0.0,1.0,0.0,0.0,0.0,1.0,0.0,0.0,0.0,1.0,-0.239420166016,-0.852335791016,10.2950671387,1.0,0.0,0.0,0.0,1.0,0.0,0.0,0.0,1.0
1464167293905906158,316,1464167293902962536,,5.48659181595,-6.02153301239,-55.3807067871,0.00100299995393,1.0,0.0,0.0,0.0,1.0,0.0,0.0,0.0,1.0,-0.426829278469,2.13414645195,0.914634168148,1.0,0.0,0.0,0.0,1.0,0.0,0.0,0.0,1.0,-0.732625708008,-0.660799658203,10.2615483154,1.0,0.0,0.0,0.0,1.0,0.0,0.0,0.0,1.0
1464167293931706966,317,1464167293925499192,,5.49694681168,-6.00266456604,-55.3390693665,0.00296199996956,1.0,0.0,0.0,0.0,1.0,0.0,0.0,0.0,1.0,-0.609756112099,1.8902438879,2.19512200356,1.0,0.0,0.0,0.0,1.0,0.0,0.0,0.0,1.0,-0.565031591797,-0.756567724609,10.1274730225,1.0,0.0,0.0,0.0,1.0,0.0,0.0,0.0,1.0
1464167293949206870,318,1464167293946197986,,5.40266275406,-5.99708175659,-55.3208999634,0.00105600000825,1.0,0.0,0.0,0.0,1.0,0.0,0.0,0.0,1.0,-1.15853655338,-1.40243899822,-1.46341466904,1.0,0.0,0.0,0.0,1.0,0.0,0.0,0.0,1.0,0.138863696289,-0.46447512207,9.92157167969,1.0,0.0,0.0,0.0,1.0,0.0,0.0,0.0,1.0
1464167293968894073,319,1464167293966549374,,5.26434230804,-6.00583362579,-55.3928527832,0.000961999990977,1.0,0.0,0.0,0.0,1.0,0.0,0.0,0.0,1.0,-1.15853655338,1.03658533096,-4.02439022064,1.0,0.0,0.0,0.0,1.0,0.0,0.0,0.0,1.0,-0.100556469727,-0.790086547852,10.3716815918,1.0,0.0,0.0,0.0,1.0,0.0,0.0,0.0,1.0
1464167293989354788,320,1464167293987264262,,5.28833770752,-6.01588392258,-55.4296875,0.00103899999522,1.0,0.0,0.0,0.0,1.0,0.0,0.0,0.0,1.0,0.0,3.29268312454,-0.731707334518,1.0,0.0,0.0,0.0,1.0,0.0,0.0,0.0,1.0,-0.488417138672,-0.91458503418,10.2136642822,1.0,0.0,0.0,0.0,1.0,0.0,0.0,0.0,1.0
1464167294009582214,321,1464167294007896856,,5.34302854538,-5.99798345566,-55.4306907654,0.000959999975748,1.0,0.0,0.0,0.0,1.0,0.0,0.0,0.0,1.0,0.12195122242,3.10975623131,-0.0609756112099,1.0,0.0,0.0,0.0,1.0,0.0,0.0,0.0,1.0,-0.220266552734,-0.814028564453,10.060435376,1.0,0.0,0.0,0.0,1.0,0.0,0.0,0.0,1.0
1464167294030608882,322,1464167294029070038,,5.36466217041,-5.98073387146,-55.4393310547,0.000959999975748,1.0,0.0,0.0,0.0,1.0,0.0,0.0,0.0,1.0,-1.34146344662,3.59756112099,-0.304878056049,1.0,0.0,0.0,0.0,1.0,0.0,0.0,0.0,1.0,-0.100556469727,-0.737414111328,10.524910498,1.0,0.0,0.0,0.0,1.0,0.0,0.0,0.0,1.0
1464167294056328593,323,1464167294051644507,,5.39240217209,-5.98477649689,-55.4619140625,0.00100199994631,1.0,0.0,0.0,0.0,1.0,0.0,0.0,0.0,1.0,-1.34146344662,5.0,-1.15853655338,1.0,0.0,0.0,0.0,1.0,0.0,0.0,0.0,1.0,-0.196324536133,-0.77093293457,10.299855542,1.0,0.0,0.0,0.0,1.0,0.0,0.0,0.0,1.0
1464167294082076171,324,1464167294072623361,,5.44262266159,-6.02107906342,-55.4866943359,0.00111099996138,1.0,0.0,0.0,0.0,1.0,0.0,0.0,0.0,1.0,-2.92682933807,4.45121955872,-1.09756100178,1.0,0.0,0.0,0.0,1.0,0.0,0.0,0.0,1.0,-0.31124621582,-0.632069238281,10.1322614258,1.0,0.0,0.0,0.0,1.0,0.0,0.0,0.0,1.0
1464167294101220234,325,1464167294094623961,,5.48358058929,-6.0600399971,-55.5209121704,0.00367800006643,1.0,0.0,0.0,0.0,1.0,0.0,0.0,0.0,1.0,-2.01219511032,3.29268312454,-1.34146344662,1.0,0.0,0.0,0.0,1.0,0.0,0.0,0.0,1.0,-0.172382519531,-0.995987890625,10.405200415,1.0,0.0,0.0,0.0,1.0,0.0,0.0,0.0,1.0
1464167294122940775,326,1464167294117795843,,5.50577354431,-6.08471727371,-55.5413551331,0.00459000002593,1.0,0.0,0.0,0.0,1.0,0.0,0.0,0.0,1.0,-1.09756100178,2.43902444839,-0.609756112099,1.0,0.0,0.0,0.0,1.0,0.0,0.0,0.0,1.0,-0.196324536133,-0.890643017578,10.1609918457,1.0,0.0,0.0,0.0,1.0,0.0,0.0,0.0,1.0
1464167294140803085,327,1464167294139049131,,5.48425006866,-6.08567380905,-55.5538368225,0.00256699998863,1.0,0.0,0.0,0.0,1.0,0.0,0.0,0.0,1.0,-0.670731723309,0.0609756112099,-1.64634156227,1.0,0.0,0.0,0.0,1.0,0.0,0.0,0.0,1.0,-0.191536132812,-0.660799658203,9.92157167969,1.0,0.0,0.0,0.0,1.0,0.0,0.0,0.0,1.0
1464167294161477086,328,1464167294159836052,,5.38347482681,-6.08168268204,-55.6175994873,0.00507199997082,1.0,0.0,0.0,0.0,1.0,0.0,0.0,0.0,1.0,-0.12195122242,0.243902444839,-4.20731735229,1.0,0.0,0.0,0.0,1.0,0.0,0.0,0.0,1.0,0.110133276367,-0.857124194336,10.4004120117,1.0,0.0,0.0,0.0,1.0,0.0,0.0,0.0,1.0
1464167294184885693,329,1464167294182040251,,5.39446020126,-6.07977151871,-55.6638641357,0.00264300010167,1.0,0.0,0.0,0.0,1.0,0.0,0.0,0.0,1.0,0.0609756112099,3.17073178291,-0.304878056049,1.0,0.0,0.0,0.0,1.0,0.0,0.0,0.0,1.0,-0.512359155273,-0.593762048251,10.3956236084,1.0,0.0,0.0,0.0,1.0,0.0,0.0,0.0,1.0
1464167294205239530,330,1464167294202505393,,5.49993371964,-6.04727745056,-55.6138458252,0.000977999996394,1.0,0.0,0.0,0.0,1.0,0.0,0.0,0.0,1.0,0.365853667259,3.7804877758,3.84146332741,1.0,0.0,0.0,0.0,1.0,0.0,0.0,0.0,1.0,-0.794874951172,-0.976834277344,9.8784760498,1.0,0.0,0.0,0.0,1.0,0.0,0.0,0.0,1.0
1464167294226372241,331,1464167294223492371,,5.50651550293,-6.00896596909,-55.5502243042,0.00108199997339,1.0,0.0,0.0,0.0,1.0,0.0,0.0,0.0,1.0,-0.12195122242,-0.0609756112099,1.58536589146,1.0,0.0,0.0,0.0,1.0,0.0,0.0,0.0,1.0,-0.162805712891,-0.814028564453,10.2519715088,1.0,0.0,0.0,0.0,1.0,0.0,0.0,0.0,1.0
1464167294248034395,332,1464167294244965353,,5.37234592438,-5.98676586151,-55.5774040222,0.00107300002128,1.0,0.0,0.0,0.0,1.0,0.0,0.0,0.0,1.0,-0.18292683363,1.34146344662,-2.25609779358,1.0,0.0,0.0,0.0,1.0,0.0,0.0,0.0,1.0,0.301669427446,-0.905008227539,10.6398321777,1.0,0.0,0.0,0.0,1.0,0.0,0.0,0.0,1.0
1464167294273539517,333,1464167294265924101,,5.4107260704,-6.00006246567,-55.569026947,0.000967999978457,1.0,0.0,0.0,0.0,1.0,0.0,0.0,0.0,1.0,0.304878056049,4.39024400711,2.68292689323,1.0,0.0,0.0,0.0,1.0,0.0,0.0,0.0,1.0,-0.794874951172,-0.818816967773,10.0364933594,1.0,0.0,0.0,0.0,1.0,0.0,0.0,0.0,1.0
1464167294292648736,334,1464167294287564952,,5.50065565109,-5.9779009819,-55.4764823914,0.00112599995919,1.0,0.0,0.0,0.0,1.0,0.0,0.0,0.0,1.0,0.0609756112099,1.8292683363,5.12195110321,1.0,0.0,0.0,0.0,1.0,0.0,0.0,0.0,1.0,-0.569819995117,-0.579396801758,9.86889924316,1.0,0.0,0.0,0.0,1.0,0.0,0.0,0.0,1.0
1464167294312973145,335,1464167294308590629,,5.44090747833,-5.96375799179,-55.4243164062,0.00100699998438,1.0,0.0,0.0,0.0,1.0,0.0,0.0,0.0,1.0,-1.8902438879,-1.95121955872,-1.52439022064,1.0,0.0,0.0,0.0,1.0,0.0,0.0,0.0,1.0,0.483628735352,-0.143652099609,10.3094323486,1.0,0.0,0.0,0.0,1.0,0.0,0.0,0.0,1.0
1464167294334090439,336,1464167294329045979,,5.32773971558,-5.98904371262,-55.4810714722,0.000962999998592,1.0,0.0,0.0,0.0,1.0,0.0,0.0,0.0,1.0,-1.8902438879,3.65853667259,-2.68292689323,1.0,0.0,0.0,0.0,1.0,0.0,0.0,0.0,1.0,-0.435744702148,-1.34075292969,10.658985791,1.0,0.0,0.0,0.0,1.0,0.0,0.0,0.0,1.0
1464167294357825670,337,1464167294349787118,,5.41014575958,-6.02232599258,-55.4936790466,0.00106200005393,1.0,0.0,0.0,0.0,1.0,0.0,0.0,0.0,1.0,-0.18292683363,5.24390268326,2.19512200356,1.0,0.0,0.0,0.0,1.0,0.0,0.0,0.0,1.0,-0.517147558594,-0.895431420898,10.3956236084,1.0,0.0,0.0,0.0,1.0,0.0,0.0,0.0,1.0
1464167294374326433,338,1464167294370455390,,5.51005363464,-6.02356100082,-55.4553604126,0.000979000004008,1.0,0.0,0.0,0.0,1.0,0.0,0.0,0.0,1.0,-1.15853655338,3.65853667259,1.70731711388,1.0,0.0,0.0,0.0,1.0,0.0,0.0,0.0,1.0,-0.277727392578,-0.593762048251,9.80665,1.0,0.0,0.0,0.0,1.0,0.0,0.0,0.0,1.0
1464167294394022074,339,1464167294391423878,,5.49995470047,-6.03337430954,-55.4609870911,0.00099400000181,1.0,0.0,0.0,0.0,1.0,0.0,0.0,0.0,1.0,-1.70731711388,1.46341466904,-1.95121955872,1.0,0.0,0.0,0.0,1.0,0.0,0.0,0.0,1.0,0.100556469727,-0.9193734375,10.2328178955,1.0,0.0,0.0,0.0,1.0,0.0,0.0,0.0,1.0
1464167294417051244,340,1464167294412181788,,5.460958004,-6.05047225952,-55.5107383728,0.0010229999898,1.0,0.0,0.0,0.0,1.0,0.0,0.0,0.0,1.0,-0.975609779358,1.70731711388,-3.04878044128,1.0,0.0,0.0,0.0,1.0,0.0,0.0,0.0,1.0,0.0143652099609,-0.890643017578,10.2950671387,1.0,0.0,0.0,0.0,1.0,0.0,0.0,0.0,1.0
1464167294438309688,341,1464167294435250803,,5.43508291245,-6.06288576126,-55.5871887207,0.00148800003808,1.0,0.0,0.0,0.0,1.0,0.0,0.0,0.0,1.0,-0.426829278469,2.86585378647,-4.02439022064,1.0,0.0,0.0,0.0,1.0,0.0,0.0,0.0,1.0,-0.215478149414,-0.852335791016,10.0029745361,1.0,0.0,0.0,0.0,1.0,0.0,0.0,0.0,1.0
1464167294458885874,342,1464167294454858004,,5.44180870056,-6.07069015503,-55.6625328064,0.00156700005755,1.0,0.0,0.0,0.0,1.0,0.0,0.0,0.0,1.0,-0.670731723309,1.52439022064,-4.14634132385,1.0,0.0,0.0,0.0,1.0,0.0,0.0,0.0,1.0,-0.215478149414,-0.723048901367,10.1322614258,1.0,0.0,0.0,0.0,1.0,0.0,0.0,0.0,1.0
1464167294480244946,343,1464167294477461954,,5.39459133148,-6.06901264191,-55.7710533142,0.00224400009029,1.0,0.0,0.0,0.0,1.0,0.0,0.0,0.0,1.0,-0.609756112099,0.792682945728,-5.79268312454,1.0,0.0,0.0,0.0,1.0,0.0,0.0,0.0,1.0,-0.205901342773,-0.900219824219,10.4913916748,1.0,0.0,0.0,0.0,1.0,0.0,0.0,0.0,1.0
1464167294501890328,344,1464167294498507424,,5.36088848114,-6.08350658417,-55.8947219849,0.00115400005598,1.0,0.0,0.0,0.0,1.0,0.0,0.0,0.0,1.0,-0.609756112099,3.65853667259,-4.63414621353,1.0,0.0,0.0,0.0,1.0,0.0,0.0,0.0,1.0,-0.330399829102,-0.957680664062,10.1897222656,1.0,0.0,0.0,0.0,1.0,0.0,0.0,0.0,1.0
1464167294523217577,345,1464167294520249371,,5.42598724365,-6.08860778809,-55.9510536194,0.00137399998493,1.0,0.0,0.0,0.0,1.0,0.0,0.0,0.0,1.0,-0.853658556938,4.14634132385,-1.34146344662,1.0,0.0,0.0,0.0,1.0,0.0,0.0,0.0,1.0,-0.430956298828,-0.804451757813,10.0700121826,1.0,0.0,0.0,0.0,1.0,0.0,0.0,0.0,1.0
1464167294544541283,346,1464167294541553962,,5.46076011658,-6.08108854294,-55.9645729065,0.0010450000409,1.0,0.0,0.0,0.0,1.0,0.0,0.0,0.0,1.0,-0.609756112099,2.5,-0.609756112099,1.0,0.0,0.0,0.0,1.0,0.0,0.0,0.0,1.0,-0.167594116211,-0.857124194336,10.3046439453,1.0,0.0,0.0,0.0,1.0,0.0,0.0,0.0,1.0
1464167294565109552,347,1464167294562383020,,5.45399284363,-6.08327245712,-55.9687728882,0.000966000021435,1.0,0.0,0.0,0.0,1.0,0.0,0.0,0.0,1.0,-0.243902444839,2.31707310677,0.12195122242,1.0,0.0,0.0,0.0,1.0,0.0,0.0,0.0,1.0,-0.205901342773,-0.92416184082,10.4099888184,1.0,0.0,0.0,0.0,1.0,0.0,0.0,0.0,1.0
1464167294586781029,348,1464167294583460782,,5.44739341736,-6.06225776672,-55.9542961121,0.00114099995699,1.0,0.0,0.0,0.0,1.0,0.0,0.0,0.0,1.0,-0.0609756112099,1.64634156227,0.731707334518,1.0,0.0,0.0,0.0,1.0,0.0,0.0,0.0,1.0,-0.272938989258,-0.900219824219,10.419565625,1.0,0.0,0.0,0.0,1.0,0.0,0.0,0.0,1.0
1464167294607344402,349,1464167294604636151,,5.42638254166,-6.04038763046,-55.9355049133,0.00111499999184,1.0,0.0,0.0,0.0,1.0,0.0,0.0,0.0,1.0,0.304878056049,0.487804889679,0.731707334518,1.0,0.0,0.0,0.0,1.0,0.0,0.0,0.0,1.0,-0.205901342773,-0.823605371094,10.1609918457,1.0,0.0,0.0,0.0,1.0,0.0,0.0,0.0,1.0
1464167294628405706,350,1464167294625260255,,5.38229227066,-6.02259969711,-55.9279327393,0.00121000001673,1.0,0.0,0.0,0.0,1.0,0.0,0.0,0.0,1.0,0.670731723309,-0.0609756112099,-0.0609756112099,1.0,0.0,0.0,0.0,1.0,0.0,0.0,0.0,1.0,-0.220266552734,-0.976834277344,10.1514150391,1.0,0.0,0.0,0.0,1.0,0.0,0.0,0.0,1.0
1464167294648455263,351,1464167294645882172,,5.32881307602,-5.99344825745,-55.9301567078,0.00165600003675,1.0,0.0,0.0,0.0,1.0,0.0,0.0,0.0,1.0,1.2195122242,0.731707334518,-0.365853667259,1.0,0.0,0.0,0.0,1.0,0.0,0.0,0.0,1.0,0.0383072265625,-0.91458503418,10.2136642822,1.0,0.0,0.0,0.0,1.0,0.0,0.0,0.0,1.0
1464167294670871031,352,1464167294667241192,,5.32297182083,-5.95230388641,-55.9275398254,0.0011419999646,1.0,0.0,0.0,0.0,1.0,0.0,0.0,0.0,1.0,1.2195122242,1.95121955872,0.426829278469,1.0,0.0,0.0,0.0,1.0,0.0,0.0,0.0,1.0,-0.0335188255255,-0.651222851562,10.1226846191,1.0,0.0,0.0,0.0,1.0,0.0,0.0,0.0,1.0
1464167294693078772,353,1464167294688015456,,5.36374664307,-5.91259860992,-55.9078445435,0.00117800000589,1.0,0.0,0.0,0.0,1.0,0.0,0.0,0.0,1.0,1.8902438879,3.04878044128,1.34146344662,1.0,0.0,0.0,0.0,1.0,0.0,0.0,0.0,1.0,-0.478840332031,-0.756567724609,10.1035310059,1.0,0.0,0.0,0.0,1.0,0.0,0.0,0.0,1.0
1464167294712859676,354,1464167294708866442,,5.31832027435,-5.85657215118,-55.9188079834,0.00106100004632,1.0,0.0,0.0,0.0,1.0,0.0,0.0,0.0,1.0,1.09756100178,-0.914634168148,-3.96341490746,1.0,0.0,0.0,0.0,1.0,0.0,0.0,0.0,1.0,0.531512805087,-0.416591088867,10.3668931885,1.0,0.0,0.0,0.0,1.0,0.0,0.0,0.0,1.0
1464167294738882625,355,1464167294729487577,,5.24046564102,-5.83217763901,-56.0187339783,0.00103100005072,1.0,0.0,0.0,0.0,1.0,0.0,0.0,0.0,1.0,-0.243902444839,3.17073178291,-4.69512224197,1.0,0.0,0.0,0.0,1.0,0.0,0.0,0.0,1.0,-0.641646044922,-1.19710090314,10.1274730225,1.0,0.0,0.0,0.0,1.0,0.0,0.0,0.0,1.0
1464167294760391857,356,1464167294750653519,,5.28087186813,-5.82269287109,-56.0650367737,0.00100699998438,1.0,0.0,0.0,0.0,1.0,0.0,0.0,0.0,1.0,1.15853655338,4.93902444839,0.792682945728,1.0,0.0,0.0,0.0,1.0,0.0,0.0,0.0,1.0,-0.574608398438,-0.718260498047,10.1466266357,1.0,0.0,0.0,0.0,1.0,0.0,0.0,0.0,1.0
1464167294779683738,357,1464167294771017303,,5.33242416382,-5.78989219666,-56.0452919006,0.000973000016529,1.0,0.0,0.0,0.0,1.0,0.0,0.0,0.0,1.0,-0.365853667259,0.426829278469,0.426829278469,1.0,0.0,0.0,0.0,1.0,0.0,0.0,0.0,1.0,-0.378283862305,-0.402225878906,9.88326445312,1.0,0.0,0.0,0.0,1.0,0.0,0.0,0.0,1.0
1464167294802001221,358,1464167294792815450,,5.25996780396,-5.78699493408,-56.049861908,0.0012450000504,1.0,0.0,0.0,0.0,1.0,0.0,0.0,0.0,1.0,-1.2195122242,-1.2804877758,-1.8902438879,1.0,0.0,0.0,0.0,1.0,0.0,0.0,0.0,1.0,0.0478840332031,-0.76614453125,10.1945106689,1.0,0.0,0.0,0.0,1.0,0.0,0.0,0.0,1.0
1464167294817796079,359,1464167294813152463,,5.17922210693,-5.80552721024,-56.079158783,0.0012229999993,1.0,0.0,0.0,0.0,1.0,0.0,0.0,0.0,1.0,-0.670731723309,0.243902444839,-1.52439022064,1.0,0.0,0.0,0.0,1.0,0.0,0.0,0.0,1.0,0.00957680664062,-1.01992990723,10.5105452881,1.0,0.0,0.0,0.0,1.0,0.0,0.0,0.0,1.0
1464167294839241560,360,1464167294834383094,,5.10273218155,-5.80926799774,-56.1309585571,0.00134600000456,1.0,0.0,0.0,0.0,1.0,0.0,0.0,0.0,1.0,0.0609756112099,0.609756112099,-3.96341490746,1.0,0.0,0.0,0.0,1.0,0.0,0.0,0.0,1.0,-0.143652099609,-0.905008227539,10.180145459,1.0,0.0,0.0,0.0,1.0,0.0,0.0,0.0,1.0
1464167294858363488,361,1464167294855049231,,5.08019924164,-5.8191318512,-56.1999282837,0.00133799994364,1.0,0.0,0.0,0.0,1.0,0.0,0.0,0.0,1.0,-1.46341466904,2.07317066193,-2.43902444839,1.0,0.0,0.0,0.0,1.0,0.0,0.0,0.0,1.0,-0.45489831543,-0.837970581055,10.2232410889,1.0,0.0,0.0,0.0,1.0,0.0,0.0,0.0,1.0
1464167294879299527,362,1464167294875793234,,5.12215185165,-5.8265209198,-56.2143669128,0.00195900001563,1.0,0.0,0.0,0.0,1.0,0.0,0.0,0.0,1.0,-0.792682945728,2.92682933807,0.12195122242,1.0,0.0,0.0,0.0,1.0,0.0,0.0,0.0,1.0,-0.497993945312,-0.818816967773,10.3094323486,1.0,0.0,0.0,0.0,1.0,0.0,0.0,0.0,1.0
1464167294901116945,363,1464167294896756722,,5.14874696732,-5.81623697281,-56.2040100098,0.00135599996429,1.0,0.0,0.0,0.0,1.0,0.0,0.0,0.0,1.0,-0.853658556938,1.8902438879,0.487804889679,1.0,0.0,0.0,0.0,1.0,0.0,0.0,0.0,1.0,-0.344765039063,-0.818816967773,10.0652237793,1.0,0.0,0.0,0.0,1.0,0.0,0.0,0.0,1.0
1464167294920025274,364,1464167294917450203,,5.13680887222,-5.83019351959,-56.1983718872,0.00149399996735,1.0,0.0,0.0,0.0,1.0,0.0,0.0,0.0,1.0,-1.64634156227,1.64634156227,0.18292683363,1.0,0.0,0.0,0.0,1.0,0.0,0.0,0.0,1.0,-0.167594116211,-1.00077629395,10.285490332,1.0,0.0,0.0,0.0,1.0,0.0,0.0,0.0,1.0
1464167294942325309,365,1464167294938656407,,5.13526582718,-5.8435344696,-56.181098938,0.00132200005464,1.0,0.0,0.0,0.0,1.0,0.0,0.0,0.0,1.0,0.18292683363,1.34146344662,1.52439022064,1.0,0.0,0.0,0.0,1.0,0.0,0.0,0.0,1.0,-0.258573779297,-1.19710090314,10.4291424316,1.0,0.0,0.0,0.0,1.0,0.0,0.0,0.0,1.0
1464167294967497974,366,1464167294959428796,,5.14516305923,-5.83176898956,-56.1313743591,0.0010229999898,1.0,0.0,0.0,0.0,1.0,0.0,0.0,0.0,1.0,1.03658533096,1.8292683363,3.17073178291,1.0,0.0,0.0,0.0,1.0,0.0,0.0,0.0,1.0,-0.569819995117,-1.13485158691,9.94072529297,1.0,0.0,0.0,0.0,1.0,0.0,0.0,0.0,1.0
1464167294983242935,367,1464167294980313793,,5.12306308746,-5.7792506218,-56.0642356873,0.00135200005025,1.0,0.0,0.0,0.0,1.0,0.0,0.0,0.0,1.0,2.37804889679,-0.18292683363,2.74390244484,1.0,0.0,0.0,0.0,1.0,0.0,0.0,0.0,1.0,-0.167594116211,-0.799663354492,9.37569311665,1.0,0.0,0.0,0.0,1.0,0.0,0.0,0.0,1.0
1464167295003957146,368,1464167295001100089,,4.98408889771,-5.70833063126,-56.0791473389,0.00108299998101,1.0,0.0,0.0,0.0,1.0,0.0,0.0,0.0,1.0,3.41463422775,-0.609756112099,-2.19512200356,1.0,0.0,0.0,0.0,1.0,0.0,0.0,0.0,1.0,0.191536132812,-0.972045874023,10.524910498,1.0,0.0,0.0,0.0,1.0,0.0,0.0,0.0,1.0
1464167295025106056,369,1464167295022379419,,4.97954130173,-5.65747594833,-56.0915794373,0.000980000011623,1.0,0.0,0.0,0.0,1.0,0.0,0.0,0.0,1.0,3.17073178291,1.58536589146,0.243902444839,1.0,0.0,0.0,0.0,1.0,0.0,0.0,0.0,1.0,-0.186747729492,-0.885854614258,10.2950671387,1.0,0.0,0.0,0.0,1.0,0.0,0.0,0.0,1.0
1464167295046657477,370,1464167295043431243,,5.02396345139,-5.58260822296,-56.0502090454,0.00109499995597,1.0,0.0,0.0,0.0,1.0,0.0,0.0,0.0,1.0,2.07317066193,2.74390244484,2.19512200356,1.0,0.0,0.0,0.0,1.0,0.0,0.0,0.0,1.0,-0.440533105469,-0.708683691406,9.95030209961,1.0,0.0,0.0,0.0,1.0,0.0,0.0,0.0,1.0
1464167295066913342,371,1464167295063793830,,5.03024339676,-5.53143310547,-56.0146255493,0.00106299994513,1.0,0.0,0.0,0.0,1.0,0.0,0.0,0.0,1.0,0.914634168148,1.2804877758,1.2804877758,1.0,0.0,0.0,0.0,1.0,0.0,0.0,0.0,1.0,-0.0957680664062,-0.718260498047,10.2711251221,1.0,0.0,0.0,0.0,1.0,0.0,0.0,0.0,1.0
1464167295087741566,372,1464167295084652576,,5.0402097702,-5.51624965668,-55.982460022,0.00109599996358,1.0,0.0,0.0,0.0,1.0,0.0,0.0,0.0,1.0,0.0,1.2804877758,1.70731711388,1.0,0.0,0.0,0.0,1.0,0.0,0.0,0.0,1.0,-0.268150604204,-0.742202514648,10.2902787354,1.0,0.0,0.0,0.0,1.0,0.0,0.0,0.0,1.0
1464167295118390006,373,1464167295105961022,,5.04646158218,-5.5223107338,-55.9347038269,0.00103899999522,1.0,0.0,0.0,0.0,1.0,0.0,0.0,0.0,1.0,-0.975609779358,1.70731711388,1.8902438879,1.0,0.0,0.0,0.0,1.0,0.0,0.0,0.0,1.0,-0.234631762695,-0.823605371094,9.88326445312,1.0,0.0,0.0,0.0,1.0,0.0,0.0,0.0,1.0
1464167295129301762,374,1464167295126688097,,5.02335071564,-5.5406665802,-55.8949508667,0.00112899998203,1.0,0.0,0.0,0.0,1.0,0.0,0.0,0.0,1.0,-1.95121955872,-0.12195122242,1.2195122242,1.0,0.0,0.0,0.0,1.0,0.0,0.0,0.0,1.0,-0.0383072265625,-0.986411083984,10.1753570557,1.0,0.0,0.0,0.0,1.0,0.0,0.0,0.0,1.0
1464167295150804849,375,1464167295147526634,,4.98650598526,-5.57644319534,-55.8670883179,0.0010529999854,1.0,0.0,0.0,0.0,1.0,0.0,0.0,0.0,1.0,-1.15853655338,-0.0609756112099,0.792682945728,1.0,0.0,0.0,0.0,1.0,0.0,0.0,0.0,1.0,-0.114921679688,-1.07260241682,10.2184526855,1.0,0.0,0.0,0.0,1.0,0.0,0.0,0.0,1.0
1464167295171085506,376,1464167295168174437,,4.95389556885,-5.60153579712,-55.8434143066,0.00121300003957,1.0,0.0,0.0,0.0,1.0,0.0,0.0,0.0,1.0,-0.853658556938,0.731707334518,0.853658556938,1.0,0.0,0.0,0.0,1.0,0.0,0.0,0.0,1.0,-0.162805712891,-1.03429511719,10.2136642822,1.0,0.0,0.0,0.0,1.0,0.0,0.0,0.0,1.0
1464167295193001416,377,1464167295189476320,,4.90161705017,-5.61411905289,-55.8407554626,0.00105399999302,1.0,0.0,0.0,0.0,1.0,0.0,0.0,0.0,1.0,-1.09756100178,-0.12195122242,-1.58536589146,1.0,0.0,0.0,0.0,1.0,0.0,0.0,0.0,1.0,0.287304199219,-0.689530078125,10.2136642822,1.0,0.0,0.0,0.0,1.0,0.0,0.0,0.0,1.0
1464167295222774572,378,1464167295215637971,,4.86896896362,-5.64170598984,-55.8816719055,0.00101999996696,1.0,0.0,0.0,0.0,1.0,0.0,0.0,0.0,1.0,-1.46341466904,3.10975623131,-1.46341466904,1.0,0.0,0.0,0.0,1.0,0.0,0.0,0.0,1.0,-0.210689746094,-1.04387185076,10.2807019287,1.0,0.0,0.0,0.0,1.0,0.0,0.0,0.0,1.0
1464167295240396250,379,1464167295237634040,,5.01101827621,-5.67400884628,-55.8439941406,0.00527899991721,1.0,0.0,0.0,0.0,1.0,0.0,0.0,0.0,1.0,-1.2195122242,6.34146356583,3.96341490746,1.0,0.0,0.0,0.0,1.0,0.0,0.0,0.0,1.0,-0.60812722168,-0.804451757813,10.1178962158,1.0,0.0,0.0,0.0,1.0,0.0,0.0,0.0,1.0
1464167295263017805,380,1464167295258700760,,5.10321140289,-5.68342638016,-55.7541618347,0.006819000002,1.0,0.0,0.0,0.0,1.0,0.0,0.0,0.0,1.0,-2.5,2.86585378647,3.23170733452,1.0,0.0,0.0,0.0,1.0,0.0,0.0,0.0,1.0,-0.277727392578,-0.751779321289,10.2950671387,1.0,0.0,0.0,0.0,1.0,0.0,0.0,0.0,1.0
1464167295280024415,381,1464167295277967327,,5.01674079895,-5.70086479187,-55.7483482361,0.00496699986979,1.0,0.0,0.0,0.0,1.0,0.0,0.0,0.0,1.0,-0.914634168148,0.731707334518,-1.40243899822,1.0,0.0,0.0,0.0,1.0,0.0,0.0,0.0,1.0,0.474051928711,-0.995987890625,10.3237975586,1.0,0.0,0.0,0.0,1.0,0.0,0.0,0.0,1.0
1464167295301647140,382,1464167295299045089,,5.03300666809,-5.7475733757,-55.7480812073,0.00254400004633,1.0,0.0,0.0,0.0,1.0,0.0,0.0,0.0,1.0,-1.46341466904,4.69512224197,2.5,1.0,0.0,0.0,0.0,1.0,0.0,0.0,0.0,1.0,-0.378283862305,-1.19710090314,10.3956236084,1.0,0.0,0.0,0.0,1.0,0.0,0.0,0.0,1.0
1464167295322966836,383,1464167295320194625,,5.15845155716,-5.74248504639,-55.6476516724,0.00115300004836,1.0,0.0,0.0,0.0,1.0,0.0,0.0,0.0,1.0,-0.670731723309,4.69512224197,6.46341466904,1.0,0.0,0.0,0.0,1.0,0.0,0.0,0.0,1.0,-0.675164868164,-0.881066210937,10.2423947021,1.0,0.0,0.0,0.0,1.0,0.0,0.0,0.0,1.0
1464167295343601565,384,1464167295340636797,,5.17941856384,-5.72199296951,-55.523059845,0.00106999999844,1.0,0.0,0.0,0.0,1.0,0.0,0.0,0.0,1.0,-0.853658556938,-0.304878056049,5.18292713165,1.0,0.0,0.0,0.0,1.0,0.0,0.0,0.0,1.0,-0.196324536133,-0.684741674805,10.046070166,1.0,0.0,0.0,0.0,1.0,0.0,0.0,0.0,1.0
1464167295365008503,385,1464167295361557107,,5.10817193985,-5.7245554924,-55.4325218201,0.00104799994733,1.0,0.0,0.0,0.0,1.0,0.0,0.0,0.0,1.0,-0.792682945728,-0.0609756112099,3.53658556938,1.0,0.0,0.0,0.0,1.0,0.0,0.0,0.0,1.0,-0.0335188255255,-0.905008227539,10.3573163818,1.0,0.0,0.0,0.0,1.0,0.0,0.0,0.0,1.0
1464167295385570314,386,1464167295382958211,,5.04275274277,-5.7266292572,-55.3569030762,0.00106599996798,1.0,0.0,0.0,0.0,1.0,0.0,0.0,0.0,1.0,-1.2195122242,1.09756100178,3.17073178291,1.0,0.0,0.0,0.0,1.0,0.0,0.0,0.0,1.0,0.0191536132812,-0.703895288086,10.1753570557,1.0,0.0,0.0,0.0,1.0,0.0,0.0,0.0,1.0
1464167295406670525,387,1464167295403670912,,5.03193378448,-5.74102115631,-55.2978439331,0.00102199998219,1.0,0.0,0.0,0.0,1.0,0.0,0.0,0.0,1.0,-1.8902438879,1.40243899822,2.62195134163,1.0,0.0,0.0,0.0,1.0,0.0,0.0,0.0,1.0,-0.320823022461,-0.895431420898,10.2471831055,1.0,0.0,0.0,0.0,1.0,0.0,0.0,0.0,1.0
1464167295427544688,388,1464167295424926491,,4.99924039841,-5.75336551666,-55.2597579956,0.00120299996343,1.0,0.0,0.0,0.0,1.0,0.0,0.0,0.0,1.0,-1.2804877758,0.18292683363,0.18292683363,1.0,0.0,0.0,0.0,1.0,0.0,0.0,0.0,1.0,-0.0526724365234,-0.77093293457,10.1897222656,1.0,0.0,0.0,0.0,1.0,0.0,0.0,0.0,1.0
1464167295448410101,389,1464167295445744872,,4.91860771179,-5.76971578598,-55.2797737122,0.00103499996476,1.0,0.0,0.0,0.0,1.0,0.0,0.0,0.0,1.0,-1.64634156227,1.40243899822,-2.25609779358,1.0,0.0,0.0,0.0,1.0,0.0,0.0,0.0,1.0,0.0143652099609,-0.823605371094,10.1609918457,1.0,0.0,0.0,0.0,1.0,0.0,0.0,0.0,1.0
1464167295469728390,390,1464167295467104673,,4.97604036331,-5.80024957657,-55.2987518311,0.00108499999624,1.0,0.0,0.0,0.0,1.0,0.0,0.0,0.0,1.0,-2.31707310677,6.09756088257,1.70731711388,1.0,0.0,0.0,0.0,1.0,0.0,0.0,0.0,1.0,-0.61770402832,-0.833182177734,10.0652237793,1.0,0.0,0.0,0.0,1.0,0.0,0.0,0.0,1.0
1464167295490860008,391,1464167295487915240,,5.08695554733,-5.80994176865,-55.2455558777,0.00104100001045,1.0,0.0,0.0,0.0,1.0,0.0,0.0,0.0,1.0,-1.15853655338,5.30487823486,2.62195134163,1.0,0.0,0.0,0.0,1.0,0.0,0.0,0.0,1.0,-0.282515795898,-0.91458503418,10.2232410889,1.0,0.0,0.0,0.0,1.0,0.0,0.0,0.0,1.0
1464167295517167965,392,1464167295508560803,,5.08507823944,-5.83107042313,-55.2381744385,0.00103399995714,1.0,0.0,0.0,0.0,1.0,0.0,0.0,0.0,1.0,-2.31707310677,1.58536589146,-3.41463422775,1.0,0.0,0.0,0.0,1.0,0.0,0.0,0.0,1.0,0.397437475586,-0.536301208408,9.81143840332,1.0,0.0,0.0,0.0,1.0,0.0,0.0,0.0,1.0
1464167295534581774,393,1464167295531107512,,5.02817678452,-5.88158273697,-55.3218955994,0.00114099995699,1.0,0.0,0.0,0.0,1.0,0.0,0.0,0.0,1.0,-1.76829278469,4.08536577225,-3.17073178291,1.0,0.0,0.0,0.0,1.0,0.0,0.0,0.0,1.0,-0.119710083008,-1.49877023926,10.3716815918,1.0,0.0,0.0,0.0,1.0,0.0,0.0,0.0,1.0
1464167295558616908,394,1464167295554403981,,5.10094070435,-5.89984083176,-55.330947876,0.00331100006588,1.0,0.0,0.0,0.0,1.0,0.0,0.0,0.0,1.0,0.0,3.7804877758,1.8902438879,1.0,0.0,0.0,0.0,1.0,0.0,0.0,0.0,1.0,-0.378283862305,-0.76135612793,9.94551369629,1.0,0.0,0.0,0.0,1.0,0.0,0.0,0.0,1.0
1464167295579984939,395,1464167295574900738,,5.14058208466,-5.88572406769,-55.2846603394,0.0042699999176,1.0,0.0,0.0,0.0,1.0,0.0,0.0,0.0,1.0,-0.670731723309,0.609756112099,2.13414645195,1.0,0.0,0.0,0.0,1.0,0.0,0.0,0.0,1.0,-0.354341845703,-0.833182177734,10.1466266357,1.0,0.0,0.0,0.0,1.0,0.0,0.0,0.0,1.0
1464167295600311170,396,1464167295595743181,,5.10047340393,-5.86801195145,-55.2259864807,0.00152000004891,1.0,0.0,0.0,0.0,1.0,0.0,0.0,0.0,1.0,0.304878056049,0.18292683363,2.86585378647,1.0,0.0,0.0,0.0,1.0,0.0,0.0,0.0,1.0,-0.0622492431641,-0.837970581055,10.4004120117,1.0,0.0,0.0,0.0,1.0,0.0,0.0,0.0,1.0
1464167295621297993,397,1464167295617072252,,5.06851768494,-5.84927034378,-55.1490974426,0.00137299997732,1.0,0.0,0.0,0.0,1.0,0.0,0.0,0.0,1.0,0.18292683363,0.975609779358,4.08536577225,1.0,0.0,0.0,0.0,1.0,0.0,0.0,0.0,1.0,-0.105344873047,-0.861912597656,9.96466730957,1.0,0.0,0.0,0.0,1.0,0.0,0.0,0.0,1.0
1464167295640065380,398,1464167295636958316,,5.07261371613,-5.81616687775,-55.0414047241,0.00365000008605,1.0,0.0,0.0,0.0,1.0,0.0,0.0,0.0,1.0,0.365853667259,1.52439022064,5.60975599289,1.0,0.0,0.0,0.0,1.0,0.0,0.0,0.0,1.0,-0.450109912109,-0.718260498047,10.3429511719,1.0,0.0,0.0,0.0,1.0,0.0,0.0,0.0,1.0
1464167295661391274,399,1464167295658406505,,5.05551576614,-5.77769804001,-54.9279975891,0.00109499995597,1.0,0.0,0.0,0.0,1.0,0.0,0.0,0.0,1.0,0.243902444839,-0.609756112099,3.7804877758,1.0,0.0,0.0,0.0,1.0,0.0,0.0,0.0,1.0,-0.0861912597656,-0.976834277344,10.060435376,1.0,0.0,0.0,0.0,1.0,0.0,0.0,0.0,1.0
1464167295682578466,400,1464167295679643230,,4.91415786743,-5.74706506729,-54.9029388428,0.00116800004616,1.0,0.0,0.0,0.0,1.0,0.0,0.0,0.0,1.0,0.731707334518,-1.40243899822,-0.975609779358,1.0,0.0,0.0,0.0,1.0,0.0,0.0,0.0,1.0,0.622492431641,-0.708683691406,10.2615483154,1.0,0.0,0.0,0.0,1.0,0.0,0.0,0.0,1.0
1464167295703461640,401,1464167295700647605,,4.91134643555,-5.7347369194,-54.9085502625,0.00114499998745,1.0,0.0,0.0,0.0,1.0,0.0,0.0,0.0,1.0,0.243902444839,2.86585378647,1.2195122242,1.0,0.0,0.0,0.0,1.0,0.0,0.0,0.0,1.0,-1.01992990723,-0.952892260742,10.314220752,1.0,0.0,0.0,0.0,1.0,0.0,0.0,0.0,1.0
1464167295724744512,402,1464167295721561092,,5.00035190582,-5.71049785614,-54.8534889221,0.00102099997457,1.0,0.0,0.0,0.0,1.0,0.0,0.0,0.0,1.0,-0.426829278469,4.08536577225,3.47560977936,1.0,0.0,0.0,0.0,1.0,0.0,0.0,0.0,1.0,-0.833182177734,-0.857124194336,9.90720646973,1.0,0.0,0.0,0.0,1.0,0.0,0.0,0.0,1.0
1464167295745880765,403,1464167295742373743,,4.99866914749,-5.69438457489,-54.8140563965,0.00115899997763,1.0,0.0,0.0,0.0,1.0,0.0,0.0,0.0,1.0,0.670731723309,-0.670731723309,0.609756112099,1.0,0.0,0.0,0.0,1.0,0.0,0.0,0.0,1.0,-0.0335188255255,-0.780509741211,10.4866032715,1.0,0.0,0.0,0.0,1.0,0.0,0.0,0.0,1.0
1464167295766576746,404,1464167295763682397,,4.8779091835,-5.68534326553,-54.8741188049,0.00101400003769,1.0,0.0,0.0,0.0,1.0,0.0,0.0,0.0,1.0,0.243902444839,1.8292683363,-3.7804877758,1.0,0.0,0.0,0.0,1.0,0.0,0.0,0.0,1.0,0.239420166016,-0.684741674805,10.2280294922,1.0,0.0,0.0,0.0,1.0,0.0,0.0,0.0,1.0
1464167295788989285,405,1464167295784766930,,4.90947151184,-5.70440816879,-54.9164810181,0.00121100002434,1.0,0.0,0.0,0.0,1.0,0.0,0.0,0.0,1.0,0.0,4.69512224197,-1.03658533096,1.0,0.0,0.0,0.0,1.0,0.0,0.0,0.0,1.0,-0.296881024126,-1.0534486574,10.4147772217,1.0,0.0,0.0,0.0,1.0,0.0,0.0,0.0,1.0
1464167295809247910,406,1464167295805914017,,4.98840808868,-5.68946313858,-54.9093971252,0.00122099998407,1.0,0.0,0.0,0.0,1.0,0.0,0.0,0.0,1.0,1.03658533096,2.68292689323,0.792682945728,1.0,0.0,0.0,0.0,1.0,0.0,0.0,0.0,1.0,-0.368707055664,-0.833182177734,9.90241806641,1.0,0.0,0.0,0.0,1.0,0.0,0.0,0.0,1.0
1464167295829790970,407,1464167295826464317,,4.9942817688,-5.67548656464,-54.9025230408,0.00185500003863,1.0,0.0,0.0,0.0,1.0,0.0,0.0,0.0,1.0,-0.243902444839,2.80487799644,0.670731723309,1.0,0.0,0.0,0.0,1.0,0.0,0.0,0.0,1.0,-0.277727392578,-0.818816967773,9.97424411621,1.0,0.0,0.0,0.0,1.0,0.0,0.0,0.0,1.0
1464167295850973736,408,1464167295847757190,,5.0203909874,-5.66442203522,-54.8553276062,0.00110700004734,1.0,0.0,0.0,0.0,1.0,0.0,0.0,0.0,1.0,-0.365853667259,1.2804877758,2.62195134163,1.0,0.0,0.0,0.0,1.0,0.0,0.0,0.0,1.0,-0.335188232422,-0.861912597656,10.165780249,1.0,0.0,0.0,0.0,1.0,0.0,0.0,0.0,1.0
1464167295877559721,409,1464167295868970164,,4.94578266144,-5.6422495842,-54.8359298706,0.00097499997355,1.0,0.0,0.0,0.0,1.0,0.0,0.0,0.0,1.0,0.0609756112099,-0.548780500889,-2.92682933807,1.0,0.0,0.0,0.0,1.0,0.0,0.0,0.0,1.0,0.258573779297,-0.890643017578,9.77313117676,1.0,0.0,0.0,0.0,1.0,0.0,0.0,0.0,1.0
1464167295893242076,410,1464167295891119674,,4.88091135025,-5.67098903656,-54.9029846191,0.00121100002434,1.0,0.0,0.0,0.0,1.0,0.0,0.0,0.0,1.0,-0.731707334518,2.86585378647,-1.76829278469,1.0,0.0,0.0,0.0,1.0,0.0,0.0,0.0,1.0,-0.344765039063,-1.04866025408,10.0652237793,1.0,0.0,0.0,0.0,1.0,0.0,0.0,0.0,1.0
1464167295921894420,411,1464167295914155250,,4.97656440735,-5.67460012436,-54.8857040405,0.00367400003597,1.0,0.0,0.0,0.0,1.0,0.0,0.0,0.0,1.0,1.09756100178,6.28048801422,3.65853667259,1.0,0.0,0.0,0.0,1.0,0.0,0.0,0.0,1.0,-0.804451757813,-0.938527050781,10.0652237793,1.0,0.0,0.0,0.0,1.0,0.0,0.0,0.0,1.0
1464167295943612304,412,1464167295935544792,,5.04252481461,-5.63119602203,-54.8186378479,0.00404499983415,1.0,0.0,0.0,0.0,1.0,0.0,0.0,0.0,1.0,0.914634168148,1.03658533096,1.8902438879,1.0,0.0,0.0,0.0,1.0,0.0,0.0,0.0,1.0,-0.0287304199219,-0.727837304687,9.84495722656,1.0,0.0,0.0,0.0,1.0,0.0,0.0,0.0,1.0
1464167295960658029,413,1464167295956060560,,4.95404243469,-5.60738611221,-54.820476532,0.00147100002505,1.0,0.0,0.0,0.0,1.0,0.0,0.0,0.0,1.0,0.304878056049,-1.8292683363,-3.29268312454,1.0,0.0,0.0,0.0,1.0,0.0,0.0,0.0,1.0,0.574608398438,-0.995987890625,10.4578728516,1.0,0.0,0.0,0.0,1.0,0.0,0.0,0.0,1.0
1464167295979712872,414,1464167295977352912,,4.8972325325,-5.6112408638,-54.8584403992,0.00127100001555,1.0,0.0,0.0,0.0,1.0,0.0,0.0,0.0,1.0,0.0,3.17073178291,0.487804889679,1.0,0.0,0.0,0.0,1.0,0.0,0.0,0.0,1.0,-0.287304199219,-1.00077629395,10.405200415,1.0,0.0,0.0,0.0,1.0,0.0,0.0,0.0,1.0
1464167296004071192,415,1464167295998585157,,4.9453587532,-5.6095533371,-54.8363761902,0.00132899999153,1.0,0.0,0.0,0.0,1.0,0.0,0.0,0.0,1.0,-0.853658556938,2.56097555161,1.52439022064,1.0,0.0,0.0,0.0,1.0,0.0,0.0,0.0,1.0,-0.287304199219,-0.742202514648,10.2376062988,1.0,0.0,0.0,0.0,1.0,0.0,0.0,0.0,1.0
1464167296024227940,416,1464167296019479894,,4.94746017456,-5.60583591461,-54.8131484985,0.00148500001524,1.0,0.0,0.0,0.0,1.0,0.0,0.0,0.0,1.0,0.0,0.243902444839,0.0,1.0,0.0,0.0,0.0,1.0,0.0,0.0,0.0,1.0,-0.0718260498047,-0.928950244141,10.1753570557,1.0,0.0,0.0,0.0,1.0,0.0,0.0,0.0,1.0
1464167296043715294,417,1464167296040881102,,4.89467048645,-5.60442733765,-54.8134994507,0.00108099996578,1.0,0.0,0.0,0.0,1.0,0.0,0.0,0.0,1.0,0.12195122242,0.304878056049,-0.12195122242,1.0,0.0,0.0,0.0,1.0,0.0,0.0,0.0,1.0,-0.00478840332031,-0.804451757813,10.1418382324,1.0,0.0,0.0,0.0,1.0,0.0,0.0,0.0,1.0
1464167296064649042,418,1464167296061830215,,4.86681556702,-5.60838127136,-54.8196182251,0.00124100001995,1.0,0.0,0.0,0.0,1.0,0.0,0.0,0.0,1.0,-0.304878056049,2.25609779358,0.243902444839,1.0,0.0,0.0,0.0,1.0,0.0,0.0,0.0,1.0,-0.325611425781,-1.13963999023,10.4099888184,1.0,0.0,0.0,0.0,1.0,0.0,0.0,0.0,1.0
1464167296087034861,419,1464167296083295540,,4.89903783798,-5.60530471802,-54.8122406006,0.00102399999741,1.0,0.0,0.0,0.0,1.0,0.0,0.0,0.0,1.0,0.12195122242,2.56097555161,0.548780500889,1.0,0.0,0.0,0.0,1.0,0.0,0.0,0.0,1.0,-0.210689746094,-0.92416184082,10.2519715088,1.0,0.0,0.0,0.0,1.0,0.0,0.0,0.0,1.0
1464167296108171063,420,1464167296104782064,,4.9025850296,-5.58686208725,-54.8173179626,0.00117199996021,1.0,0.0,0.0,0.0,1.0,0.0,0.0,0.0,1.0,-0.426829278469,2.07317066193,-1.46341466904,1.0,0.0,0.0,0.0,1.0,0.0,0.0,0.0,1.0,-0.100556469727,-0.77093293457,10.2232410889,1.0,0.0,0.0,0.0,1.0,0.0,0.0,0.0,1.0
1464167296128291611,421,1464167296125721020,,4.86642599106,-5.59114456177,-54.8811225891,0.00134600000456,1.0,0.0,0.0,0.0,1.0,0.0,0.0,0.0,1.0,-1.40243899822,1.52439022064,-3.71951246262,1.0,0.0,0.0,0.0,1.0,0.0,0.0,0.0,1.0,0.0143652099609,-0.694318481445,10.1897222656,1.0,0.0,0.0,0.0,1.0,0.0,0.0,0.0,1.0
1464167296149684955,422,1464167296147438019,,4.83059644699,-5.62054300308,-54.9866294861,0.00158200005535,1.0,0.0,0.0,0.0,1.0,0.0,0.0,0.0,1.0,-1.70731711388,1.03658533096,-6.58536624908,1.0,0.0,0.0,0.0,1.0,0.0,0.0,0.0,1.0,-0.15801730957,-0.938527050781,10.3285859619,1.0,0.0,0.0,0.0,1.0,0.0,0.0,0.0,1.0
1464167296176703973,423,1464167296167764094,,4.78663778305,-5.66558551788,-55.1353340149,0.001007999992,1.0,0.0,0.0,0.0,1.0,0.0,0.0,0.0,1.0,-1.58536589146,2.98780488968,-6.40243911743,1.0,0.0,0.0,0.0,1.0,0.0,0.0,0.0,1.0,-0.15801730957,-0.852335791016,9.99339772949,1.0,0.0,0.0,0.0,1.0,0.0,0.0,0.0,1.0
1464167296196166848,424,1464167296188153869,,4.84936189651,-5.70884609222,-55.2293624878,0.000982000026852,1.0,0.0,0.0,0.0,1.0,0.0,0.0,0.0,1.0,-1.8902438879,5.36585378647,-2.74390244484,1.0,0.0,0.0,0.0,1.0,0.0,0.0,0.0,1.0,-0.383072265625,-0.972045874023,10.1705686523,1.0,0.0,0.0,0.0,1.0,0.0,0.0,0.0,1.0
1464167296214275363,425,1464167296209137879,,4.9310708046,-5.72742986679,-55.2714157104,0.000956000003498,1.0,0.0,0.0,0.0,1.0,0.0,0.0,0.0,1.0,-1.64634156227,5.18292713165,-1.46341466904,1.0,0.0,0.0,0.0,1.0,0.0,0.0,0.0,1.0,-0.215478149414,-0.790086547852,10.1705686523,1.0,0.0,0.0,0.0,1.0,0.0,0.0,0.0,1.0
1464167296232686698,426,1464167296229869486,,4.97510671616,-5.75098466873,-55.2949905396,0.000959999975748,1.0,0.0,0.0,0.0,1.0,0.0,0.0,0.0,1.0,-1.64634156227,3.96341490746,-0.731707334518,1.0,0.0,0.0,0.0,1.0,0.0,0.0,0.0,1.0,-0.105344873047,-0.689530078125,10.1514150391,1.0,0.0,0.0,0.0,1.0,0.0,0.0,0.0,1.0
1464167296254080875,427,1464167296251130899,,5.01203489304,-5.78875637054,-55.301448822,0.000976999988779,1.0,0.0,0.0,0.0,1.0,0.0,0.0,0.0,1.0,-2.31707310677,4.20731735229,0.670731723309,1.0,0.0,0.0,0.0,1.0,0.0,0.0,0.0,1.0,-0.46447512207,-0.847547387695,10.299855542,1.0,0.0,0.0,0.0,1.0,0.0,0.0,0.0,1.0
1464167296280718008,428,1464167296272001468,,5.06583547592,-5.81832408905,-55.2680931091,0.0010300000431,1.0,0.0,0.0,0.0,1.0,0.0,0.0,0.0,1.0,-1.76829278469,2.74390244484,2.19512200356,1.0,0.0,0.0,0.0,1.0,0.0,0.0,0.0,1.0,-0.205901342773,-0.775721337891,10.2759135254,1.0,0.0,0.0,0.0,1.0,0.0,0.0,0.0,1.0
1464167296300860432,429,1464167296292935060,,5.11816596985,-5.83892774582,-55.2010612488,0.00142200000118,1.0,0.0,0.0,0.0,1.0,0.0,0.0,0.0,1.0,-2.74390244484,2.07317066193,3.04878044128,1.0,0.0,0.0,0.0,1.0,0.0,0.0,0.0,1.0,-0.378283862305,-0.521935925381,9.89762966309,1.0,0.0,0.0,0.0,1.0,0.0,0.0,0.0,1.0
1464167296319625059,430,1464167296315845320,,5.02035236359,-5.85547018051,-55.1914024353,0.0012080000015,1.0,0.0,0.0,0.0,1.0,0.0,0.0,0.0,1.0,-1.58536589146,-1.40243899822,-2.74390244484,1.0,0.0,0.0,0.0,1.0,0.0,0.0,0.0,1.0,0.292092584273,-0.900219824219,10.1083194092,1.0,0.0,0.0,0.0,1.0,0.0,0.0,0.0,1.0
1464167296340042595,431,1464167296336452236,,4.94864606857,-5.88672304153,-55.2330627441,0.00255499989726,1.0,0.0,0.0,0.0,1.0,0.0,0.0,0.0,1.0,-1.34146344662,2.19512200356,-0.487804889679,1.0,0.0,0.0,0.0,1.0,0.0,0.0,0.0,1.0,-0.292092584273,-0.972045874023,10.0652237793,1.0,0.0,0.0,0.0,1.0,0.0,0.0,0.0,1.0
1464167296360159810,432,1464167296357895894,,4.99799919128,-5.88579130173,-55.2025375366,0.0012379999971,1.0,0.0,0.0,0.0,1.0,0.0,0.0,0.0,1.0,-1.03658533096,3.53658556938,2.56097555161,1.0,0.0,0.0,0.0,1.0,0.0,0.0,0.0,1.0,-0.3064578125,-0.684741674805,9.79707319336,1.0,0.0,0.0,0.0,1.0,0.0,0.0,0.0,1.0
1464167296387706134,433,1464167296378930270,,5.02579832077,-5.87700748444,-55.1562690735,0.00117499998305,1.0,0.0,0.0,0.0,1.0,0.0,0.0,0.0,1.0,-1.2195122242,1.76829278469,1.15853655338,1.0,0.0,0.0,0.0,1.0,0.0,0.0,0.0,1.0,-0.167594116211,-0.785298144531,10.2567599121,1.0,0.0,0.0,0.0,1.0,0.0,0.0,0.0,1.0
1464167296407725951,434,1464167296401409060,,4.99826097488,-5.8617067337,-55.1714019775,0.00297100003809,1.0,0.0,0.0,0.0,1.0,0.0,0.0,0.0,1.0,0.0609756112099,1.8292683363,-1.2195122242,1.0,0.0,0.0,0.0,1.0,0.0,0.0,0.0,1.0,-0.0430956298828,-0.905008227539,10.3860468018,1.0,0.0,0.0,0.0,1.0,0.0,0.0,0.0,1.0
1464167296440711955,435,1464167296433556968,,5.00238227844,-5.82607698441,-55.2363624573,0.00761900003999,1.0,0.0,0.0,0.0,1.0,0.0,0.0,0.0,1.0,1.34146344662,2.92682933807,-2.5,1.0,0.0,0.0,0.0,1.0,0.0,0.0,0.0,1.0,-0.263362164351,-0.689530078125,10.299855542,1.0,0.0,0.0,0.0,1.0,0.0,0.0,0.0,1.0
1464167296464585002,436,1464167296455921901,,5.0408039093,-5.83239412308,-55.2885437012,0.000959000026342,1.0,0.0,0.0,0.0,1.0,0.0,0.0,0.0,1.0,-0.18292683363,2.62195134163,-2.43902444839,1.0,0.0,0.0,0.0,1.0,0.0,0.0,0.0,1.0,-0.129286889648,-0.852335791016,10.2040874756,1.0,0.0,0.0,0.0,1.0,0.0,0.0,0.0,1.0
1464167296477211700,437,1464167296475163051,,5.04238319397,-5.82114982605,-55.3425140381,0.00247900001705,1.0,0.0,0.0,0.0,1.0,0.0,0.0,0.0,1.0,0.0609756112099,2.92682933807,-2.01219511032,1.0,0.0,0.0,0.0,1.0,0.0,0.0,0.0,1.0,-0.0191536132812,-1.03429511719,10.3908352051,1.0,0.0,0.0,0.0,1.0,0.0,0.0,0.0,1.0
1464167296500530149,438,1464167296497172140,,5.04332399368,-5.80153465271,-55.3888702393,0.00213599996641,1.0,0.0,0.0,0.0,1.0,0.0,0.0,0.0,1.0,0.731707334518,2.68292689323,-2.13414645195,1.0,0.0,0.0,0.0,1.0,0.0,0.0,0.0,1.0,0.0909796630859,-0.727837304687,10.3716815918,1.0,0.0,0.0,0.0,1.0,0.0,0.0,0.0,1.0
1464167296519970314,439,1464167296517750514,,5.02757978439,-5.78827524185,-55.4481124878,0.00214600004256,1.0,0.0,0.0,0.0,1.0,0.0,0.0,0.0,1.0,-0.365853667259,2.56097555161,-2.98780488968,1.0,0.0,0.0,0.0,1.0,0.0,0.0,0.0,1.0,0.205901342773,-0.885854614258,10.1897222656,1.0,0.0,0.0,0.0,1.0,0.0,0.0,0.0,1.0
1464167296546046390,440,1464167296540315452,,5.06048631668,-5.79710006714,-55.5046768188,0.00179699994624,1.0,0.0,0.0,0.0,1.0,0.0,0.0,0.0,1.0,0.12195122242,5.91463422775,-1.15853655338,1.0,0.0,0.0,0.0,1.0,0.0,0.0,0.0,1.0,-0.407014282227,-1.39821376953,10.4770264648,1.0,0.0,0.0,0.0,1.0,0.0,0.0,0.0,1.0
1464167296562972893,441,1464167296560712727,,5.20639657974,-5.78581237793,-55.4574699402,0.0012529999949,1.0,0.0,0.0,0.0,1.0,0.0,0.0,0.0,1.0,0.304878056049,4.93902444839,3.41463422775,1.0,0.0,0.0,0.0,1.0,0.0,0.0,0.0,1.0,-0.684741674805,-0.799663354492,10.1226846191,1.0,0.0,0.0,0.0,1.0,0.0,0.0,0.0,1.0
1464167296584888647,442,1464167296581758666,,5.22602367401,-5.76333379745,-55.3918266296,0.0015419999836,1.0,0.0,0.0,0.0,1.0,0.0,0.0,0.0,1.0,0.426829278469,0.304878056049,1.76829278469,1.0,0.0,0.0,0.0,1.0,0.0,0.0,0.0,1.0,0.076614453125,-0.76135612793,10.2902787354,1.0,0.0,0.0,0.0,1.0,0.0,0.0,0.0,1.0
1464167296608203762,443,1464167296602566056,,5.09545612335,-5.75247049332,-55.4135284424,0.00110700004734,1.0,0.0,0.0,0.0,1.0,0.0,0.0,0.0,1.0,0.0,0.853658556938,-2.13414645195,1.0,0.0,0.0,0.0,1.0,0.0,0.0,0.0,1.0,0.292092584273,-0.775721337891,10.1992990723,1.0,0.0,0.0,0.0,1.0,0.0,0.0,0.0,1.0
1464167296628974641,444,1464167296624292482,,5.11800098419,-5.78110361099,-55.414264679,0.00124100001995,1.0,0.0,0.0,0.0,1.0,0.0,0.0,0.0,1.0,-0.487804889679,3.53658556938,1.15853655338,1.0,0.0,0.0,0.0,1.0,0.0,0.0,0.0,1.0,-0.258573779297,-1.07739082014,10.4770264648,1.0,0.0,0.0,0.0,1.0,0.0,0.0,0.0,1.0
1464167296649240246,445,1464167296644619599,,5.17360401154,-5.75854587555,-55.3608512878,0.00126900000032,1.0,0.0,0.0,0.0,1.0,0.0,0.0,0.0,1.0,1.09756100178,3.84146332741,2.98780488968,1.0,0.0,0.0,0.0,1.0,0.0,0.0,0.0,1.0,-0.363918652344,-0.742202514648,10.046070166,1.0,0.0,0.0,0.0,1.0,0.0,0.0,0.0,1.0
1464167296670298841,446,1464167296665304590,,5.18825006485,-5.73638153076,-55.310218811,0.00139500002842,1.0,0.0,0.0,0.0,1.0,0.0,0.0,0.0,1.0,0.18292683363,2.13414645195,2.80487799644,1.0,0.0,0.0,0.0,1.0,0.0,0.0,0.0,1.0,0.0574608398438,-0.809240161133,10.0317049561,1.0,0.0,0.0,0.0,1.0,0.0,0.0,0.0,1.0
1464167296690730127,447,1464167296686339799,,5.22589683533,-5.72311878204,-55.2435379028,0.00175099994522,1.0,0.0,0.0,0.0,1.0,0.0,0.0,0.0,1.0,0.0609756112099,2.01219511032,3.7804877758,1.0,0.0,0.0,0.0,1.0,0.0,0.0,0.0,1.0,-0.588973571866,-0.660799658203,10.2902787354,1.0,0.0,0.0,0.0,1.0,0.0,0.0,0.0,1.0
1464167296710490614,448,1464167296707836427,,5.15047550201,-5.70329618454,-55.2117080688,0.00173000001814,1.0,0.0,0.0,0.0,1.0,0.0,0.0,0.0,1.0,-0.670731723309,-2.01219511032,-2.25609779358,1.0,0.0,0.0,0.0,1.0,0.0,0.0,0.0,1.0,0.684741674805,-0.46447512207,10.2950671387,1.0,0.0,0.0,0.0,1.0,0.0,0.0,0.0,1.0
1464167296737961989,449,1464167296728061771,,5.04506349564,-5.7264213562,-55.2917366028,0.00126399996225,1.0,0.0,0.0,0.0,1.0,0.0,0.0,0.0,1.0,-2.13414645195,1.64634156227,-4.08536577225,1.0,0.0,0.0,0.0,1.0,0.0,0.0,0.0,1.0,-0.229843359375,-1.34075292969,10.2759135254,1.0,0.0,0.0,0.0,1.0,0.0,0.0,0.0,1.0
1464167296751151515,450,1464167296748655874,,5.06881952286,-5.76229715347,-55.3342590332,0.0010300000431,1.0,0.0,0.0,0.0,1.0,0.0,0.0,0.0,1.0,-1.40243899822,3.10975623131,-1.2804877758,1.0,0.0,0.0,0.0,1.0,0.0,0.0,0.0,1.0,-0.220266552734,-0.9193734375,10.1418382324,1.0,0.0,0.0,0.0,1.0,0.0,0.0,0.0,1.0
1464167296775767499,451,1464167296769836868,,5.11526489258,-5.77577447891,-55.3525085449,0.000967999978457,1.0,0.0,0.0,0.0,1.0,0.0,0.0,0.0,1.0,-1.40243899822,2.5,-0.792682945728,1.0,0.0,0.0,0.0,1.0,0.0,0.0,0.0,1.0,-0.215478149414,-0.679953271484,10.1514150391,1.0,0.0,0.0,0.0,1.0,0.0,0.0,0.0,1.0
1464167296796353164,452,1464167296791331309,,5.13386297226,-5.8045964241,-55.3703193665,0.000980000011623,1.0,0.0,0.0,0.0,1.0,0.0,0.0,0.0,1.0,-1.70731711388,2.92682933807,-0.18292683363,1.0,0.0,0.0,0.0,1.0,0.0,0.0,0.0,1.0,-0.148440512063,-0.981622680664,10.4482960449,1.0,0.0,0.0,0.0,1.0,0.0,0.0,0.0,1.0
1464167296821219207,453,1464167296812510688,,5.18656921387,-5.83416414261,-55.3496170044,0.00103299994953,1.0,0.0,0.0,0.0,1.0,0.0,0.0,0.0,1.0,-1.58536589146,2.86585378647,1.46341466904,1.0,0.0,0.0,0.0,1.0,0.0,0.0,0.0,1.0,-0.363918652344,-0.991199487305,10.0843773926,1.0,0.0,0.0,0.0,1.0,0.0,0.0,0.0,1.0
1464167296839811641,454,1464167296833141095,,5.11957168579,-5.83230733871,-55.3728103638,0.00107100000605,1.0,0.0,0.0,0.0,1.0,0.0,0.0,0.0,1.0,-0.731707334518,-0.18292683363,-4.2682929039,1.0,0.0,0.0,0.0,1.0,0.0,0.0,0.0,1.0,0.641646044922,-0.727837304687,10.4913916748,1.0,0.0,0.0,0.0,1.0,0.0,0.0,0.0,1.0
1464167296859379050,455,1464167296854567825,,5.09122276306,-5.85349988937,-55.4468994141,0.00118999998085,1.0,0.0,0.0,0.0,1.0,0.0,0.0,0.0,1.0,-0.792682945728,3.29268312454,-1.46341466904,1.0,0.0,0.0,0.0,1.0,0.0,0.0,0.0,1.0,-0.440533105469,-1.01992990723,10.3477395752,1.0,0.0,0.0,0.0,1.0,0.0,0.0,0.0,1.0
1464167296883253034,456,1464167296875791425,,5.14219331741,-5.8399939537,-55.4577217102,0.00148500001524,1.0,0.0,0.0,0.0,1.0,0.0,0.0,0.0,1.0,0.548780500889,2.86585378647,0.426829278469,1.0,0.0,0.0,0.0,1.0,0.0,0.0,0.0,1.0,-0.368707055664,-0.828393774414,9.99818613281,1.0,0.0,0.0,0.0,1.0,0.0,0.0,0.0,1.0
1464167296899759370,457,1464167296896212242,,5.15640592575,-5.81147241592,-55.4413223267,0.00181499996688,1.0,0.0,0.0,0.0,1.0,0.0,0.0,0.0,1.0,0.365853667259,0.670731723309,0.548780500889,1.0,0.0,0.0,0.0,1.0,0.0,0.0,0.0,1.0,-0.349553442383,-0.861912597656,10.0077629395,1.0,0.0,0.0,0.0,1.0,0.0,0.0,0.0,1.0
1464167296918617853,458,1464167296917191981,,5.15508794785,-5.79701423645,-55.3995513916,0.00116600003093,1.0,0.0,0.0,0.0,1.0,0.0,0.0,0.0,1.0,0.609756112099,2.68292689323,3.41463422775,1.0,0.0,0.0,0.0,1.0,0.0,0.0,0.0,1.0,-0.368707055664,-0.809240161133,10.553640918,1.0,0.0,0.0,0.0,1.0,0.0,0.0,0.0,1.0
1464167296940048802,459,1464167296938297660,,5.16846704483,-5.76956987381,-55.3221359253,0.0012300000526,1.0,0.0,0.0,0.0,1.0,0.0,0.0,0.0,1.0,0.548780500889,1.58536589146,3.10975623131,1.0,0.0,0.0,0.0,1.0,0.0,0.0,0.0,1.0,-0.110133276367,-0.679953271484,9.95987890625,1.0,0.0,0.0,0.0,1.0,0.0,0.0,0.0,1.0
1464167296965305793,460,1464167296958752072,,5.13482570648,-5.74047756195,-55.2817764282,0.00117900001351,1.0,0.0,0.0,0.0,1.0,0.0,0.0,0.0,1.0,0.426829278469,1.03658533096,0.792682945728,1.0,0.0,0.0,0.0,1.0,0.0,0.0,0.0,1.0,-0.15801730957,-0.905008227539,10.2328178955,1.0,0.0,0.0,0.0,1.0,0.0,0.0,0.0,1.0
1464167296980803351,461,1464167296979302112,,5.10037326813,-5.71954917908,-55.2744789124,0.00114399997983,1.0,0.0,0.0,0.0,1.0,0.0,0.0,0.0,1.0,1.40243899822,0.914634168148,-0.304878056049,1.0,0.0,0.0,0.0,1.0,0.0,0.0,0.0,1.0,-0.205901342773,-0.828393774414,10.1753570557,1.0,0.0,0.0,0.0,1.0,0.0,0.0,0.0,1.0
1464167297002848848,462,1464167296999722513,,5.0235452652,-5.68337631226,-55.3153915405,0.00106599996798,1.0,0.0,0.0,0.0,1.0,0.0,0.0,0.0,1.0,0.975609779358,1.2804877758,-3.17073178291,1.0,0.0,0.0,0.0,1.0,0.0,0.0,0.0,1.0,0.234631762695,-0.852335791016,10.1178962158,1.0,0.0,0.0,0.0,1.0,0.0,0.0,0.0,1.0
1464167297023909110,463,1464167297021132107,,5.04607057571,-5.68265867233,-55.3635063171,0.001111999969,1.0,0.0,0.0,0.0,1.0,0.0,0.0,0.0,1.0,0.243902444839,4.14634132385,0.18292683363,1.0,0.0,0.0,0.0,1.0,0.0,0.0,0.0,1.0,-0.330399829102,-0.478840332031,9.77791958008,1.0,0.0,0.0,0.0,1.0,0.0,0.0,0.0,1.0
1464167297043851112,464,1464167297042212317,,5.18757343292,-5.66150474548,-55.3211097717,0.000987999956124,1.0,0.0,0.0,0.0,1.0,0.0,0.0,0.0,1.0,-0.12195122242,4.14634132385,3.10975623131,1.0,0.0,0.0,0.0,1.0,0.0,0.0,0.0,1.0,-0.359130249023,-0.679953271484,10.1178962158,1.0,0.0,0.0,0.0,1.0,0.0,0.0,0.0,1.0
1464167297066291412,465,1464167297063432532,,5.211769104,-5.65640258789,-55.2816581726,0.0009710000013,1.0,0.0,0.0,0.0,1.0,0.0,0.0,0.0,1.0,-0.365853667259,1.58536589146,1.03658533096,1.0,0.0,0.0,0.0,1.0,0.0,0.0,0.0,1.0,0.0526724365234,-0.866701000977,10.4291424316,1.0,0.0,0.0,0.0,1.0,0.0,0.0,0.0,1.0
1464167297086067420,466,1464167297084098043,,5.18330812454,-5.66630983353,-55.2770233154,0.000969999993686,1.0,0.0,0.0,0.0,1.0,0.0,0.0,0.0,1.0,0.18292683363,1.40243899822,-0.304878056049,1.0,0.0,0.0,0.0,1.0,0.0,0.0,0.0,1.0,-0.0861912597656,-1.01035310059,10.3621047852,1.0,0.0,0.0,0.0,1.0,0.0,0.0,0.0,1.0
1464167297115249778,467,1464167297106065569,,5.16915464401,-5.67237901688,-55.2866668701,0.00230000005104,1.0,0.0,0.0,0.0,1.0,0.0,0.0,0.0,1.0,-0.731707334518,1.34146344662,-1.03658533096,1.0,0.0,0.0,0.0,1.0,0.0,0.0,0.0,1.0,-0.100556469727,-0.751779321289,10.0364933594,1.0,0.0,0.0,0.0,1.0,0.0,0.0,0.0,1.0
1464167297129483604,468,1464167297126726497,,5.10471200943,-5.68556642532,-55.3317718506,0.00127200002316,1.0,0.0,0.0,0.0,1.0,0.0,0.0,0.0,1.0,-0.914634168148,1.8902438879,-2.37804889679,1.0,0.0,0.0,0.0,1.0,0.0,0.0,0.0,1.0,-0.124498486328,-1.17315874041,10.3237975586,1.0,0.0,0.0,0.0,1.0,0.0,0.0,0.0,1.0
1464167297154713563,469,1464167297147713268,,5.18638896942,-5.68835926056,-55.3038482666,0.00131600000896,1.0,0.0,0.0,0.0,1.0,0.0,0.0,0.0,1.0,0.18292683363,4.02439022064,3.59756112099,1.0,0.0,0.0,0.0,1.0,0.0,0.0,0.0,1.0,-0.679953271484,-1.06302561017,10.8217915039,1.0,0.0,0.0,0.0,1.0,0.0,0.0,0.0,1.0
1464167297175278394,470,1464167297168521127,,5.28513050079,-5.68027305603,-55.2143554688,0.000968999986071,1.0,0.0,0.0,0.0,1.0,0.0,0.0,0.0,1.0,-0.731707334518,4.08536577225,4.63414621353,1.0,0.0,0.0,0.0,1.0,0.0,0.0,0.0,1.0,-0.272938989258,-0.727837304687,10.1705686523,1.0,0.0,0.0,0.0,1.0,0.0,0.0,0.0,1.0
1464167297194756790,471,1464167297189376852,,5.28434324265,-5.6924238205,-55.159526825,0.000976999988779,1.0,0.0,0.0,0.0,1.0,0.0,0.0,0.0,1.0,-1.2804877758,1.95121955872,1.34146344662,1.0,0.0,0.0,0.0,1.0,0.0,0.0,0.0,1.0,0.00478840332031,-0.718260498047,10.1466266357,1.0,0.0,0.0,0.0,1.0,0.0,0.0,0.0,1.0
1464167297216997240,472,1464167297209988247,,5.24609947205,-5.71763277054,-55.1448478699,0.000966000021435,1.0,0.0,0.0,0.0,1.0,0.0,0.0,0.0,1.0,-0.975609779358,1.2804877758,-0.304878056049,1.0,0.0,0.0,0.0,1.0,0.0,0.0,0.0,1.0,0.0335188255255,-0.905008227539,10.1562034424,1.0,0.0,0.0,0.0,1.0,0.0,0.0,0.0,1.0
1464167297239226545,473,1464167297231276744,,5.21816444397,-5.73308563232,-55.1487960815,0.00115100003313,1.0,0.0,0.0,0.0,1.0,0.0,0.0,0.0,1.0,-0.548780500889,1.95121955872,0.12195122242,1.0,0.0,0.0,0.0,1.0,0.0,0.0,0.0,1.0,-0.277727392578,-1.03908344744,10.1992990723,1.0,0.0,0.0,0.0,1.0,0.0,0.0,0.0,1.0
1464167297257403082,474,1464167297251765012,,5.20326757431,-5.72928571701,-55.1506767273,0.00101699994411,1.0,0.0,0.0,0.0,1.0,0.0,0.0,0.0,1.0,0.0609756112099,1.46341466904,-0.792682945728,1.0,0.0,0.0,0.0,1.0,0.0,0.0,0.0,1.0,-0.0526724365234,-0.861912597656,10.165780249,1.0,0.0,0.0,0.0,1.0,0.0,0.0,0.0,1.0
1464167297281585721,475,1464167297275151483,,5.19374608994,-5.73160266876,-55.1712341309,0.00332999997772,1.0,0.0,0.0,0.0,1.0,0.0,0.0,0.0,1.0,-0.0609756112099,2.07317066193,-1.34146344662,1.0,0.0,0.0,0.0,1.0,0.0,0.0,0.0,1.0,-0.0143652099609,-1.01035310059,10.1418382324,1.0,0.0,0.0,0.0,1.0,0.0,0.0,0.0,1.0
1464167297301602256,476,1464167297298801399,,5.19013690948,-5.73529005051,-55.2060279846,0.00265799998306,1.0,0.0,0.0,0.0,1.0,0.0,0.0,0.0,1.0,-0.792682945728,3.10975623131,-2.13414645195,1.0,0.0,0.0,0.0,1.0,0.0,0.0,0.0,1.0,-0.181959326172,-0.895431420898,10.314220752,1.0,0.0,0.0,0.0,1.0,0.0,0.0,0.0,1.0
1464167297320467562,477,1464167297318810642,,5.15956640244,-5.74720811844,-55.2720375061,0.00209899991751,1.0,0.0,0.0,0.0,1.0,0.0,0.0,0.0,1.0,-0.975609779358,2.86585378647,-3.90243911743,1.0,0.0,0.0,0.0,1.0,0.0,0.0,0.0,1.0,0.119710083008,-0.885854614258,10.3621047852,1.0,0.0,0.0,0.0,1.0,0.0,0.0,0.0,1.0
1464167297341058957,478,1464167297339440684,,5.17266845703,-5.78245925903,-55.3482322693,0.00115899997763,1.0,0.0,0.0,0.0,1.0,0.0,0.0,0.0,1.0,-2.13414645195,4.69512224197,-2.07317066193,1.0,0.0,0.0,0.0,1.0,0.0,0.0,0.0,1.0,-1.11569797363,-1.09175595703,10.3956236084,1.0,0.0,0.0,0.0,1.0,0.0,0.0,0.0,1.0
1464167297363231281,479,1464167297359929524,,5.287733078,-5.81593132019,-55.3292541504,0.0012309999438,1.0,0.0,0.0,0.0,1.0,0.0,0.0,0.0,1.0,-2.5,3.59756112099,2.56097555161,1.0,0.0,0.0,0.0,1.0,0.0,0.0,0.0,1.0,-0.967257470703,-0.818816967773,10.0891657959,1.0,0.0,0.0,0.0,1.0,0.0,0.0,0.0,1.0
1464167297382842701,480,1464167297380840615,,5.28732681274,-5.8462896347,-55.2862358093,0.00121200003196,1.0,0.0,0.0,0.0,1.0,0.0,0.0,0.0,1.0,-3.59756112099,-0.12195122242,1.09756100178,1.0,0.0,0.0,0.0,1.0,0.0,0.0,0.0,1.0,-0.15801730957,-0.799663354492,10.0939541992,1.0,0.0,0.0,0.0,1.0,0.0,0.0,0.0,1.0
1464167297413713022,481,1464167297401704726,,5.20072031021,-5.89767360687,-55.2828102112,0.00105500000063,1.0,0.0,0.0,0.0,1.0,0.0,0.0,0.0,1.0,-2.13414645195,-0.609756112099,-0.304878056049,1.0,0.0,0.0,0.0,1.0,0.0,0.0,0.0,1.0,-0.076614453125,-0.995987890625,10.4243540283,1.0,0.0,0.0,0.0,1.0,0.0,0.0,0.0,1.0
1464167297431633198,482,1464167297422873116,,5.14487838745,-5.93809843063,-55.289642334,0.00131500000134,1.0,0.0,0.0,0.0,1.0,0.0,0.0,0.0,1.0,-1.09756100178,-0.426829278469,-1.52439022064,1.0,0.0,0.0,0.0,1.0,0.0,0.0,0.0,1.0,0.234631762695,-0.972045874023,10.1705686523,1.0,0.0,0.0,0.0,1.0,0.0,0.0,0.0,1.0
1464167297445611861,483,1464167297444036245,,5.07854557037,-5.95918989182,-55.3482398987,0.00159300002269,1.0,0.0,0.0,0.0,1.0,0.0,0.0,0.0,1.0,-1.46341466904,1.70731711388,-2.92682933807,1.0,0.0,0.0,0.0,1.0,0.0,0.0,0.0,1.0,0.00478840332031,-0.909796630859,10.314220752,1.0,0.0,0.0,0.0,1.0,0.0,0.0,0.0,1.0
1464167297472723642,484,1464167297464749987,,5.13316869736,-5.98934268951,-55.3696632385,0.00099400000181,1.0,0.0,0.0,0.0,1.0,0.0,0.0,0.0,1.0,-0.243902444839,6.95121955872,1.70731711388,1.0,0.0,0.0,0.0,1.0,0.0,0.0,0.0,1.0,-1.15879360352,-0.909796630859,10.1322614258,1.0,0.0,0.0,0.0,1.0,0.0,0.0,0.0,1.0
1464167297488501312,485,1464167297485431280,,5.25868654251,-5.96206521988,-55.2969322205,0.00102099997457,1.0,0.0,0.0,0.0,1.0,0.0,0.0,0.0,1.0,-0.243902444839,4.51219558716,3.7804877758,1.0,0.0,0.0,0.0,1.0,0.0,0.0,0.0,1.0,-0.565031591797,-0.727837304687,10.1705686523,1.0,0.0,0.0,0.0,1.0,0.0,0.0,0.0,1.0
1464167297514372486,486,1464167297506513261,,5.23482990265,-5.93426132202,-55.2617416382,0.00135899998713,1.0,0.0,0.0,0.0,1.0,0.0,0.0,0.0,1.0,-0.975609779358,-0.731707334518,-1.34146344662,1.0,0.0,0.0,0.0,1.0,0.0,0.0,0.0,1.0,0.574608398438,-0.780509741211,10.912771167,1.0,0.0,0.0,0.0,1.0,0.0,0.0,0.0,1.0
1464167297530163385,487,1464167297527100281,,5.1394739151,-5.95233869553,-55.3226623535,0.00101100001484,1.0,0.0,0.0,0.0,1.0,0.0,0.0,0.0,1.0,-0.914634168148,2.80487799644,-2.98780488968,1.0,0.0,0.0,0.0,1.0,0.0,0.0,0.0,1.0,-0.0957680664062,-0.967257470703,10.4099888184,1.0,0.0,0.0,0.0,1.0,0.0,0.0,0.0,1.0
1464167297550305237,488,1464167297547862149,,5.1767911911,-5.95823669434,-55.3298606873,0.000987999956124,1.0,0.0,0.0,0.0,1.0,0.0,0.0,0.0,1.0,0.975609779358,2.62195134163,0.792682945728,1.0,0.0,0.0,0.0,1.0,0.0,0.0,0.0,1.0,-0.325611425781,-1.06781401349,9.91199487305,1.0,0.0,0.0,0.0,1.0,0.0,0.0,0.0,1.0
1464167297571449876,489,1464167297568281873,,5.21493721008,-5.93262815475,-55.2988853455,0.000964000006206,1.0,0.0,0.0,0.0,1.0,0.0,0.0,0.0,1.0,0.609756112099,1.34146344662,2.07317066193,1.0,0.0,0.0,0.0,1.0,0.0,0.0,0.0,1.0,-0.354341845703,-0.77093293457,9.98860932617,1.0,0.0,0.0,0.0,1.0,0.0,0.0,0.0,1.0
1464167297592485814,490,1464167297589299477,,5.19656562805,-5.90641593933,-55.2623977661,0.000974000024144,1.0,0.0,0.0,0.0,1.0,0.0,0.0,0.0,1.0,0.304878056049,1.2195122242,2.37804889679,1.0,0.0,0.0,0.0,1.0,0.0,0.0,0.0,1.0,-0.229843359375,-0.967257470703,10.1514150391,1.0,0.0,0.0,0.0,1.0,0.0,0.0,0.0,1.0
1464167297615712906,491,1464167297612196664,,5.23043966293,-5.89369392395,-55.1906318665,0.00098600005731,1.0,0.0,0.0,0.0,1.0,0.0,0.0,0.0,1.0,-0.18292683363,1.2195122242,3.10975623131,1.0,0.0,0.0,0.0,1.0,0.0,0.0,0.0,1.0,-0.205901342773,-0.871489404297,10.2423947021,1.0,0.0,0.0,0.0,1.0,0.0,0.0,0.0,1.0
1464167297640982658,492,1464167297637015727,,5.14472341537,-5.87076187134,-55.1750564575,0.0010379999876,1.0,0.0,0.0,0.0,1.0,0.0,0.0,0.0,1.0,-1.03658533096,-0.609756112099,-3.35365867615,1.0,0.0,0.0,0.0,1.0,0.0,0.0,0.0,1.0,0.248996972656,-0.833182177734,10.4147772217,1.0,0.0,0.0,0.0,1.0,0.0,0.0,0.0,1.0
1464167297661909374,493,1464167297659005128,,5.10921430588,-5.89887523651,-55.2461280823,0.00625899992883,1.0,0.0,0.0,0.0,1.0,0.0,0.0,0.0,1.0,-0.975609779358,3.47560977936,-0.975609779358,1.0,0.0,0.0,0.0,1.0,0.0,0.0,0.0,1.0,-0.430956298828,-0.986411083984,10.3477395752,1.0,0.0,0.0,0.0,1.0,0.0,0.0,0.0,1.0
1464167297683074327,494,1464167297680293574,,5.19595146179,-5.91707897186,-55.2231674194,0.00798199977726,1.0,0.0,0.0,0.0,1.0,0.0,0.0,0.0,1.0,-1.03658533096,3.90243911743,2.31707310677,1.0,0.0,0.0,0.0,1.0,0.0,0.0,0.0,1.0,-0.799663354492,-0.794874951172,9.91678327637,1.0,0.0,0.0,0.0,1.0,0.0,0.0,0.0,1.0
1464167297703131488,495,1464167297700086093,,5.21545362473,-5.92334365845,-55.1858291626,0.00277599995025,1.0,0.0,0.0,0.0,1.0,0.0,0.0,0.0,1.0,-2.01219511032,0.243902444839,1.03658533096,1.0,0.0,0.0,0.0,1.0,0.0,0.0,0.0,1.0,-0.3064578125,-0.876277807617,10.1418382324,1.0,0.0,0.0,0.0,1.0,0.0,0.0,0.0,1.0
1464167297724253054,496,1464167297720318780,,5.14971113205,-5.94482469559,-55.1886405945,0.00130100001115,1.0,0.0,0.0,0.0,1.0,0.0,0.0,0.0,1.0,-0.548780500889,1.34146344662,-0.548780500889,1.0,0.0,0.0,0.0,1.0,0.0,0.0,0.0,1.0,-0.110133276367,-1.15879360352,10.3477395752,1.0,0.0,0.0,0.0,1.0,0.0,0.0,0.0,1.0
1464167297745049402,497,1464167297741553421,,5.11323404312,-5.94047212601,-55.2149810791,0.001215999946,1.0,0.0,0.0,0.0,1.0,0.0,0.0,0.0,1.0,1.09756100178,0.670731723309,-2.25609779358,1.0,0.0,0.0,0.0,1.0,0.0,0.0,0.0,1.0,0.258573779297,-0.866701000977,9.90720646973,1.0,0.0,0.0,0.0,1.0,0.0,0.0,0.0,1.0
1464167297765644391,498,1464167297762435605,,5.06694698334,-5.92422580719,-55.2884674072,0.00101300003007,1.0,0.0,0.0,0.0,1.0,0.0,0.0,0.0,1.0,-0.243902444839,1.8292683363,-4.32926845551,1.0,0.0,0.0,0.0,1.0,0.0,0.0,0.0,1.0,-0.0383072265625,-0.981622680664,10.5775829346,1.0,0.0,0.0,0.0,1.0,0.0,0.0,0.0,1.0
1464167297786142710,499,1464167297783682643,,5.11257696152,-5.91795110703,-55.335559845,0.0010229999898,1.0,0.0,0.0,0.0,1.0,0.0,0.0,0.0,1.0,1.15853655338,3.90243911743,-0.792682945728,1.0,0.0,0.0,0.0,1.0,0.0,0.0,0.0,1.0,-0.229843359375,-0.909796630859,10.2807019287,1.0,0.0,0.0,0.0,1.0,0.0,0.0,0.0,1.0
1464167297808218990,500,1464167297804999423,,5.1591296196,-5.88519191742,-55.3380584717,0.000981000019237,1.0,0.0,0.0,0.0,1.0,0.0,0.0,0.0,1.0,-0.853658556938,4.14634132385,0.12195122242,1.0,0.0,0.0,0.0,1.0,0.0,0.0,0.0,1.0,-0.335188232422,-0.555454785156,10.060435376,1.0,0.0,0.0,0.0,1.0,0.0,0.0,0.0,1.0
1464167297829727389,501,1464167297826439070,,5.19232082367,-5.89641666412,-55.3263244629,0.00151400000323,1.0,0.0,0.0,0.0,1.0,0.0,0.0,0.0,1.0,-0.792682945728,2.07317066193,0.548780500889,1.0,0.0,0.0,0.0,1.0,0.0,0.0,0.0,1.0,0.272938989258,-1.29286889648,10.9031943604,1.0,0.0,0.0,0.0,1.0,0.0,0.0,0.0,1.0
1464167297850616448,502,1464167297846663788,,5.24736595154,-5.89895486832,-55.2748832703,0.0011419999646,1.0,0.0,0.0,0.0,1.0,0.0,0.0,0.0,1.0,-0.548780500889,2.86585378647,2.80487799644,1.0,0.0,0.0,0.0,1.0,0.0,0.0,0.0,1.0,-0.378283862305,-0.948103857422,10.2807019287,1.0,0.0,0.0,0.0,1.0,0.0,0.0,0.0,1.0
1464167297870259171,503,1464167297867112731,,5.23616361618,-5.91365385056,-55.2314338684,0.00124000001233,1.0,0.0,0.0,0.0,1.0,0.0,0.0,0.0,1.0,-1.09756100178,1.2804877758,0.731707334518,1.0,0.0,0.0,0.0,1.0,0.0,0.0,0.0,1.0,0.167594116211,-0.900219824219,9.93593688965,1.0,0.0,0.0,0.0,1.0,0.0,0.0,0.0,1.0
1464167297895967060,504,1464167297887704543,,5.19498872757,-5.92334842682,-55.2307510376,0.00101200002246,1.0,0.0,0.0,0.0,1.0,0.0,0.0,0.0,1.0,-1.09756100178,0.792682945728,-0.548780500889,1.0,0.0,0.0,0.0,1.0,0.0,0.0,0.0,1.0,-0.0430956298828,-1.10133276367,10.3573163818,1.0,0.0,0.0,0.0,1.0,0.0,0.0,0.0,1.0
1464167297911453628,505,1464167297908381357,,5.13593149185,-5.9146490097,-55.2523880005,0.00100599997677,1.0,0.0,0.0,0.0,1.0,0.0,0.0,0.0,1.0,0.670731723309,-0.243902444839,-2.62195134163,1.0,0.0,0.0,0.0,1.0,0.0,0.0,0.0,1.0,-0.076614453125,-0.948103857422,9.89762966309,1.0,0.0,0.0,0.0,1.0,0.0,0.0,0.0,1.0
1464167297933262191,506,1464167297929487453,,5.06578016281,-5.90991687775,-55.3188819885,0.00104000000283,1.0,0.0,0.0,0.0,1.0,0.0,0.0,0.0,1.0,-0.609756112099,1.34146344662,-2.74390244484,1.0,0.0,0.0,0.0,1.0,0.0,0.0,0.0,1.0,0.0239420166016,-1.06302561017,10.1466266357,1.0,0.0,0.0,0.0,1.0,0.0,0.0,0.0,1.0
1464167297956286465,507,1464167297953496754,,5.11035251617,-5.91960430145,-55.3430938721,0.00356499990448,1.0,0.0,0.0,0.0,1.0,0.0,0.0,0.0,1.0,0.365853667259,3.35365867615,0.0609756112099,1.0,0.0,0.0,0.0,1.0,0.0,0.0,0.0,1.0,-0.229843359375,-1.11090957031,10.2567599121,1.0,0.0,0.0,0.0,1.0,0.0,0.0,0.0,1.0
1464167297981126622,508,1464167297977402770,,5.15873622894,-5.91787004471,-55.3306083679,0.00255699991249,1.0,0.0,0.0,0.0,1.0,0.0,0.0,0.0,1.0,-0.792682945728,3.10975623131,0.853658556938,1.0,0.0,0.0,0.0,1.0,0.0,0.0,0.0,1.0,-0.143652099609,-0.837970581055,9.88805285645,1.0,0.0,0.0,0.0,1.0,0.0,0.0,0.0,1.0
1464167298000552985,509,1464167297997396128,,5.19388341904,-5.91570472717,-55.2938652039,0.00293299998157,1.0,0.0,0.0,0.0,1.0,0.0,0.0,0.0,1.0,-1.58536589146,4.20731735229,3.04878044128,1.0,0.0,0.0,0.0,1.0,0.0,0.0,0.0,1.0,-0.574608398438,-0.708683691406,10.2423947021,1.0,0.0,0.0,0.0,1.0,0.0,0.0,0.0,1.0
1464167298020619626,510,1464167298017977210,,5.22426128387,-5.92497825623,-55.2384109497,0.0013419999741,1.0,0.0,0.0,0.0,1.0,0.0,0.0,0.0,1.0,-1.2804877758,0.731707334518,2.07317066193,1.0,0.0,0.0,0.0,1.0,0.0,0.0,0.0,1.0,-0.277727392578,-0.670376464844,10.2807019287,1.0,0.0,0.0,0.0,1.0,0.0,0.0,0.0,1.0
1464167298042109795,511,1464167298039001950,,5.16596031189,-5.92983531952,-55.2263412476,0.00109100004192,1.0,0.0,0.0,0.0,1.0,0.0,0.0,0.0,1.0,-0.731707334518,-1.2195122242,-1.03658533096,1.0,0.0,0.0,0.0,1.0,0.0,0.0,0.0,1.0,0.0191536132812,-0.823605371094,10.1897222656,1.0,0.0,0.0,0.0,1.0,0.0,0.0,0.0,1.0
1464167298065240843,512,1464167298060204091,,5.08506536484,-5.9534778595,-55.2571525574,0.00119500001892,1.0,0.0,0.0,0.0,1.0,0.0,0.0,0.0,1.0,-0.975609779358,-0.0609756112099,-1.58536589146,1.0,0.0,0.0,0.0,1.0,0.0,0.0,0.0,1.0,-0.0861912597656,-0.866701000977,10.1418382324,1.0,0.0,0.0,0.0,1.0,0.0,0.0,0.0,1.0
1464167298083733639,513,1464167298080569073,,5.05716991425,-5.96954441071,-55.2802009583,0.00101300003007,1.0,0.0,0.0,0.0,1.0,0.0,0.0,0.0,1.0,-1.2804877758,1.70731711388,-0.792682945728,1.0,0.0,0.0,0.0,1.0,0.0,0.0,0.0,1.0,-0.196324536133,-0.876277807617,10.2471831055,1.0,0.0,0.0,0.0,1.0,0.0,0.0,0.0,1.0
1464167298105831950,514,1464167298101805694,,5.04919338226,-5.96714067459,-55.2960357666,0.00106599996798,1.0,0.0,0.0,0.0,1.0,0.0,0.0,0.0,1.0,-0.487804889679,2.5,-0.853658556938,1.0,0.0,0.0,0.0,1.0,0.0,0.0,0.0,1.0,-0.129286889648,-0.799663354492,10.1514150391,1.0,0.0,0.0,0.0,1.0,0.0,0.0,0.0,1.0
1464167298126231673,515,1464167298122415527,,5.06088638306,-5.97628116608,-55.3148422241,0.00108499999624,1.0,0.0,0.0,0.0,1.0,0.0,0.0,0.0,1.0,-1.8292683363,2.92682933807,-1.09756100178,1.0,0.0,0.0,0.0,1.0,0.0,0.0,0.0,1.0,-0.0526724365234,-0.938527050781,10.314220752,1.0,0.0,0.0,0.0,1.0,0.0,0.0,0.0,1.0
1464167298145931846,516,1464167298142915722,,5.08428382874,-5.99416542053,-55.3303031921,0.000962999998592,1.0,0.0,0.0,0.0,1.0,0.0,0.0,0.0,1.0,-1.64634156227,3.23170733452,-0.731707334518,1.0,0.0,0.0,0.0,1.0,0.0,0.0,0.0,1.0,-0.162805712891,-0.91458503418,10.3716815918,1.0,0.0,0.0,0.0,1.0,0.0,0.0,0.0,1.0
1464167298170230633,517,1464167298164347973,,5.1215634346,-6.01562166214,-55.3341636658,0.000962999998592,1.0,0.0,0.0,0.0,1.0,0.0,0.0,0.0,1.0,-1.46341466904,3.10975623131,0.243902444839,1.0,0.0,0.0,0.0,1.0,0.0,0.0,0.0,1.0,-0.201112939453,-0.895431420898,10.2759135254,1.0,0.0,0.0,0.0,1.0,0.0,0.0,0.0,1.0
1464167298189659444,518,1464167298184886606,,5.13407516479,-6.03038311005,-55.3311080933,0.00104300002567,1.0,0.0,0.0,0.0,1.0,0.0,0.0,0.0,1.0,-0.975609779358,2.31707310677,0.0,1.0,0.0,0.0,0.0,1.0,0.0,0.0,0.0,1.0,-0.129286889648,-0.785298144531,10.060435376,1.0,0.0,0.0,0.0,1.0,0.0,0.0,0.0,1.0
1464167298214414130,519,1464167298205779259,,5.13005065918,-6.03166627884,-55.3197784424,0.00121899996884,1.0,0.0,0.0,0.0,1.0,0.0,0.0,0.0,1.0,-0.304878056049,1.64634156227,0.731707334518,1.0,0.0,0.0,0.0,1.0,0.0,0.0,0.0,1.0,-0.143652099609,-0.991199487305,10.180145459,1.0,0.0,0.0,0.0,1.0,0.0,0.0,0.0,1.0
1464167298234543689,520,1464167298226644203,,5.12022781372,-6.02410173416,-55.2980880737,0.00118599995039,1.0,0.0,0.0,0.0,1.0,0.0,0.0,0.0,1.0,-0.12195122242,1.46341466904,1.15853655338,1.0,0.0,0.0,0.0,1.0,0.0,0.0,0.0,1.0,-0.0191536132812,-0.92416184082,10.1705686523,1.0,0.0,0.0,0.0,1.0,0.0,0.0,0.0,1.0
1464167298250212085,521,1464167298247237681,,5.10076522827,-6.0089173317,-55.2658653259,0.00111499999184,1.0,0.0,0.0,0.0,1.0,0.0,0.0,0.0,1.0,-0.0609756112099,0.914634168148,1.40243899822,1.0,0.0,0.0,0.0,1.0,0.0,0.0,0.0,1.0,-0.134075302102,-0.909796630859,10.1466266357,1.0,0.0,0.0,0.0,1.0,0.0,0.0,0.0,1.0
1464167298278253267,522,1464167298268583889,,5.08579301834,-5.99157142639,-55.229221344,0.000960999983363,1.0,0.0,0.0,0.0,1.0,0.0,0.0,0.0,1.0,-0.18292683363,1.58536589146,1.46341466904,1.0,0.0,0.0,0.0,1.0,0.0,0.0,0.0,1.0,-0.201112939453,-0.823605371094,10.2567599121,1.0,0.0,0.0,0.0,1.0,0.0,0.0,0.0,1.0
1464167298292152344,523,1464167298289042624,,5.07612705231,-5.97810077667,-55.1996116638,0.000984000042081,1.0,0.0,0.0,0.0,1.0,0.0,0.0,0.0,1.0,-0.0609756112099,2.31707310677,0.914634168148,1.0,0.0,0.0,0.0,1.0,0.0,0.0,0.0,1.0,-0.143652099609,-0.92416184082,10.2232410889,1.0,0.0,0.0,0.0,1.0,0.0,0.0,0.0,1.0
1464167298315622151,524,1464167298310131949,,5.07848548889,-5.96449661255,-55.1774711609,0.00108399998862,1.0,0.0,0.0,0.0,1.0,0.0,0.0,0.0,1.0,0.18292683363,2.25609779358,0.975609779358,1.0,0.0,0.0,0.0,1.0,0.0,0.0,0.0,1.0,-0.138863696289,-0.866701000977,10.1274730225,1.0,0.0,0.0,0.0,1.0,0.0,0.0,0.0,1.0
1464167298338102451,525,1464167298330983403,,5.08032226562,-5.94937038422,-55.1603507996,0.000974000024144,1.0,0.0,0.0,0.0,1.0,0.0,0.0,0.0,1.0,0.304878056049,1.46341466904,0.426829278469,1.0,0.0,0.0,0.0,1.0,0.0,0.0,0.0,1.0,-0.15322890625,-0.986411083984,10.3621047852,1.0,0.0,0.0,0.0,1.0,0.0,0.0,0.0,1.0
1464167298358386181,526,1464167298351847305,,5.0440568924,-5.94065713882,-55.1612281799,0.00112599995919,1.0,0.0,0.0,0.0,1.0,0.0,0.0,0.0,1.0,-0.0609756112099,0.731707334518,-1.40243899822,1.0,0.0,0.0,0.0,1.0,0.0,0.0,0.0,1.0,0.0335188255255,-0.799663354492,10.0652237793,1.0,0.0,0.0,0.0,1.0,0.0,0.0,0.0,1.0
1464167298378310423,527,1464167298372380417,,4.98526191711,-5.93463563919,-55.1956939697,0.00112599995919,1.0,0.0,0.0,0.0,1.0,0.0,0.0,0.0,1.0,-0.304878056049,1.03658533096,-1.64634156227,1.0,0.0,0.0,0.0,1.0,0.0,0.0,0.0,1.0,-0.205901342773,-1.07739082014,10.3956236084,1.0,0.0,0.0,0.0,1.0,0.0,0.0,0.0,1.0
1464167298399431051,528,1464167298392993219,,5.00912380219,-5.93441820145,-55.2068519592,0.0011340000201,1.0,0.0,0.0,0.0,1.0,0.0,0.0,0.0,1.0,0.426829278469,2.98780488968,0.609756112099,1.0,0.0,0.0,0.0,1.0,0.0,0.0,0.0,1.0,-0.383072265625,-0.995987890625,10.1178962158,1.0,0.0,0.0,0.0,1.0,0.0,0.0,0.0,1.0
1464167298419847545,529,1464167298413707899,,5.04144525528,-5.91277742386,-55.1942939758,0.00124600005802,1.0,0.0,0.0,0.0,1.0,0.0,0.0,0.0,1.0,0.487804889679,3.71951246262,0.304878056049,1.0,0.0,0.0,0.0,1.0,0.0,0.0,0.0,1.0,-0.268150604204,-0.943315454102,10.1992990723,1.0,0.0,0.0,0.0,1.0,0.0,0.0,0.0,1.0
1464167298442631031,530,1464167298436927959,,5.06193161011,-5.89698457718,-55.1904983521,0.00196600006893,1.0,0.0,0.0,0.0,1.0,0.0,0.0,0.0,1.0,0.18292683363,3.04878044128,-0.18292683363,1.0,0.0,0.0,0.0,1.0,0.0,0.0,0.0,1.0,-0.076614453125,-0.928950244141,10.1992990723,1.0,0.0,0.0,0.0,1.0,0.0,0.0,0.0,1.0
1464167298460593292,531,1464167298456712665,,5.08964443207,-5.89260053635,-55.1873474121,0.00145600002725,1.0,0.0,0.0,0.0,1.0,0.0,0.0,0.0,1.0,-0.426829278469,2.86585378647,0.0,1.0,0.0,0.0,0.0,1.0,0.0,0.0,0.0,1.0,-0.124498486328,-0.92416184082,10.2902787354,1.0,0.0,0.0,0.0,1.0,0.0,0.0,0.0,1.0
1464167298480687590,532,1464167298477391250,,5.10996246338,-5.8928232193,-55.1868362427,0.00135799997952,1.0,0.0,0.0,0.0,1.0,0.0,0.0,0.0,1.0,-0.609756112099,2.5,0.18292683363,1.0,0.0,0.0,0.0,1.0,0.0,0.0,0.0,1.0,-0.0861912597656,-0.928950244141,10.1945106689,1.0,0.0,0.0,0.0,1.0,0.0,0.0,0.0,1.0
1464167298501515033,533,1464167298497741597,,5.11420536041,-5.89535999298,-55.1838493347,0.00156300002709,1.0,0.0,0.0,0.0,1.0,0.0,0.0,0.0,1.0,-0.12195122242,1.8292683363,0.365853667259,1.0,0.0,0.0,0.0,1.0,0.0,0.0,0.0,1.0,-0.143652099609,-0.943315454102,10.1226846191,1.0,0.0,0.0,0.0,1.0,0.0,0.0,0.0,1.0
1464167298523584385,534,1464167298518626020,,5.10764312744,-5.89398050308,-55.1749687195,0.00125800003298,1.0,0.0,0.0,0.0,1.0,0.0,0.0,0.0,1.0,0.365853667259,1.8902438879,0.609756112099,1.0,0.0,0.0,0.0,1.0,0.0,0.0,0.0,1.0,-0.143652099609,-0.876277807617,10.314220752,1.0,0.0,0.0,0.0,1.0,0.0,0.0,0.0,1.0
1464167298541214970,535,1464167298539338877,,5.09997367859,-5.88200378418,-55.1596450806,0.00141699996311,1.0,0.0,0.0,0.0,1.0,0.0,0.0,0.0,1.0,0.487804889679,1.76829278469,0.731707334518,1.0,0.0,0.0,0.0,1.0,0.0,0.0,0.0,1.0,-0.0909796630859,-0.991199487305,10.180145459,1.0,0.0,0.0,0.0,1.0,0.0,0.0,0.0,1.0
1464167298563439170,536,1464167298559709432,,5.09316396713,-5.86190843582,-55.1408309937,0.00130300002638,1.0,0.0,0.0,0.0,1.0,0.0,0.0,0.0,1.0,0.792682945728,1.95121955872,0.975609779358,1.0,0.0,0.0,0.0,1.0,0.0,0.0,0.0,1.0,-0.105344873047,-0.881066210937,10.1945106689,1.0,0.0,0.0,0.0,1.0,0.0,0.0,0.0,1.0
1464167298584920068,537,1464167298581140538,,5.09444522858,-5.84280443192,-55.1178283691,0.00133700005244,1.0,0.0,0.0,0.0,1.0,0.0,0.0,0.0,1.0,0.0,2.68292689323,1.09756100178,1.0,0.0,0.0,0.0,1.0,0.0,0.0,0.0,1.0,-0.15801730957,-0.909796630859,10.2759135254,1.0,0.0,0.0,0.0,1.0,0.0,0.0,0.0,1.0
1464167298604742275,538,1464167298601943449,,5.10146617889,-5.83284664154,-55.0984916687,0.00109000003431,1.0,0.0,0.0,0.0,1.0,0.0,0.0,0.0,1.0,-0.365853667259,2.25609779358,0.731707334518,1.0,0.0,0.0,0.0,1.0,0.0,0.0,0.0,1.0,-0.172382519531,-0.866701000977,10.1370498291,1.0,0.0,0.0,0.0,1.0,0.0,0.0,0.0,1.0
1464167298625956187,539,1464167298622886468,,5.11138820648,-5.83320140839,-55.0813484192,0.0010379999876,1.0,0.0,0.0,0.0,1.0,0.0,0.0,0.0,1.0,0.0,2.19512200356,1.15853655338,1.0,0.0,0.0,0.0,1.0,0.0,0.0,0.0,1.0,-0.541089611728,-0.847547387695,9.79707319336,1.0,0.0,0.0,0.0,1.0,0.0,0.0,0.0,1.0
1464167298646636126,540,1464167298643783444,,5.1246099472,-5.83888292313,-55.046131134,0.000969999993686,1.0,0.0,0.0,0.0,1.0,0.0,0.0,0.0,1.0,-0.365853667259,1.70731711388,2.13414645195,1.0,0.0,0.0,0.0,1.0,0.0,0.0,0.0,1.0,-0.148440512063,-0.900219824219,10.5344873047,1.0,0.0,0.0,0.0,1.0,0.0,0.0,0.0,1.0
1464167298670632353,541,1464167298665156683,,5.10733318329,-5.84233188629,-55.0031738281,0.00136300001759,1.0,0.0,0.0,0.0,1.0,0.0,0.0,0.0,1.0,-0.792682945728,0.365853667259,0.914634168148,1.0,0.0,0.0,0.0,1.0,0.0,0.0,0.0,1.0,-0.00478840332031,-0.852335791016,10.1466266357,1.0,0.0,0.0,0.0,1.0,0.0,0.0,0.0,1.0
1464167298689353958,542,1464167298686421221,,5.04292869568,-5.84982395172,-55.0003509521,0.00197599991225,1.0,0.0,0.0,0.0,1.0,0.0,0.0,0.0,1.0,-1.64634156227,0.0,-1.2195122242,1.0,0.0,0.0,0.0,1.0,0.0,0.0,0.0,1.0,-0.00957680664062,-0.77093293457,10.2807019287,1.0,0.0,0.0,0.0,1.0,0.0,0.0,0.0,1.0
1464167298716749705,543,1464167298708415103,,4.97578907013,-5.86131191254,-55.05027771,0.00175000005402,1.0,0.0,0.0,0.0,1.0,0.0,0.0,0.0,1.0,-1.58536589146,-0.426829278469,-4.08536577225,1.0,0.0,0.0,0.0,1.0,0.0,0.0,0.0,1.0,0.0909796630859,-0.890643017578,10.0700121826,1.0,0.0,0.0,0.0,1.0,0.0,0.0,0.0,1.0
1464167298732830196,544,1464167298729501928,,4.91911888123,-5.89370536804,-55.1549263,0.00106599996798,1.0,0.0,0.0,0.0,1.0,0.0,0.0,0.0,1.0,-1.64634156227,2.07317066193,-4.93902444839,1.0,0.0,0.0,0.0,1.0,0.0,0.0,0.0,1.0,-0.0957680664062,-1.05823706072,9.96945571289,1.0,0.0,0.0,0.0,1.0,0.0,0.0,0.0,1.0
1464167298755844365,545,1464167298750320464,,4.96724891663,-5.93111085892,-55.2240715027,0.00102199998219,1.0,0.0,0.0,0.0,1.0,0.0,0.0,0.0,1.0,-1.8292683363,3.41463422775,-2.13414645195,1.0,0.0,0.0,0.0,1.0,0.0,0.0,0.0,1.0,-0.397437475586,-0.751779321289,10.0939541992,1.0,0.0,0.0,0.0,1.0,0.0,0.0,0.0,1.0
1464167298775690687,546,1464167298772102621,,5.00804662704,-5.93475198746,-55.2646713257,0.00117900001351,1.0,0.0,0.0,0.0,1.0,0.0,0.0,0.0,1.0,0.0,3.47560977936,-1.76829278469,1.0,0.0,0.0,0.0,1.0,0.0,0.0,0.0,1.0,-0.335188232422,-1.02950671387,10.3285859619,1.0,0.0,0.0,0.0,1.0,0.0,0.0,0.0,1.0
1464167298802586733,547,1464167298797554773,,5.02186870575,-5.93414306641,-55.2982597351,0.00131099997088,1.0,0.0,0.0,0.0,1.0,0.0,0.0,0.0,1.0,-0.18292683363,3.90243911743,-1.15853655338,1.0,0.0,0.0,0.0,1.0,0.0,0.0,0.0,1.0,-0.105344873047,-0.943315454102,10.2950671387,1.0,0.0,0.0,0.0,1.0,0.0,0.0,0.0,1.0
1464167298824850153,548,1464167298819087860,,5.06663894653,-5.92848062515,-55.3288002014,0.00557699985802,1.0,0.0,0.0,0.0,1.0,0.0,0.0,0.0,1.0,0.426829278469,4.20731735229,-0.731707334518,1.0,0.0,0.0,0.0,1.0,0.0,0.0,0.0,1.0,-0.205901342773,-0.962469067383,10.2807019287,1.0,0.0,0.0,0.0,1.0,0.0,0.0,0.0,1.0
1464167298844514856,549,1464167298839035175,,5.09608030319,-5.91047143936,-55.3450393677,0.00149399996735,1.0,0.0,0.0,0.0,1.0,0.0,0.0,0.0,1.0,0.18292683363,2.74390244484,-0.731707334518,1.0,0.0,0.0,0.0,1.0,0.0,0.0,0.0,1.0,-0.15322890625,-0.809240161133,10.2615483154,1.0,0.0,0.0,0.0,1.0,0.0,0.0,0.0,1.0
1464167298865570586,550,1464167298860099135,,5.09360980988,-5.88651990891,-55.3540687561,0.00113900005817,1.0,0.0,0.0,0.0,1.0,0.0,0.0,0.0,1.0,0.914634168148,1.09756100178,-0.548780500889,1.0,0.0,0.0,0.0,1.0,0.0,0.0,0.0,1.0,-0.148440512063,-1.01035310059,10.3429511719,1.0,0.0,0.0,0.0,1.0,0.0,0.0,0.0,1.0
1464167298885672853,551,1464167298880525786,,5.06342697144,-5.86789512634,-55.3551216125,0.00109100004192,1.0,0.0,0.0,0.0,1.0,0.0,0.0,0.0,1.0,0.548780500889,0.548780500889,-0.243902444839,1.0,0.0,0.0,0.0,1.0,0.0,0.0,0.0,1.0,-0.15801730957,-0.799663354492,10.1178962158,1.0,0.0,0.0,0.0,1.0,0.0,0.0,0.0,1.0
1464167298905907155,552,1464167298902382632,,5.0558590889,-5.85581493378,-55.3459320068,0.00249000010081,1.0,0.0,0.0,0.0,1.0,0.0,0.0,0.0,1.0,0.18292683363,1.8902438879,0.609756112099,1.0,0.0,0.0,0.0,1.0,0.0,0.0,0.0,1.0,-0.684741674805,-0.957680664062,10.1226846191,1.0,0.0,0.0,0.0,1.0,0.0,0.0,0.0,1.0
1464167298924789441,553,1464167298922568860,,5.08723068237,-5.84786081314,-55.3152046204,0.000998000032268,1.0,0.0,0.0,0.0,1.0,0.0,0.0,0.0,1.0,-0.12195122242,2.74390244484,2.13414645195,1.0,0.0,0.0,0.0,1.0,0.0,0.0,0.0,1.0,-0.215478149414,-0.751779321289,10.0748005859,1.0,0.0,0.0,0.0,1.0,0.0,0.0,0.0,1.0
1464167298947646210,554,1464167298943697717,,5.08671569824,-5.83705854416,-55.2859458923,0.0010890000267,1.0,0.0,0.0,0.0,1.0,0.0,0.0,0.0,1.0,-1.2804877758,2.31707310677,0.18292683363,1.0,0.0,0.0,0.0,1.0,0.0,0.0,0.0,1.0,-0.134075302102,-0.785298144531,10.2519715088,1.0,0.0,0.0,0.0,1.0,0.0,0.0,0.0,1.0
1464167298967939368,555,1464167298964624486,,5.06086921692,-5.843334198,-55.3042869568,0.000999000039883,1.0,0.0,0.0,0.0,1.0,0.0,0.0,0.0,1.0,-1.15853655338,1.46341466904,-2.25609779358,1.0,0.0,0.0,0.0,1.0,0.0,0.0,0.0,1.0,0.0814028564453,-0.866701000977,10.2136642822,1.0,0.0,0.0,0.0,1.0,0.0,0.0,0.0,1.0
1464167298994240189,556,1464167298985723499,,5.03930425644,-5.86090421677,-55.3645401001,0.00113700004295,1.0,0.0,0.0,0.0,1.0,0.0,0.0,0.0,1.0,-1.09756100178,2.56097555161,-3.29268312454,1.0,0.0,0.0,0.0,1.0,0.0,0.0,0.0,1.0,0.0,-0.91458503418,10.2232410889,1.0,0.0,0.0,0.0,1.0,0.0,0.0,0.0,1.0
1464167299014176983,557,1464167299006483648,,5.05756998062,-5.88520050049,-55.4223937988,0.000990999978967,1.0,0.0,0.0,0.0,1.0,0.0,0.0,0.0,1.0,-0.914634168148,2.62195134163,-2.86585378647,1.0,0.0,0.0,0.0,1.0,0.0,0.0,0.0,1.0,-0.129286889648,-1.01035310059,10.1178962158,1.0,0.0,0.0,0.0,1.0,0.0,0.0,0.0,1.0
1464167299036210397,558,1464167299027517347,,5.06731176376,-5.89808511734,-55.478969574,0.00101799995173,1.0,0.0,0.0,0.0,1.0,0.0,0.0,0.0,1.0,-0.792682945728,2.80487799644,-2.56097555161,1.0,0.0,0.0,0.0,1.0,0.0,0.0,0.0,1.0,-0.114921679688,-0.857124194336,10.2423947021,1.0,0.0,0.0,0.0,1.0,0.0,0.0,0.0,1.0
1464167299054144427,559,1464167299048823345,,5.08615875244,-5.90072345734,-55.5286407471,0.00108099996578,1.0,0.0,0.0,0.0,1.0,0.0,0.0,0.0,1.0,-0.18292683363,2.68292689323,-2.19512200356,1.0,0.0,0.0,0.0,1.0,0.0,0.0,0.0,1.0,-0.162805712891,-0.976834277344,10.1562034424,1.0,0.0,0.0,0.0,1.0,0.0,0.0,0.0,1.0
1464167299072768008,560,1464167299070048246,,5.10259628296,-5.89569091797,-55.5726547241,0.00106999999844,1.0,0.0,0.0,0.0,1.0,0.0,0.0,0.0,1.0,0.18292683363,3.04878044128,-1.52439022064,1.0,0.0,0.0,0.0,1.0,0.0,0.0,0.0,1.0,-0.45489831543,-0.780509741211,10.165780249,1.0,0.0,0.0,0.0,1.0,0.0,0.0,0.0,1.0
1464167299094573551,561,1464167299090889231,,5.10949802399,-5.8906583786,-55.6044654846,0.000973000016529,1.0,0.0,0.0,0.0,1.0,0.0,0.0,0.0,1.0,0.0609756112099,1.76829278469,-1.2195122242,1.0,0.0,0.0,0.0,1.0,0.0,0.0,0.0,1.0,-0.201112939453,-0.77093293457,10.299855542,1.0,0.0,0.0,0.0,1.0,0.0,0.0,0.0,1.0
1464167299114993483,562,1464167299111958139,,5.10668134689,-5.88903045654,-55.618637085,0.00107600004412,1.0,0.0,0.0,0.0,1.0,0.0,0.0,0.0,1.0,-0.365853667259,1.8902438879,-0.18292683363,1.0,0.0,0.0,0.0,1.0,0.0,0.0,0.0,1.0,-0.148440512063,-0.905008227539,10.1753570557,1.0,0.0,0.0,0.0,1.0,0.0,0.0,0.0,1.0
1464167299136414327,563,1464167299132978400,,5.10588359833,-5.88659477234,-55.613494873,0.00106899999082,1.0,0.0,0.0,0.0,1.0,0.0,0.0,0.0,1.0,-0.609756112099,2.5,0.853658556938,1.0,0.0,0.0,0.0,1.0,0.0,0.0,0.0,1.0,-0.205901342773,-0.866701000977,10.0843773926,1.0,0.0,0.0,0.0,1.0,0.0,0.0,0.0,1.0
1464167299162181124,564,1464167299153773707,,5.12549161911,-5.89323139191,-55.5889930725,0.00116999994498,1.0,0.0,0.0,0.0,1.0,0.0,0.0,0.0,1.0,-0.609756112099,2.86585378647,1.46341466904,1.0,0.0,0.0,0.0,1.0,0.0,0.0,0.0,1.0,-0.205901342773,-0.981622680664,10.0939541992,1.0,0.0,0.0,0.0,1.0,0.0,0.0,0.0,1.0
