%time,field.header.seq,field.header.stamp,field.header.frame_id,field.orientation.x,field.orientation.y,field.orientation.z,field.orientation.w,field.orientation_covariance0,field.orientation_covariance1,field.orientation_covariance2,field.orientation_covariance3,field.orientation_covariance4,field.orientation_covariance5,field.orientation_covariance6,field.orientation_covariance7,field.orientation_covariance8,field.angular_velocity.x,field.angular_velocity.y,field.angular_velocity.z,field.angular_velocity_covariance0,field.angular_velocity_covariance1,field.angular_velocity_covariance2,field.angular_velocity_covariance3,field.angular_velocity_covariance4,field.angular_velocity_covariance5,field.angular_velocity_covariance6,field.angular_velocity_covariance7,field.angular_velocity_covariance8,field.linear_acceleration.x,field.linear_acceleration.y,field.linear_acceleration.z,field.linear_acceleration_covariance0,field.linear_acceleration_covariance1,field.linear_acceleration_covariance2,field.linear_acceleration_covariance3,field.linear_acceleration_covariance4,field.linear_acceleration_covariance5,field.linear_acceleration_covariance6,field.linear_acceleration_covariance7,field.linear_acceleration_covariance8
1464109249644809450,192,1464109249400793467,,4.89586305618,-15.132358551,-171.881851196,0.00127100001555,1.0,0.0,0.0,0.0,1.0,0.0,0.0,0.0,1.0,-10.9146347046,-3.41463422775,2.31707310677,1.0,0.0,0.0,0.0,1.0,0.0,0.0,0.0,1.0,-0.684741674805,-1.49877023926,11.5831476318,1.0,0.0,0.0,0.0,1.0,0.0,0.0,0.0,1.0
1464109249665847933,193,1464109249421405857,,4.85357379913,-15.2586946487,-171.775756836,0.00118899997324,1.0,0.0,0.0,0.0,1.0,0.0,0.0,0.0,1.0,-8.23170757294,-4.08536577225,5.36585378647,1.0,0.0,0.0,0.0,1.0,0.0,0.0,0.0,1.0,-0.430956298828,-1.5322890625,11.5065331787,1.0,0.0,0.0,0.0,1.0,0.0,0.0,0.0,1.0
1464109249665917881,194,1464109249443533607,,4.82931613922,-15.3312501907,-171.608108521,0.00132899999153,1.0,0.0,0.0,0.0,1.0,0.0,0.0,0.0,1.0,-5.67073154449,-1.70731711388,8.71951198578,1.0,0.0,0.0,0.0,1.0,0.0,0.0,0.0,1.0,-0.526724328702,-1.5562310791,11.5592056152,1.0,0.0,0.0,0.0,1.0,0.0,0.0,0.0,1.0
1464109249665959652,195,1464109249463513135,,4.86453533173,-15.3480625153,-171.388031006,0.00111099996138,1.0,0.0,0.0,0.0,1.0,0.0,0.0,0.0,1.0,-3.29268312454,-3.17073178291,10.7317075729,1.0,0.0,0.0,0.0,1.0,0.0,0.0,0.0,1.0,-0.708683691406,-1.40300217285,11.884817041,1.0,0.0,0.0,0.0,1.0,0.0,0.0,0.0,1.0
1464109249665993662,196,1464109249484496566,,4.86573219299,-15.3069496155,-171.128295898,0.0012229999993,1.0,0.0,0.0,0.0,1.0,0.0,0.0,0.0,1.0,-0.975609779358,-4.20731735229,12.3170728683,1.0,0.0,0.0,0.0,1.0,0.0,0.0,0.0,1.0,-0.632069238281,-1.54186586914,11.9614314941,1.0,0.0,0.0,0.0,1.0,0.0,0.0,0.0,1.0
1464109249666031110,197,1464109249506518327,,4.86736297607,-15.2012634277,-170.815795898,0.00156300002709,1.0,0.0,0.0,0.0,1.0,0.0,0.0,0.0,1.0,2.07317066193,-8.10975551605,12.9268293381,1.0,0.0,0.0,0.0,1.0,0.0,0.0,0.0,1.0,-0.972045874023,-1.59932670898,11.8800286377,1.0,0.0,0.0,0.0,1.0,0.0,0.0,0.0,1.0
1464109249666077047,198,1464109249527559518,,4.77058935165,-15.0303926468,-170.483154297,0.00119900004938,1.0,0.0,0.0,0.0,1.0,0.0,0.0,0.0,1.0,2.98780488968,-11.1585359573,12.8658542633,1.0,0.0,0.0,0.0,1.0,0.0,0.0,0.0,1.0,-0.45489831543,-1.00077629395,11.9566430908,1.0,0.0,0.0,0.0,1.0,0.0,0.0,0.0,1.0
1464109249666125745,199,1464109249548949875,,4.63250875473,-14.849158287,-170.171539307,0.00126699998509,1.0,0.0,0.0,0.0,1.0,0.0,0.0,0.0,1.0,3.90243911743,-8.17073154449,11.4024391174,1.0,0.0,0.0,0.0,1.0,0.0,0.0,0.0,1.0,-0.272938989258,-1.2976572998,11.7028577148,1.0,0.0,0.0,0.0,1.0,0.0,0.0,0.0,1.0
1464109249666158974,200,1464109249570380075,,4.55185365677,-14.62707901,-169.913208008,0.00135399994906,1.0,0.0,0.0,0.0,1.0,0.0,0.0,0.0,1.0,6.70731735229,-5.85365867615,9.20731735229,1.0,0.0,0.0,0.0,1.0,0.0,0.0,0.0,1.0,-0.497993945312,-0.962469067383,10.9989624268,1.0,0.0,0.0,0.0,1.0,0.0,0.0,0.0,1.0
1464109249666192620,201,1464109249592005171,,4.48063755035,-14.3490943909,-169.709121704,0.00148400000762,1.0,0.0,0.0,0.0,1.0,0.0,0.0,0.0,1.0,8.71951198578,-5.48780488968,6.64634132385,1.0,0.0,0.0,0.0,1.0,0.0,0.0,0.0,1.0,-0.277727392578,-0.995987890625,11.0660000732,1.0,0.0,0.0,0.0,1.0,0.0,0.0,0.0,1.0
1464109249666399078,202,1464109249613086102,,4.39707136154,-14.0276966095,-169.595840454,0.00117199996021,1.0,0.0,0.0,0.0,1.0,0.0,0.0,0.0,1.0,12.2560977936,-1.52439022064,2.56097555161,1.0,0.0,0.0,0.0,1.0,0.0,0.0,0.0,1.0,0.167594116211,-0.871489404297,10.8600987305,1.0,0.0,0.0,0.0,1.0,0.0,0.0,0.0,1.0
1464109249666438296,203,1464109249633453909,,4.39077949524,-13.6620559692,-169.581878662,0.00112799997441,1.0,0.0,0.0,0.0,1.0,0.0,0.0,0.0,1.0,15.1219511032,4.02439022064,-0.365853667259,1.0,0.0,0.0,0.0,1.0,0.0,0.0,0.0,1.0,-0.067037651051,-0.852335791016,10.6063133545,1.0,0.0,0.0,0.0,1.0,0.0,0.0,0.0,1.0
1464109249666483713,204,1464109249654694058,,4.47774553299,-13.2491846085,-169.645782471,0.00138399994466,1.0,0.0,0.0,0.0,1.0,0.0,0.0,0.0,1.0,16.7073173523,5.85365867615,-3.17073178291,1.0,0.0,0.0,0.0,1.0,0.0,0.0,0.0,1.0,-0.205901342773,-0.885854614258,10.7164466309,1.0,0.0,0.0,0.0,1.0,0.0,0.0,0.0,1.0
1464109249679235812,205,1464109249675926290,,4.58472490311,-12.8215494156,-169.756774902,0.00122400000691,1.0,0.0,0.0,0.0,1.0,0.0,0.0,0.0,1.0,16.158536911,8.96341514587,-4.39024400711,1.0,0.0,0.0,0.0,1.0,0.0,0.0,0.0,1.0,-0.0191536132812,-0.636857641602,10.5057568848,1.0,0.0,0.0,0.0,1.0,0.0,0.0,0.0,1.0
1464109249699831796,206,1464109249697587949,,4.76892614365,-12.4062576294,-169.906524658,0.00129399995785,1.0,0.0,0.0,0.0,1.0,0.0,0.0,0.0,1.0,13.2926826477,12.6219520569,-5.36585378647,1.0,0.0,0.0,0.0,1.0,0.0,0.0,0.0,1.0,-0.181959326172,-0.478840332031,10.2423947021,1.0,0.0,0.0,0.0,1.0,0.0,0.0,0.0,1.0
1464109249726827711,207,1464109249718743983,,5.00669765472,-12.081360817,-170.06741333,0.00134600000456,1.0,0.0,0.0,0.0,1.0,0.0,0.0,0.0,1.0,8.84146404266,13.4146347046,-5.18292713165,1.0,0.0,0.0,0.0,1.0,0.0,0.0,0.0,1.0,-0.287304199219,-0.387860668945,10.180145459,1.0,0.0,0.0,0.0,1.0,0.0,0.0,0.0,1.0
1464109249744518599,208,1464109249739849393,,5.25502443314,-11.8786764145,-170.210845947,0.00170699995942,1.0,0.0,0.0,0.0,1.0,0.0,0.0,0.0,1.0,3.90243911743,11.7682924271,-4.14634132385,1.0,0.0,0.0,0.0,1.0,0.0,0.0,0.0,1.0,-0.469263525391,-0.584185168546,10.4818148682,1.0,0.0,0.0,0.0,1.0,0.0,0.0,0.0,1.0
1464109249762124122,209,1464109249760493658,,5.46644306183,-11.7790126801,-170.322265625,0.0010969999712,1.0,0.0,0.0,0.0,1.0,0.0,0.0,0.0,1.0,-0.365853667259,10.6707315445,-2.62195134163,1.0,0.0,0.0,0.0,1.0,0.0,0.0,0.0,1.0,-0.407014282227,-0.61770402832,10.5057568848,1.0,0.0,0.0,0.0,1.0,0.0,0.0,0.0,1.0
1464109249784800569,210,1464109249781072350,,5.65967798233,-11.7690582275,-170.389831543,0.00151700002607,1.0,0.0,0.0,0.0,1.0,0.0,0.0,0.0,1.0,-4.45121955872,6.7682929039,-1.58536589146,1.0,0.0,0.0,0.0,1.0,0.0,0.0,0.0,1.0,-0.76135612793,-0.550666381836,10.0556469727,1.0,0.0,0.0,0.0,1.0,0.0,0.0,0.0,1.0
1464109249804229525,211,1464109249801454533,,5.76077604294,-11.8423614502,-170.422164917,0.00121300003957,1.0,0.0,0.0,0.0,1.0,0.0,0.0,0.0,1.0,-8.04878044128,1.34146344662,-1.03658533096,1.0,0.0,0.0,0.0,1.0,0.0,0.0,0.0,1.0,-0.727837304687,-0.737414111328,10.1178962158,1.0,0.0,0.0,0.0,1.0,0.0,0.0,0.0,1.0
1464109249825343476,212,1464109249823143118,,5.7472820282,-11.9890527725,-170.417678833,0.00140700000338,1.0,0.0,0.0,0.0,1.0,0.0,0.0,0.0,1.0,-11.341463089,-3.04878044128,0.12195122242,1.0,0.0,0.0,0.0,1.0,0.0,0.0,0.0,1.0,-0.497993945312,-0.756567724609,10.3285859619,1.0,0.0,0.0,0.0,1.0,0.0,0.0,0.0,1.0
1464109249846151075,213,1464109249843574155,,5.66216659546,-12.2007865906,-170.382217407,0.00116700003855,1.0,0.0,0.0,0.0,1.0,0.0,0.0,0.0,1.0,-12.4390249252,-2.37804889679,1.58536589146,1.0,0.0,0.0,0.0,1.0,0.0,0.0,0.0,1.0,-0.138863696289,-0.995987890625,10.3190091553,1.0,0.0,0.0,0.0,1.0,0.0,0.0,0.0,1.0
1464109249866832944,214,1464109249864523575,,5.61037540436,-12.4280967712,-170.341964722,0.0026469998993,1.0,0.0,0.0,0.0,1.0,0.0,0.0,0.0,1.0,-11.5243911743,-1.15853655338,1.2804877758,1.0,0.0,0.0,0.0,1.0,0.0,0.0,0.0,1.0,-0.407014282227,-1.05823706072,10.0317049561,1.0,0.0,0.0,0.0,1.0,0.0,0.0,0.0,1.0
1464109249888829601,215,1464109249886192369,,5.57467842102,-12.6306447983,-170.306686401,0.0011569999624,1.0,0.0,0.0,0.0,1.0,0.0,0.0,0.0,1.0,-8.78048801422,-1.2804877758,1.03658533096,1.0,0.0,0.0,0.0,1.0,0.0,0.0,0.0,1.0,-0.339976635742,-1.31681091309,10.285490332,1.0,0.0,0.0,0.0,1.0,0.0,0.0,0.0,1.0
1464109249909700168,216,1464109249907070800,,5.52847242355,-12.7709493637,-170.277160645,0.00102700002026,1.0,0.0,0.0,0.0,1.0,0.0,0.0,0.0,1.0,-6.95121955872,1.2195122242,1.40243899822,1.0,0.0,0.0,0.0,1.0,0.0,0.0,0.0,1.0,-0.0861912597656,-1.18273554705,10.4482960449,1.0,0.0,0.0,0.0,1.0,0.0,0.0,0.0,1.0
1464109249929876413,217,1464109249927709596,,5.55048131943,-12.8654336929,-170.251373291,0.000989999971353,1.0,0.0,0.0,0.0,1.0,0.0,0.0,0.0,1.0,-4.08536577225,3.90243911743,1.40243899822,1.0,0.0,0.0,0.0,1.0,0.0,0.0,0.0,1.0,-0.201112939453,-1.36948334961,10.0795889893,1.0,0.0,0.0,0.0,1.0,0.0,0.0,0.0,1.0
1464109249951808852,218,1464109249948973756,,5.61164283752,-12.803273201,-170.234634399,0.00122099998407,1.0,0.0,0.0,0.0,1.0,0.0,0.0,0.0,1.0,13.5975618362,7.92682981491,0.12195122242,1.0,0.0,0.0,0.0,1.0,0.0,0.0,0.0,1.0,-0.565031591797,-0.363918652344,11.7842605713,1.0,0.0,0.0,0.0,1.0,0.0,0.0,0.0,1.0
1464109249976799042,219,1464109249969594896,,5.9310669899,-12.7411384583,-170.457855225,0.00113300001249,1.0,0.0,0.0,0.0,1.0,0.0,0.0,0.0,1.0,3.41463422775,10.9146347046,-7.68292665482,1.0,0.0,0.0,0.0,1.0,0.0,0.0,0.0,1.0,-1.32638771973,-0.972045874023,9.92157167969,1.0,0.0,0.0,0.0,1.0,0.0,0.0,0.0,1.0
1464109249997536380,220,1464109249990590306,,6.05089187622,-12.6258058548,-170.537139893,0.00106299994513,1.0,0.0,0.0,0.0,1.0,0.0,0.0,0.0,1.0,1.58536589146,4.45121955872,-2.68292689323,1.0,0.0,0.0,0.0,1.0,0.0,0.0,0.0,1.0,-0.148440512063,-1.04387185076,10.4147772217,1.0,0.0,0.0,0.0,1.0,0.0,0.0,0.0,1.0
1464109250016886170,221,1464109250011145769,,6.2049279213,-12.528175354,-170.644104004,0.00109399994835,1.0,0.0,0.0,0.0,1.0,0.0,0.0,0.0,1.0,2.01219511032,6.58536624908,-5.67073154449,1.0,0.0,0.0,0.0,1.0,0.0,0.0,0.0,1.0,-0.632069238281,-1.11090957031,10.2088758789,1.0,0.0,0.0,0.0,1.0,0.0,0.0,0.0,1.0
1464109250038834858,222,1464109250031803315,,6.35303688049,-12.5073947906,-170.729187012,0.00111499999184,1.0,0.0,0.0,0.0,1.0,0.0,0.0,0.0,1.0,0.426829278469,1.2804877758,-1.76829278469,1.0,0.0,0.0,0.0,1.0,0.0,0.0,0.0,1.0,-0.890643017578,-1.26892687988,10.0795889893,1.0,0.0,0.0,0.0,1.0,0.0,0.0,0.0,1.0
1464109250060621881,223,1464109250055862154,,6.42501974106,-12.4835195541,-170.742752075,0.00096700002905,1.0,0.0,0.0,0.0,1.0,0.0,0.0,0.0,1.0,1.70731711388,3.84146332741,-0.243902444839,1.0,0.0,0.0,0.0,1.0,0.0,0.0,0.0,1.0,-0.948103857422,-1.28329208984,10.2136642822,1.0,0.0,0.0,0.0,1.0,0.0,0.0,0.0,1.0
1464109250082382184,224,1464109250076961835,,6.52035713196,-12.4452095032,-170.688842773,0.00392800010741,1.0,0.0,0.0,0.0,1.0,0.0,0.0,0.0,1.0,0.731707334518,1.52439022064,4.87804889679,1.0,0.0,0.0,0.0,1.0,0.0,0.0,0.0,1.0,-0.450109912109,-1.11090957031,10.2328178955,1.0,0.0,0.0,0.0,1.0,0.0,0.0,0.0,1.0
1464109250101707755,225,1464109250098920367,,6.56637239456,-12.4044704437,-170.615951538,0.00178000004962,1.0,0.0,0.0,0.0,1.0,0.0,0.0,0.0,1.0,0.243902444839,1.34146344662,2.68292689323,1.0,0.0,0.0,0.0,1.0,0.0,0.0,0.0,1.0,-0.550666381836,-1.20667770978,10.1609918457,1.0,0.0,0.0,0.0,1.0,0.0,0.0,0.0,1.0
1464109250122484728,226,1464109250119960621,,6.57074642181,-12.3682870865,-170.568023682,0.0019420000026,1.0,0.0,0.0,0.0,1.0,0.0,0.0,0.0,1.0,1.09756100178,0.0609756112099,2.07317066193,1.0,0.0,0.0,0.0,1.0,0.0,0.0,0.0,1.0,-0.550666381836,-1.43173259277,10.299855542,1.0,0.0,0.0,0.0,1.0,0.0,0.0,0.0,1.0
1464109250143282639,227,1464109250140739156,,6.54397964478,-12.3281860352,-170.525588989,0.00152000004891,1.0,0.0,0.0,0.0,1.0,0.0,0.0,0.0,1.0,1.2804877758,0.365853667259,0.853658556938,1.0,0.0,0.0,0.0,1.0,0.0,0.0,0.0,1.0,-0.292092584273,-1.01992990723,9.70609353027,1.0,0.0,0.0,0.0,1.0,0.0,0.0,0.0,1.0
1464109250164576381,228,1464109250161999149,,6.51111936569,-12.242603302,-170.516082764,0.00128500000574,1.0,0.0,0.0,0.0,1.0,0.0,0.0,0.0,1.0,4.69512224197,-1.34146344662,-0.12195122242,1.0,0.0,0.0,0.0,1.0,0.0,0.0,0.0,1.0,-0.296881024126,-1.13485158691,10.0269165527,1.0,0.0,0.0,0.0,1.0,0.0,0.0,0.0,1.0
1464109250184703408,229,1464109250182276748,,6.44956350327,-12.099905014,-170.503829956,0.00139200000558,1.0,0.0,0.0,0.0,1.0,0.0,0.0,0.0,1.0,8.04878044128,-0.12195122242,0.243902444839,1.0,0.0,0.0,0.0,1.0,0.0,0.0,0.0,1.0,-0.248996972656,-0.928950244141,9.81143840332,1.0,0.0,0.0,0.0,1.0,0.0,0.0,0.0,1.0
1464109250206047099,230,1464109250203650699,,6.41558599472,-11.8685741425,-170.493301392,0.00104400003329,1.0,0.0,0.0,0.0,1.0,0.0,0.0,0.0,1.0,11.0365858078,0.365853667259,0.12195122242,1.0,0.0,0.0,0.0,1.0,0.0,0.0,0.0,1.0,-0.354341845703,-1.11090957031,10.3668931885,1.0,0.0,0.0,0.0,1.0,0.0,0.0,0.0,1.0
1464109250226706364,231,1464109250224201371,,6.38794803619,-11.5886631012,-170.498840332,0.00106399995275,1.0,0.0,0.0,0.0,1.0,0.0,0.0,0.0,1.0,11.2195119858,0.914634168148,-0.670731723309,1.0,0.0,0.0,0.0,1.0,0.0,0.0,0.0,1.0,-0.114921679688,-0.727837304687,10.2136642822,1.0,0.0,0.0,0.0,1.0,0.0,0.0,0.0,1.0
1464109250247321306,232,1464109250244860167,,6.36940765381,-11.3108081818,-170.499084473,0.00104000000283,1.0,0.0,0.0,0.0,1.0,0.0,0.0,0.0,1.0,11.4634151459,2.56097555161,-0.12195122242,1.0,0.0,0.0,0.0,1.0,0.0,0.0,0.0,1.0,-0.45489831543,-0.780509741211,10.2184526855,1.0,0.0,0.0,0.0,1.0,0.0,0.0,0.0,1.0
1464109250268291456,233,1464109250265565213,,6.38243961334,-11.0600233078,-170.49861145,0.000968999986071,1.0,0.0,0.0,0.0,1.0,0.0,0.0,0.0,1.0,10.1219511032,2.19512200356,0.243902444839,1.0,0.0,0.0,0.0,1.0,0.0,0.0,0.0,1.0,-0.560243188477,-0.905008227539,10.3716815918,1.0,0.0,0.0,0.0,1.0,0.0,0.0,0.0,1.0
1464109250289319991,234,1464109250286690050,,6.41086530685,-10.8547697067,-170.488510132,0.00106499996036,1.0,0.0,0.0,0.0,1.0,0.0,0.0,0.0,1.0,8.10975551605,1.52439022064,0.243902444839,1.0,0.0,0.0,0.0,1.0,0.0,0.0,0.0,1.0,-0.703895288086,-1.07260241682,10.3381627686,1.0,0.0,0.0,0.0,1.0,0.0,0.0,0.0,1.0
1464109250310134359,235,1464109250308063688,,6.42256593704,-10.6734924316,-170.478622437,0.000962999998592,1.0,0.0,0.0,0.0,1.0,0.0,0.0,0.0,1.0,7.37804937363,0.548780500889,-0.12195122242,1.0,0.0,0.0,0.0,1.0,0.0,0.0,0.0,1.0,-0.660799658203,-0.837970581055,10.3046439453,1.0,0.0,0.0,0.0,1.0,0.0,0.0,0.0,1.0
1464109250331219925,236,1464109250329203317,,6.42054224014,-10.4786729813,-170.461502075,0.00107300002128,1.0,0.0,0.0,0.0,1.0,0.0,0.0,0.0,1.0,7.07317113876,-1.8292683363,0.243902444839,1.0,0.0,0.0,0.0,1.0,0.0,0.0,0.0,1.0,-0.737414111328,-0.818816967773,10.2759135254,1.0,0.0,0.0,0.0,1.0,0.0,0.0,0.0,1.0
1464109250352208252,237,1464109250350121383,,6.37060022354,-10.2953166962,-170.448440552,0.00145400001202,1.0,0.0,0.0,0.0,1.0,0.0,0.0,0.0,1.0,6.7682929039,-6.82926845551,-1.34146344662,1.0,0.0,0.0,0.0,1.0,0.0,0.0,0.0,1.0,-0.718260498047,-0.943315454102,9.85932243652,1.0,0.0,0.0,0.0,1.0,0.0,0.0,0.0,1.0
1464109250372672205,238,1464109250370580649,,6.21630334854,-10.0988922119,-170.435256958,0.000981000019237,1.0,0.0,0.0,0.0,1.0,0.0,0.0,0.0,1.0,5.97560977936,-2.86585378647,0.18292683363,1.0,0.0,0.0,0.0,1.0,0.0,0.0,0.0,1.0,-0.067037651051,-0.541089611728,10.7308118408,1.0,0.0,0.0,0.0,1.0,0.0,0.0,0.0,1.0
1464109250393592459,239,1464109250391338559,,6.14946365356,-9.98161315918,-170.396789551,0.00101899995934,1.0,0.0,0.0,0.0,1.0,0.0,0.0,0.0,1.0,2.13414645195,-3.41463422775,0.731707334518,1.0,0.0,0.0,0.0,1.0,0.0,0.0,0.0,1.0,-0.316034619141,-0.497993945312,10.6302553711,1.0,0.0,0.0,0.0,1.0,0.0,0.0,0.0,1.0
1464109250413894902,240,1464109250411613555,,6.06085205078,-9.93981170654,-170.388595581,0.000977999996394,1.0,0.0,0.0,0.0,1.0,0.0,0.0,0.0,1.0,1.40243899822,-4.20731735229,-0.548780500889,1.0,0.0,0.0,0.0,1.0,0.0,0.0,0.0,1.0,-0.723048901367,-0.727837304687,10.1083194092,1.0,0.0,0.0,0.0,1.0,0.0,0.0,0.0,1.0
1464109250437305826,241,1464109250435457082,,5.91867446899,-9.92761707306,-170.374938965,0.00100100005511,1.0,0.0,0.0,0.0,1.0,0.0,0.0,0.0,1.0,0.0609756112099,-4.63414621353,-0.731707334518,1.0,0.0,0.0,0.0,1.0,0.0,0.0,0.0,1.0,-0.191536132812,-0.861912597656,10.1705686523,1.0,0.0,0.0,0.0,1.0,0.0,0.0,0.0,1.0
1464109250462634974,242,1464109250459913524,,5.78436088562,-9.92458343506,-170.355300903,0.00499300006777,1.0,0.0,0.0,0.0,1.0,0.0,0.0,0.0,1.0,-0.243902444839,-4.75609779358,-0.365853667259,1.0,0.0,0.0,0.0,1.0,0.0,0.0,0.0,1.0,-0.349553442383,-0.828393774414,10.2615483154,1.0,0.0,0.0,0.0,1.0,0.0,0.0,0.0,1.0
1464109250482910907,243,1464109250480743830,,5.64712190628,-9.91062545776,-170.336029053,0.00208700005896,1.0,0.0,0.0,0.0,1.0,0.0,0.0,0.0,1.0,-0.487804889679,-5.36585378647,-0.792682945728,1.0,0.0,0.0,0.0,1.0,0.0,0.0,0.0,1.0,-0.248996972656,-0.723048901367,10.165780249,1.0,0.0,0.0,0.0,1.0,0.0,0.0,0.0,1.0
1464109250503969650,244,1464109250500860597,,5.50973320007,-9.89608764648,-170.323852539,0.00222299993038,1.0,0.0,0.0,0.0,1.0,0.0,0.0,0.0,1.0,-0.18292683363,-6.21951246262,-0.365853667259,1.0,0.0,0.0,0.0,1.0,0.0,0.0,0.0,1.0,-0.402225878906,-0.694318481445,10.2950671387,1.0,0.0,0.0,0.0,1.0,0.0,0.0,0.0,1.0
1464109250524557822,245,1464109250521735694,,5.3322353363,-9.868060112,-170.301956177,0.00133200001437,1.0,0.0,0.0,0.0,1.0,0.0,0.0,0.0,1.0,0.609756112099,-2.19512200356,0.365853667259,1.0,0.0,0.0,0.0,1.0,0.0,0.0,0.0,1.0,0.0814028564453,-0.857124194336,10.285490332,1.0,0.0,0.0,0.0,1.0,0.0,0.0,0.0,1.0
1464109250545845314,246,1464109250543397665,,5.22115707397,-9.83504867554,-170.263458252,0.0012529999949,1.0,0.0,0.0,0.0,1.0,0.0,0.0,0.0,1.0,-0.12195122242,-2.31707310677,1.15853655338,1.0,0.0,0.0,0.0,1.0,0.0,0.0,0.0,1.0,0.258573779297,-0.507570751953,10.1705686523,1.0,0.0,0.0,0.0,1.0,0.0,0.0,0.0,1.0
1464109250566635256,247,1464109250563799066,,5.13286590576,-9.81607913971,-170.270507812,0.00108700001147,1.0,0.0,0.0,0.0,1.0,0.0,0.0,0.0,1.0,-0.18292683363,-2.19512200356,-2.07317066193,1.0,0.0,0.0,0.0,1.0,0.0,0.0,0.0,1.0,-0.15322890625,-0.694318481445,10.3812583984,1.0,0.0,0.0,0.0,1.0,0.0,0.0,0.0,1.0
1464109250587779312,248,1464109250584992132,,5.05359077454,-9.80823326111,-170.288635254,0.00102800002787,1.0,0.0,0.0,0.0,1.0,0.0,0.0,0.0,1.0,0.0,-1.64634156227,-0.487804889679,1.0,0.0,0.0,0.0,1.0,0.0,0.0,0.0,1.0,-0.0718260498047,-0.780509741211,10.285490332,1.0,0.0,0.0,0.0,1.0,0.0,0.0,0.0,1.0
1464109250608888107,249,1464109250606155510,,5.01715993881,-9.8030462265,-170.263504028,0.00120399997104,1.0,0.0,0.0,0.0,1.0,0.0,0.0,0.0,1.0,-0.426829278469,0.914634168148,1.2195122242,1.0,0.0,0.0,0.0,1.0,0.0,0.0,0.0,1.0,0.00957680664062,-0.679953271484,10.2759135254,1.0,0.0,0.0,0.0,1.0,0.0,0.0,0.0,1.0
1464109250630266901,250,1464109250627124358,,4.98591661453,-9.79239082336,-170.243743896,0.00115400005598,1.0,0.0,0.0,0.0,1.0,0.0,0.0,0.0,1.0,-0.304878056049,0.731707334518,0.0609756112099,1.0,0.0,0.0,0.0,1.0,0.0,0.0,0.0,1.0,0.287304199219,-0.679953271484,10.180145459,1.0,0.0,0.0,0.0,1.0,0.0,0.0,0.0,1.0
1464109250653305326,251,1464109250649672211,,4.95032262802,-9.78193664551,-170.250915527,0.0011340000201,1.0,0.0,0.0,0.0,1.0,0.0,0.0,0.0,1.0,-0.12195122242,2.62195134163,-0.365853667259,1.0,0.0,0.0,0.0,1.0,0.0,0.0,0.0,1.0,0.100556469727,-0.670376464844,10.2328178955,1.0,0.0,0.0,0.0,1.0,0.0,0.0,0.0,1.0
1464109250673523238,252,1464109250669509500,,4.97044897079,-9.77410793304,-170.258590698,0.00129399995785,1.0,0.0,0.0,0.0,1.0,0.0,0.0,0.0,1.0,-0.853658556938,3.96341490746,0.18292683363,1.0,0.0,0.0,0.0,1.0,0.0,0.0,0.0,1.0,0.114921679688,-0.689530078125,10.3190091553,1.0,0.0,0.0,0.0,1.0,0.0,0.0,0.0,1.0
1464109250695120470,253,1464109250690478556,,5.02838754654,-9.76470184326,-170.259567261,0.00120900000911,1.0,0.0,0.0,0.0,1.0,0.0,0.0,0.0,1.0,-0.365853667259,4.45121955872,0.670731723309,1.0,0.0,0.0,0.0,1.0,0.0,0.0,0.0,1.0,-0.0191536132812,-0.660799658203,10.0700121826,1.0,0.0,0.0,0.0,1.0,0.0,0.0,0.0,1.0
1464109250714389062,254,1464109250711668444,,5.0858464241,-9.75322532654,-170.259857178,0.000954999995884,1.0,0.0,0.0,0.0,1.0,0.0,0.0,0.0,1.0,-0.426829278469,5.85365867615,0.426829278469,1.0,0.0,0.0,0.0,1.0,0.0,0.0,0.0,1.0,0.105344873047,-0.531512805087,10.3190091553,1.0,0.0,0.0,0.0,1.0,0.0,0.0,0.0,1.0
1464109250737371081,255,1464109250733028541,,5.17361927032,-9.74607372284,-170.269073486,0.000961999990977,1.0,0.0,0.0,0.0,1.0,0.0,0.0,0.0,1.0,-0.304878056049,7.25609779358,0.365853667259,1.0,0.0,0.0,0.0,1.0,0.0,0.0,0.0,1.0,-0.067037651051,-0.737414111328,10.2567599121,1.0,0.0,0.0,0.0,1.0,0.0,0.0,0.0,1.0
1464109250764779754,256,1464109250760294402,,5.31279087067,-9.74382781982,-170.293060303,0.0072579998523,1.0,0.0,0.0,0.0,1.0,0.0,0.0,0.0,1.0,-0.426829278469,6.95121955872,-0.304878056049,1.0,0.0,0.0,0.0,1.0,0.0,0.0,0.0,1.0,-0.186747729492,-0.713472094727,10.2280294922,1.0,0.0,0.0,0.0,1.0,0.0,0.0,0.0,1.0
1464109250784353553,257,1464109250781915643,,5.43970155716,-9.74542236328,-170.308654785,0.00162200001068,1.0,0.0,0.0,0.0,1.0,0.0,0.0,0.0,1.0,-0.792682945728,7.13414621353,0.975609779358,1.0,0.0,0.0,0.0,1.0,0.0,0.0,0.0,1.0,-0.167594116211,-0.737414111328,10.165780249,1.0,0.0,0.0,0.0,1.0,0.0,0.0,0.0,1.0
1464109250809220411,258,1464109250805379692,,5.57691764832,-9.73571872711,-170.310791016,0.00233999988995,1.0,0.0,0.0,0.0,1.0,0.0,0.0,0.0,1.0,-0.426829278469,5.54878091812,0.0,1.0,0.0,0.0,0.0,1.0,0.0,0.0,0.0,1.0,-0.593762048251,-0.651222851562,10.1083194092,1.0,0.0,0.0,0.0,1.0,0.0,0.0,0.0,1.0
1464109250829000616,259,1464109250824878961,,5.661485672,-9.72762203217,-170.339630127,0.0011340000201,1.0,0.0,0.0,0.0,1.0,0.0,0.0,0.0,1.0,-0.365853667259,2.5,-1.34146344662,1.0,0.0,0.0,0.0,1.0,0.0,0.0,0.0,1.0,-0.641646044922,-0.646434448242,10.1753570557,1.0,0.0,0.0,0.0,1.0,0.0,0.0,0.0,1.0
1464109250848460405,260,1464109250845939214,,5.71208667755,-9.72120285034,-170.350601196,0.00103699997999,1.0,0.0,0.0,0.0,1.0,0.0,0.0,0.0,1.0,-0.487804889679,-0.365853667259,-0.243902444839,1.0,0.0,0.0,0.0,1.0,0.0,0.0,0.0,1.0,-0.790086547852,-0.780509741211,10.180145459,1.0,0.0,0.0,0.0,1.0,0.0,0.0,0.0,1.0
1464109250869626648,261,1464109250866972853,,5.70023393631,-9.71573638916,-170.339614868,0.00123900000472,1.0,0.0,0.0,0.0,1.0,0.0,0.0,0.0,1.0,-0.609756112099,-2.56097555161,0.304878056049,1.0,0.0,0.0,0.0,1.0,0.0,0.0,0.0,1.0,-0.703895288086,-0.727837304687,10.2423947021,1.0,0.0,0.0,0.0,1.0,0.0,0.0,0.0,1.0
1464109250891007734,262,1464109250888496751,,5.62174701691,-9.70618438721,-170.312515259,0.00117499998305,1.0,0.0,0.0,0.0,1.0,0.0,0.0,0.0,1.0,0.0,-5.91463422775,0.0609756112099,1.0,0.0,0.0,0.0,1.0,0.0,0.0,0.0,1.0,-0.502782348633,-0.713472094727,10.2519715088,1.0,0.0,0.0,0.0,1.0,0.0,0.0,0.0,1.0
1464109250911785957,263,1464109250909136433,,5.47677373886,-9.69570922852,-170.29246521,0.00105800002348,1.0,0.0,0.0,0.0,1.0,0.0,0.0,0.0,1.0,-0.304878056049,-7.80487823486,-0.914634168148,1.0,0.0,0.0,0.0,1.0,0.0,0.0,0.0,1.0,-0.45489831543,-0.694318481445,10.0652237793,1.0,0.0,0.0,0.0,1.0,0.0,0.0,0.0,1.0
1464109250932883919,264,1464109250930286999,,5.28375482559,-9.68537712097,-170.268859863,0.000966000021435,1.0,0.0,0.0,0.0,1.0,0.0,0.0,0.0,1.0,-0.426829278469,-9.14634132385,-0.304878056049,1.0,0.0,0.0,0.0,1.0,0.0,0.0,0.0,1.0,-0.253785375977,-0.670376464844,10.180145459,1.0,0.0,0.0,0.0,1.0,0.0,0.0,0.0,1.0
1464109250955191409,265,1464109250951035431,,5.06598806381,-9.67181587219,-170.233581543,0.000968999986071,1.0,0.0,0.0,0.0,1.0,0.0,0.0,0.0,1.0,-0.487804889679,-9.32926845551,-0.12195122242,1.0,0.0,0.0,0.0,1.0,0.0,0.0,0.0,1.0,-0.00478840332031,-0.732625708008,10.1466266357,1.0,0.0,0.0,0.0,1.0,0.0,0.0,0.0,1.0
1464109250977445513,266,1464109250971528082,,4.83109712601,-9.66089057922,-170.19871521,0.00108800001908,1.0,0.0,0.0,0.0,1.0,0.0,0.0,0.0,1.0,-0.243902444839,-9.5731716156,-0.365853667259,1.0,0.0,0.0,0.0,1.0,0.0,0.0,0.0,1.0,0.134075302102,-0.727837304687,10.299855542,1.0,0.0,0.0,0.0,1.0,0.0,0.0,0.0,1.0
1464109250997170614,267,1464109250992260940,,4.57395982742,-9.65439033508,-170.17477417,0.0011490000179,1.0,0.0,0.0,0.0,1.0,0.0,0.0,0.0,1.0,-0.487804889679,-8.35365867615,-0.792682945728,1.0,0.0,0.0,0.0,1.0,0.0,0.0,0.0,1.0,0.411802685547,-0.675164868164,10.285490332,1.0,0.0,0.0,0.0,1.0,0.0,0.0,0.0,1.0
1464109251018106285,268,1464109251014252285,,4.34381580353,-9.64901924133,-170.144927979,0.0012009999482,1.0,0.0,0.0,0.0,1.0,0.0,0.0,0.0,1.0,-0.426829278469,-4.08536577225,0.853658556938,1.0,0.0,0.0,0.0,1.0,0.0,0.0,0.0,1.0,0.957680664062,-0.675164868164,10.2902787354,1.0,0.0,0.0,0.0,1.0,0.0,0.0,0.0,1.0
1464109251041800072,269,1464109251034170510,,4.21266746521,-9.63175773621,-170.092163086,0.00104000000283,1.0,0.0,0.0,0.0,1.0,0.0,0.0,0.0,1.0,-1.64634156227,4.39024400711,3.35365867615,1.0,0.0,0.0,0.0,1.0,0.0,0.0,0.0,1.0,1.08217922346,-0.703895288086,10.3956236084,1.0,0.0,0.0,0.0,1.0,0.0,0.0,0.0,1.0
1464109251061120904,270,1464109251055567690,,4.243704319,-9.63063526154,-170.048706055,0.00437399977818,1.0,0.0,0.0,0.0,1.0,0.0,0.0,0.0,1.0,-0.365853667259,8.47560977936,2.56097555161,1.0,0.0,0.0,0.0,1.0,0.0,0.0,0.0,1.0,0.785298144531,-0.804451757813,10.2471831055,1.0,0.0,0.0,0.0,1.0,0.0,0.0,0.0,1.0
1464109251080822255,271,1464109251076454402,,4.34528398514,-9.6315279007,-170.065887451,0.00180800003,1.0,0.0,0.0,0.0,1.0,0.0,0.0,0.0,1.0,-0.365853667259,8.71951198578,-1.03658533096,1.0,0.0,0.0,0.0,1.0,0.0,0.0,0.0,1.0,0.469263525391,-0.780509741211,10.2280294922,1.0,0.0,0.0,0.0,1.0,0.0,0.0,0.0,1.0
1464109251100683033,272,1464109251098059446,,4.46724414825,-9.64108562469,-170.124069214,0.00121799996123,1.0,0.0,0.0,0.0,1.0,0.0,0.0,0.0,1.0,-0.365853667259,10.8536586761,-0.731707334518,1.0,0.0,0.0,0.0,1.0,0.0,0.0,0.0,1.0,0.210689746094,-0.751779321289,10.2950671387,1.0,0.0,0.0,0.0,1.0,0.0,0.0,0.0,1.0
1464109251124960465,273,1464109251120897611,,4.69007730484,-9.64204502106,-170.164123535,0.00199900008738,1.0,0.0,0.0,0.0,1.0,0.0,0.0,0.0,1.0,-0.548780500889,11.9512195587,0.304878056049,1.0,0.0,0.0,0.0,1.0,0.0,0.0,0.0,1.0,-0.124498486328,-0.684741674805,10.2232410889,1.0,0.0,0.0,0.0,1.0,0.0,0.0,0.0,1.0
1464109251145061711,274,1464109251141718959,,4.91908359528,-9.64568424225,-170.201416016,0.00221799989231,1.0,0.0,0.0,0.0,1.0,0.0,0.0,0.0,1.0,-0.731707334518,10.1829271317,-0.670731723309,1.0,0.0,0.0,0.0,1.0,0.0,0.0,0.0,1.0,-0.397437475586,-0.641646044922,10.1945106689,1.0,0.0,0.0,0.0,1.0,0.0,0.0,0.0,1.0
1464109251165892069,275,1464109251162556766,,5.09737730026,-9.64494609833,-170.238433838,0.00142999994569,1.0,0.0,0.0,0.0,1.0,0.0,0.0,0.0,1.0,-0.426829278469,9.69512176514,-0.243902444839,1.0,0.0,0.0,0.0,1.0,0.0,0.0,0.0,1.0,-0.138863696289,-0.732625708008,10.0221281494,1.0,0.0,0.0,0.0,1.0,0.0,0.0,0.0,1.0
1464109251186829250,276,1464109251183427332,,5.2856388092,-9.63663482666,-170.253051758,0.00114099995699,1.0,0.0,0.0,0.0,1.0,0.0,0.0,0.0,1.0,-0.243902444839,10.2439022064,1.34146344662,1.0,0.0,0.0,0.0,1.0,0.0,0.0,0.0,1.0,-0.210689746094,-0.507570751953,10.1992990723,1.0,0.0,0.0,0.0,1.0,0.0,0.0,0.0,1.0
1464109251206826225,277,1464109251204176493,,5.47117185593,-9.62171077728,-170.263427734,0.00114299997222,1.0,0.0,0.0,0.0,1.0,0.0,0.0,0.0,1.0,-0.243902444839,7.01219511032,-0.548780500889,1.0,0.0,0.0,0.0,1.0,0.0,0.0,0.0,1.0,-0.646434448242,-0.560243188477,10.2615483154,1.0,0.0,0.0,0.0,1.0,0.0,0.0,0.0,1.0
1464109251228490227,278,1464109251225528308,,5.58803510666,-9.60887813568,-170.291549683,0.000983000034466,1.0,0.0,0.0,0.0,1.0,0.0,0.0,0.0,1.0,-0.487804889679,4.02439022064,-1.09756100178,1.0,0.0,0.0,0.0,1.0,0.0,0.0,0.0,1.0,-0.359130249023,-0.61770402832,10.3094323486,1.0,0.0,0.0,0.0,1.0,0.0,0.0,0.0,1.0
1464109251249435533,279,1464109251246696895,,5.66063022614,-9.60506725311,-170.296463013,0.000972000008915,1.0,0.0,0.0,0.0,1.0,0.0,0.0,0.0,1.0,-0.731707334518,4.87804889679,1.09756100178,1.0,0.0,0.0,0.0,1.0,0.0,0.0,0.0,1.0,-0.296881024126,-0.646434448242,10.2471831055,1.0,0.0,0.0,0.0,1.0,0.0,0.0,0.0,1.0
1464109251270373079,280,1464109251267903450,,5.7338309288,-9.60046672821,-170.283462524,0.0009710000013,1.0,0.0,0.0,0.0,1.0,0.0,0.0,0.0,1.0,-0.365853667259,2.98780488968,0.365853667259,1.0,0.0,0.0,0.0,1.0,0.0,0.0,0.0,1.0,-0.320823022461,-0.675164868164,10.2232410889,1.0,0.0,0.0,0.0,1.0,0.0,0.0,0.0,1.0
1464109251291438540,281,1464109251288894902,,5.75435590744,-9.60009670258,-170.29788208,0.00115499994718,1.0,0.0,0.0,0.0,1.0,0.0,0.0,0.0,1.0,-0.365853667259,1.2804877758,-0.792682945728,1.0,0.0,0.0,0.0,1.0,0.0,0.0,0.0,1.0,-0.363918652344,-0.866701000977,10.2040874756,1.0,0.0,0.0,0.0,1.0,0.0,0.0,0.0,1.0
1464109251311474005,282,1464109251309390365,,5.75173807144,-9.60121917725,-170.293441772,0.00110600003973,1.0,0.0,0.0,0.0,1.0,0.0,0.0,0.0,1.0,-0.304878056049,1.46341466904,0.487804889679,1.0,0.0,0.0,0.0,1.0,0.0,0.0,0.0,1.0,-0.287304199219,-0.794874951172,10.3237975586,1.0,0.0,0.0,0.0,1.0,0.0,0.0,0.0,1.0
1464109251332215562,283,1464109251330174422,,5.75433731079,-9.59468650818,-170.276596069,0.00102800002787,1.0,0.0,0.0,0.0,1.0,0.0,0.0,0.0,1.0,-0.426829278469,0.548780500889,0.304878056049,1.0,0.0,0.0,0.0,1.0,0.0,0.0,0.0,1.0,-0.248996972656,-0.61770402832,10.2519715088,1.0,0.0,0.0,0.0,1.0,0.0,0.0,0.0,1.0
1464109251352205141,284,1464109251350685406,,5.71871900558,-9.59365844727,-170.274810791,0.0010529999854,1.0,0.0,0.0,0.0,1.0,0.0,0.0,0.0,1.0,-0.609756112099,0.0,-0.304878056049,1.0,0.0,0.0,0.0,1.0,0.0,0.0,0.0,1.0,-0.0383072265625,-0.675164868164,10.2567599121,1.0,0.0,0.0,0.0,1.0,0.0,0.0,0.0,1.0
1464109251381774017,285,1464109251371627899,,5.685942173,-9.58188533783,-170.265594482,0.00102399999741,1.0,0.0,0.0,0.0,1.0,0.0,0.0,0.0,1.0,-0.18292683363,0.731707334518,0.548780500889,1.0,0.0,0.0,0.0,1.0,0.0,0.0,0.0,1.0,-0.15801730957,-0.665588061523,10.1274730225,1.0,0.0,0.0,0.0,1.0,0.0,0.0,0.0,1.0
1464109251396884600,286,1464109251392276644,,5.66185569763,-9.57490539551,-170.257217407,0.00114299997222,1.0,0.0,0.0,0.0,1.0,0.0,0.0,0.0,1.0,-0.731707334518,0.670731723309,-0.0609756112099,1.0,0.0,0.0,0.0,1.0,0.0,0.0,0.0,1.0,-0.114921679688,-0.584185168546,10.2328178955,1.0,0.0,0.0,0.0,1.0,0.0,0.0,0.0,1.0
1464109251418560424,287,1464109251414391321,,5.63185548782,-9.57201862335,-170.262527466,0.00102600001264,1.0,0.0,0.0,0.0,1.0,0.0,0.0,0.0,1.0,-0.487804889679,0.304878056049,-0.12195122242,1.0,0.0,0.0,0.0,1.0,0.0,0.0,0.0,1.0,-0.181959326172,-0.703895288086,10.3046439453,1.0,0.0,0.0,0.0,1.0,0.0,0.0,0.0,1.0
1464109251438483806,288,1464109251435512981,,5.60736370087,-9.56693553925,-170.252410889,0.00123900000472,1.0,0.0,0.0,0.0,1.0,0.0,0.0,0.0,1.0,-0.304878056049,1.2804877758,0.426829278469,1.0,0.0,0.0,0.0,1.0,0.0,0.0,0.0,1.0,-0.129286889648,-0.641646044922,10.1992990723,1.0,0.0,0.0,0.0,1.0,0.0,0.0,0.0,1.0
1464109251460791764,289,1464109251454925948,,5.58512878418,-9.56473350525,-170.241729736,0.00118699995801,1.0,0.0,0.0,0.0,1.0,0.0,0.0,0.0,1.0,-0.365853667259,1.09756100178,0.0609756112099,1.0,0.0,0.0,0.0,1.0,0.0,0.0,0.0,1.0,0.0143652099609,-0.723048901367,10.2376062988,1.0,0.0,0.0,0.0,1.0,0.0,0.0,0.0,1.0
1464109251481793945,290,1464109251476126669,,5.55692529678,-9.56053256989,-170.243301392,0.00118000002112,1.0,0.0,0.0,0.0,1.0,0.0,0.0,0.0,1.0,-0.365853667259,0.792682945728,-0.18292683363,1.0,0.0,0.0,0.0,1.0,0.0,0.0,0.0,1.0,-0.0814028564453,-0.756567724609,10.2711251221,1.0,0.0,0.0,0.0,1.0,0.0,0.0,0.0,1.0
1464109251500112436,291,1464109251497736140,,5.53797531128,-9.55530452728,-170.239807129,0.00114599999506,1.0,0.0,0.0,0.0,1.0,0.0,0.0,0.0,1.0,-0.548780500889,1.46341466904,0.365853667259,1.0,0.0,0.0,0.0,1.0,0.0,0.0,0.0,1.0,-0.0191536132812,-0.713472094727,10.2902787354,1.0,0.0,0.0,0.0,1.0,0.0,0.0,0.0,1.0
1464109251523426902,292,1464109251519050820,,5.52913618088,-9.54953384399,-170.233963013,0.00131500000134,1.0,0.0,0.0,0.0,1.0,0.0,0.0,0.0,1.0,-0.426829278469,1.8292683363,0.18292683363,1.0,0.0,0.0,0.0,1.0,0.0,0.0,0.0,1.0,-0.0861912597656,-0.641646044922,10.2471831055,1.0,0.0,0.0,0.0,1.0,0.0,0.0,0.0,1.0
1464109251545093612,293,1464109251542737785,,5.5202126503,-9.5439748764,-170.229736328,0.00391300022602,1.0,0.0,0.0,0.0,1.0,0.0,0.0,0.0,1.0,-0.609756112099,2.43902444839,0.12195122242,1.0,0.0,0.0,0.0,1.0,0.0,0.0,0.0,1.0,0.00957680664062,-0.651222851562,10.3573163818,1.0,0.0,0.0,0.0,1.0,0.0,0.0,0.0,1.0
1464109251567165061,294,1464109251563549237,,5.52562093735,-9.54448223114,-170.231674194,0.00165500002913,1.0,0.0,0.0,0.0,1.0,0.0,0.0,0.0,1.0,-0.487804889679,3.47560977936,0.426829278469,1.0,0.0,0.0,0.0,1.0,0.0,0.0,0.0,1.0,-0.067037651051,-0.703895288086,10.3237975586,1.0,0.0,0.0,0.0,1.0,0.0,0.0,0.0,1.0
1464109251587948961,295,1464109251585450739,,5.5534620285,-9.54371929169,-170.233627319,0.00206499989145,1.0,0.0,0.0,0.0,1.0,0.0,0.0,0.0,1.0,-0.426829278469,3.96341490746,-0.0609756112099,1.0,0.0,0.0,0.0,1.0,0.0,0.0,0.0,1.0,0.0335188255255,-0.718260498047,10.4099888184,1.0,0.0,0.0,0.0,1.0,0.0,0.0,0.0,1.0
1464109251609244422,296,1464109251606793179,,5.60160493851,-9.54269981384,-170.238601685,0.00267599988729,1.0,0.0,0.0,0.0,1.0,0.0,0.0,0.0,1.0,-0.365853667259,4.39024400711,0.304878056049,1.0,0.0,0.0,0.0,1.0,0.0,0.0,0.0,1.0,-0.172382519531,-0.732625708008,10.1562034424,1.0,0.0,0.0,0.0,1.0,0.0,0.0,0.0,1.0
1464109251630039155,297,1464109251627582860,,5.6534075737,-9.54080486298,-170.243331909,0.0009710000013,1.0,0.0,0.0,0.0,1.0,0.0,0.0,0.0,1.0,-0.487804889679,3.65853667259,-0.18292683363,1.0,0.0,0.0,0.0,1.0,0.0,0.0,0.0,1.0,-0.244208569336,-0.737414111328,10.2184526855,1.0,0.0,0.0,0.0,1.0,0.0,0.0,0.0,1.0
1464109251654428775,298,1464109251648757332,,5.70534896851,-9.53904819489,-170.248901367,0.00129599997308,1.0,0.0,0.0,0.0,1.0,0.0,0.0,0.0,1.0,-0.548780500889,3.10975623131,0.12195122242,1.0,0.0,0.0,0.0,1.0,0.0,0.0,0.0,1.0,-0.426167895508,-0.684741674805,10.2328178955,1.0,0.0,0.0,0.0,1.0,0.0,0.0,0.0,1.0
1464109251679654902,299,1464109251669835554,,5.7301774025,-9.53286457062,-170.246658325,0.000981000019237,1.0,0.0,0.0,0.0,1.0,0.0,0.0,0.0,1.0,-0.487804889679,2.13414645195,0.12195122242,1.0,0.0,0.0,0.0,1.0,0.0,0.0,0.0,1.0,-0.287304199219,-0.684741674805,10.0939541992,1.0,0.0,0.0,0.0,1.0,0.0,0.0,0.0,1.0
1464109251700100053,300,1464109251690863360,,5.72673177719,-9.52485275269,-170.233947754,0.00111599999946,1.0,0.0,0.0,0.0,1.0,0.0,0.0,0.0,1.0,-0.548780500889,1.8292683363,0.548780500889,1.0,0.0,0.0,0.0,1.0,0.0,0.0,0.0,1.0,-0.00957680664062,-0.660799658203,10.2232410889,1.0,0.0,0.0,0.0,1.0,0.0,0.0,0.0,1.0
1464109251718348908,301,1464109251712302467,,5.71667337418,-9.52066707611,-170.216506958,0.00254800007679,1.0,0.0,0.0,0.0,1.0,0.0,0.0,0.0,1.0,-0.304878056049,4.2682929039,1.40243899822,1.0,0.0,0.0,0.0,1.0,0.0,0.0,0.0,1.0,0.196324536133,-0.641646044922,10.2040874756,1.0,0.0,0.0,0.0,1.0,0.0,0.0,0.0,1.0
1464109251746424246,302,1464109251733281106,,5.74860095978,-9.51689434052,-170.212310791,0.00138000003062,1.0,0.0,0.0,0.0,1.0,0.0,0.0,0.0,1.0,-0.304878056049,5.36585378647,0.365853667259,1.0,0.0,0.0,0.0,1.0,0.0,0.0,0.0,1.0,-0.00478840332031,-0.756567724609,10.2184526855,1.0,0.0,0.0,0.0,1.0,0.0,0.0,0.0,1.0
1464109251759702022,303,1464109251757878121,,5.81543731689,-9.51644420624,-170.241546631,0.00291100004688,1.0,0.0,0.0,0.0,1.0,0.0,0.0,0.0,1.0,-0.487804889679,5.42682933807,-0.975609779358,1.0,0.0,0.0,0.0,1.0,0.0,0.0,0.0,1.0,-0.320823022461,-0.703895288086,10.2040874756,1.0,0.0,0.0,0.0,1.0,0.0,0.0,0.0,1.0
1464109251783186956,304,1464109251779377279,,5.91072273254,-9.51812267303,-170.257110596,0.00567300012335,1.0,0.0,0.0,0.0,1.0,0.0,0.0,0.0,1.0,-0.365853667259,4.93902444839,0.304878056049,1.0,0.0,0.0,0.0,1.0,0.0,0.0,0.0,1.0,-0.407014282227,-0.732625708008,10.1992990723,1.0,0.0,0.0,0.0,1.0,0.0,0.0,0.0,1.0
1464109251802952161,305,1464109251800197325,,5.99560022354,-9.51874256134,-170.257339478,0.0048779998906,1.0,0.0,0.0,0.0,1.0,0.0,0.0,0.0,1.0,-0.304878056049,4.02439022064,0.365853667259,1.0,0.0,0.0,0.0,1.0,0.0,0.0,0.0,1.0,-0.445321508789,-0.723048901367,10.1705686523,1.0,0.0,0.0,0.0,1.0,0.0,0.0,0.0,1.0
1464109251832662182,306,1464109251821071590,,6.03370141983,-9.51868534088,-170.252304077,0.00106100004632,1.0,0.0,0.0,0.0,1.0,0.0,0.0,0.0,1.0,-0.731707334518,3.35365867615,0.487804889679,1.0,0.0,0.0,0.0,1.0,0.0,0.0,0.0,1.0,-0.076614453125,-0.641646044922,10.2232410889,1.0,0.0,0.0,0.0,1.0,0.0,0.0,0.0,1.0
1464109251848411982,307,1464109251841567574,,6.0563158989,-9.5124130249,-170.247131348,0.00109399994835,1.0,0.0,0.0,0.0,1.0,0.0,0.0,0.0,1.0,-0.548780500889,3.96341490746,0.243902444839,1.0,0.0,0.0,0.0,1.0,0.0,0.0,0.0,1.0,-0.124498486328,-0.641646044922,10.2040874756,1.0,0.0,0.0,0.0,1.0,0.0,0.0,0.0,1.0
1464109251867319637,308,1464109251862185329,,6.08756637573,-9.51128959656,-170.245727539,0.00102399999741,1.0,0.0,0.0,0.0,1.0,0.0,0.0,0.0,1.0,-0.365853667259,5.06097555161,0.12195122242,1.0,0.0,0.0,0.0,1.0,0.0,0.0,0.0,1.0,-0.067037651051,-0.723048901367,10.1466266357,1.0,0.0,0.0,0.0,1.0,0.0,0.0,0.0,1.0
1464109251886346042,309,1464109251883161208,,6.14191532135,-9.50745773315,-170.253845215,0.00100199994631,1.0,0.0,0.0,0.0,1.0,0.0,0.0,0.0,1.0,-0.487804889679,5.42682933807,0.12195122242,1.0,0.0,0.0,0.0,1.0,0.0,0.0,0.0,1.0,-0.215478149414,-0.627280834961,10.2088758789,1.0,0.0,0.0,0.0,1.0,0.0,0.0,0.0,1.0
1464109251906315830,310,1464109251903835785,,6.21007442474,-9.51377296448,-170.266021729,0.000968999986071,1.0,0.0,0.0,0.0,1.0,0.0,0.0,0.0,1.0,-0.365853667259,5.42682933807,0.12195122242,1.0,0.0,0.0,0.0,1.0,0.0,0.0,0.0,1.0,-0.292092584273,-0.713472094727,10.2423947021,1.0,0.0,0.0,0.0,1.0,0.0,0.0,0.0,1.0
1464109251928788632,311,1464109251924962705,,6.29414129257,-9.51292324066,-170.271453857,0.000959000026342,1.0,0.0,0.0,0.0,1.0,0.0,0.0,0.0,1.0,-0.304878056049,5.0,0.609756112099,1.0,0.0,0.0,0.0,1.0,0.0,0.0,0.0,1.0,-0.373495458984,-0.679953271484,10.3477395752,1.0,0.0,0.0,0.0,1.0,0.0,0.0,0.0,1.0
1464109251948341129,312,1464109251945785043,,6.36228847504,-9.5086889267,-170.269256592,0.000973000016529,1.0,0.0,0.0,0.0,1.0,0.0,0.0,0.0,1.0,-0.548780500889,4.2682929039,0.365853667259,1.0,0.0,0.0,0.0,1.0,0.0,0.0,0.0,1.0,-0.378283862305,-0.632069238281,10.3860468018,1.0,0.0,0.0,0.0,1.0,0.0,0.0,0.0,1.0
1464109251972855384,313,1464109251967120191,,6.40931940079,-9.50539970398,-170.269424438,0.000956000003498,1.0,0.0,0.0,0.0,1.0,0.0,0.0,0.0,1.0,-0.487804889679,3.7804877758,0.12195122242,1.0,0.0,0.0,0.0,1.0,0.0,0.0,0.0,1.0,-0.320823022461,-0.665588061523,10.180145459,1.0,0.0,0.0,0.0,1.0,0.0,0.0,0.0,1.0
1464109251992127413,314,1464109251987896852,,6.44598674774,-9.50731372833,-170.266601562,0.00100100005511,1.0,0.0,0.0,0.0,1.0,0.0,0.0,0.0,1.0,-0.731707334518,2.98780488968,0.0,1.0,0.0,0.0,0.0,1.0,0.0,0.0,0.0,1.0,-0.402225878906,-0.684741674805,10.2519715088,1.0,0.0,0.0,0.0,1.0,0.0,0.0,0.0,1.0
1464109252011112464,315,1464109252008297003,,6.47458457947,-9.50506782532,-170.268188477,0.000965000013821,1.0,0.0,0.0,0.0,1.0,0.0,0.0,0.0,1.0,-0.548780500889,2.13414645195,0.0,1.0,0.0,0.0,0.0,1.0,0.0,0.0,0.0,1.0,-0.474051928711,-0.708683691406,10.3237975586,1.0,0.0,0.0,0.0,1.0,0.0,0.0,0.0,1.0
1464109252038492440,316,1464109252029462152,,6.48224210739,-9.50166320801,-170.269256592,0.00113900005817,1.0,0.0,0.0,0.0,1.0,0.0,0.0,0.0,1.0,-0.426829278469,1.40243899822,-0.12195122242,1.0,0.0,0.0,0.0,1.0,0.0,0.0,0.0,1.0,-0.445321508789,-0.632069238281,10.1753570557,1.0,0.0,0.0,0.0,1.0,0.0,0.0,0.0,1.0
1464109252056130776,317,1464109252050411729,,6.4764714241,-9.50065994263,-170.262176514,0.000966000021435,1.0,0.0,0.0,0.0,1.0,0.0,0.0,0.0,1.0,-0.487804889679,0.548780500889,0.243902444839,1.0,0.0,0.0,0.0,1.0,0.0,0.0,0.0,1.0,-0.387860668945,-0.660799658203,10.2328178955,1.0,0.0,0.0,0.0,1.0,0.0,0.0,0.0,1.0
1464109252080814300,318,1464109252071713753,,6.44929075241,-9.49504852295,-170.250030518,0.000959000026342,1.0,0.0,0.0,0.0,1.0,0.0,0.0,0.0,1.0,-0.426829278469,-0.243902444839,-0.243902444839,1.0,0.0,0.0,0.0,1.0,0.0,0.0,0.0,1.0,-0.316034619141,-0.651222851562,10.1466266357,1.0,0.0,0.0,0.0,1.0,0.0,0.0,0.0,1.0
1464109252101559919,319,1464109252092277185,,6.40547990799,-9.49345207214,-170.246002197,0.000957000011113,1.0,0.0,0.0,0.0,1.0,0.0,0.0,0.0,1.0,-0.670731723309,-0.365853667259,-0.18292683363,1.0,0.0,0.0,0.0,1.0,0.0,0.0,0.0,1.0,-0.263362164351,-0.636857641602,10.1562034424,1.0,0.0,0.0,0.0,1.0,0.0,0.0,0.0,1.0
1464109252122284028,320,1464109252113264730,,6.3586359024,-9.49228286743,-170.237869263,0.000961999990977,1.0,0.0,0.0,0.0,1.0,0.0,0.0,0.0,1.0,-0.426829278469,-0.609756112099,0.0,1.0,0.0,0.0,0.0,1.0,0.0,0.0,0.0,1.0,-0.316034619141,-0.708683691406,10.2232410889,1.0,0.0,0.0,0.0,1.0,0.0,0.0,0.0,1.0
1464109252140049082,321,1464109252134341755,,6.3062915802,-9.48766613007,-170.22706604,0.00105399999302,1.0,0.0,0.0,0.0,1.0,0.0,0.0,0.0,1.0,-0.426829278469,-0.731707334518,-0.243902444839,1.0,0.0,0.0,0.0,1.0,0.0,0.0,0.0,1.0,-0.335188232422,-0.737414111328,10.2088758789,1.0,0.0,0.0,0.0,1.0,0.0,0.0,0.0,1.0
1464109252161223294,322,1464109252154938155,,6.24610376358,-9.48325920105,-170.218048096,0.00111099996138,1.0,0.0,0.0,0.0,1.0,0.0,0.0,0.0,1.0,-0.12195122242,-1.34146344662,-0.243902444839,1.0,0.0,0.0,0.0,1.0,0.0,0.0,0.0,1.0,-0.277727392578,-0.641646044922,10.2759135254,1.0,0.0,0.0,0.0,1.0,0.0,0.0,0.0,1.0
1464109252182372974,323,1464109252176695334,,6.17361450195,-9.47894096375,-170.205947876,0.00126399996225,1.0,0.0,0.0,0.0,1.0,0.0,0.0,0.0,1.0,-0.304878056049,-1.8902438879,-0.243902444839,1.0,0.0,0.0,0.0,1.0,0.0,0.0,0.0,1.0,-0.201112939453,-0.699106884766,10.1945106689,1.0,0.0,0.0,0.0,1.0,0.0,0.0,0.0,1.0
1464109252201880784,324,1464109252197225954,,6.09523963928,-9.47652626038,-170.190048218,0.00145600002725,1.0,0.0,0.0,0.0,1.0,0.0,0.0,0.0,1.0,-0.670731723309,-2.31707310677,0.12195122242,1.0,0.0,0.0,0.0,1.0,0.0,0.0,0.0,1.0,-0.15322890625,-0.742202514648,10.2807019287,1.0,0.0,0.0,0.0,1.0,0.0,0.0,0.0,1.0
1464109252221844635,325,1464109252218099437,,6.0068359375,-9.47708320618,-170.176605225,0.00108800001908,1.0,0.0,0.0,0.0,1.0,0.0,0.0,0.0,1.0,-0.548780500889,-1.58536589146,-0.0609756112099,1.0,0.0,0.0,0.0,1.0,0.0,0.0,0.0,1.0,-0.0861912597656,-0.756567724609,10.165780249,1.0,0.0,0.0,0.0,1.0,0.0,0.0,0.0,1.0
1464109252243968375,326,1464109252239745001,,5.91585063934,-9.47299098969,-170.161712646,0.00166700000409,1.0,0.0,0.0,0.0,1.0,0.0,0.0,0.0,1.0,-0.487804889679,-1.09756100178,0.12195122242,1.0,0.0,0.0,0.0,1.0,0.0,0.0,0.0,1.0,0.0287304199219,-0.675164868164,10.3237975586,1.0,0.0,0.0,0.0,1.0,0.0,0.0,0.0,1.0
1464109252262479573,327,1464109252260391766,,5.8424539566,-9.47216033936,-170.155166626,0.00125199998729,1.0,0.0,0.0,0.0,1.0,0.0,0.0,0.0,1.0,-0.365853667259,0.243902444839,-0.243902444839,1.0,0.0,0.0,0.0,1.0,0.0,0.0,0.0,1.0,0.0335188255255,-0.756567724609,10.1514150391,1.0,0.0,0.0,0.0,1.0,0.0,0.0,0.0,1.0
1464109252284804927,328,1464109252281350614,,5.79441928864,-9.46799373627,-170.147644043,0.00119800004177,1.0,0.0,0.0,0.0,1.0,0.0,0.0,0.0,1.0,-0.18292683363,1.2804877758,0.0609756112099,1.0,0.0,0.0,0.0,1.0,0.0,0.0,0.0,1.0,-0.00478840332031,-0.598550451572,10.2902787354,1.0,0.0,0.0,0.0,1.0,0.0,0.0,0.0,1.0
1464109252304527737,329,1464109252302538263,,5.76583337784,-9.46751308441,-170.148162842,0.00140599999577,1.0,0.0,0.0,0.0,1.0,0.0,0.0,0.0,1.0,-0.426829278469,2.37804889679,-0.0609756112099,1.0,0.0,0.0,0.0,1.0,0.0,0.0,0.0,1.0,0.110133276367,-0.665588061523,10.2950671387,1.0,0.0,0.0,0.0,1.0,0.0,0.0,0.0,1.0
1464109252326110124,330,1464109252323213153,,5.76669597626,-9.46316623688,-170.145721436,0.00129000004381,1.0,0.0,0.0,0.0,1.0,0.0,0.0,0.0,1.0,-0.365853667259,4.39024400711,0.365853667259,1.0,0.0,0.0,0.0,1.0,0.0,0.0,0.0,1.0,0.196324536133,-0.60812722168,10.3764699951,1.0,0.0,0.0,0.0,1.0,0.0,0.0,0.0,1.0
1464109252345636945,331,1464109252343550805,,5.80367136002,-9.4603433609,-170.144638062,0.00123599998187,1.0,0.0,0.0,0.0,1.0,0.0,0.0,0.0,1.0,-0.609756112099,5.30487823486,0.0609756112099,1.0,0.0,0.0,0.0,1.0,0.0,0.0,0.0,1.0,0.0287304199219,-0.651222851562,10.2902787354,1.0,0.0,0.0,0.0,1.0,0.0,0.0,0.0,1.0
1464109252367022093,332,1464109252364832828,,5.8635263443,-9.46055030823,-170.159622192,0.00130100001115,1.0,0.0,0.0,0.0,1.0,0.0,0.0,0.0,1.0,-0.609756112099,5.73170757294,-0.243902444839,1.0,0.0,0.0,0.0,1.0,0.0,0.0,0.0,1.0,-0.0861912597656,-0.689530078125,10.2136642822,1.0,0.0,0.0,0.0,1.0,0.0,0.0,0.0,1.0
1464109252390170830,333,1464109252385138657,,5.94294214249,-9.46239757538,-170.172195435,0.000984000042081,1.0,0.0,0.0,0.0,1.0,0.0,0.0,0.0,1.0,-0.548780500889,7.25609779358,0.548780500889,1.0,0.0,0.0,0.0,1.0,0.0,0.0,0.0,1.0,-0.129286889648,-0.751779321289,10.1322614258,1.0,0.0,0.0,0.0,1.0,0.0,0.0,0.0,1.0
1464109252411613687,334,1464109252405484225,,6.04688453674,-9.4591999054,-170.169403076,0.00101999996696,1.0,0.0,0.0,0.0,1.0,0.0,0.0,0.0,1.0,-0.243902444839,8.04878044128,1.15853655338,1.0,0.0,0.0,0.0,1.0,0.0,0.0,0.0,1.0,-0.0478840332031,-0.699106884766,10.2328178955,1.0,0.0,0.0,0.0,1.0,0.0,0.0,0.0,1.0
1464109252432099515,335,1464109252426537864,,6.15734386444,-9.45605182648,-170.174789429,0.000997000024654,1.0,0.0,0.0,0.0,1.0,0.0,0.0,0.0,1.0,-0.487804889679,9.51219558716,0.731707334518,1.0,0.0,0.0,0.0,1.0,0.0,0.0,0.0,1.0,0.114921679688,-0.679953271484,10.299855542,1.0,0.0,0.0,0.0,1.0,0.0,0.0,0.0,1.0
1464109252455903719,336,1464109252447855409,,6.29629039764,-9.45348358154,-170.188491821,0.000966000021435,1.0,0.0,0.0,0.0,1.0,0.0,0.0,0.0,1.0,-0.670731723309,10.9146347046,0.18292683363,1.0,0.0,0.0,0.0,1.0,0.0,0.0,0.0,1.0,-0.0622492431641,-0.622492431641,10.2950671387,1.0,0.0,0.0,0.0,1.0,0.0,0.0,0.0,1.0
1464109252476484599,337,1464109252468554413,,6.47410154343,-9.45640945435,-170.21333313,0.000982000026852,1.0,0.0,0.0,0.0,1.0,0.0,0.0,0.0,1.0,-0.487804889679,11.5243911743,-0.18292683363,1.0,0.0,0.0,0.0,1.0,0.0,0.0,0.0,1.0,-0.268150604204,-0.670376464844,10.1897222656,1.0,0.0,0.0,0.0,1.0,0.0,0.0,0.0,1.0
1464109252497157198,338,1464109252489340761,,6.68353414536,-9.46114349365,-170.238311768,0.00110999995377,1.0,0.0,0.0,0.0,1.0,0.0,0.0,0.0,1.0,-0.670731723309,10.3658542633,0.243902444839,1.0,0.0,0.0,0.0,1.0,0.0,0.0,0.0,1.0,-0.526724328702,-0.703895288086,10.1897222656,1.0,0.0,0.0,0.0,1.0,0.0,0.0,0.0,1.0
1464109252517016361,339,1464109252510175338,,6.87937498093,-9.46566772461,-170.260406494,0.000972000008915,1.0,0.0,0.0,0.0,1.0,0.0,0.0,0.0,1.0,-0.548780500889,9.45121955872,0.548780500889,1.0,0.0,0.0,0.0,1.0,0.0,0.0,0.0,1.0,-0.732625708008,-0.780509741211,10.0700121826,1.0,0.0,0.0,0.0,1.0,0.0,0.0,0.0,1.0
1464109252535397247,340,1464109252531274811,,7.04802322388,-9.47107601166,-170.268234253,0.000974000024144,1.0,0.0,0.0,0.0,1.0,0.0,0.0,0.0,1.0,-0.426829278469,7.68292665482,0.914634168148,1.0,0.0,0.0,0.0,1.0,0.0,0.0,0.0,1.0,-0.588973571866,-0.670376464844,10.2040874756,1.0,0.0,0.0,0.0,1.0,0.0,0.0,0.0,1.0
1464109252556846562,341,1464109252552446262,,7.17987298965,-9.47571086884,-170.274429321,0.00111299997661,1.0,0.0,0.0,0.0,1.0,0.0,0.0,0.0,1.0,-0.670731723309,6.82926845551,0.18292683363,1.0,0.0,0.0,0.0,1.0,0.0,0.0,0.0,1.0,-0.497993945312,-0.694318481445,10.314220752,1.0,0.0,0.0,0.0,1.0,0.0,0.0,0.0,1.0
1464109252578704417,342,1464109252573299797,,7.27574586868,-9.47846221924,-170.276382446,0.000968999986071,1.0,0.0,0.0,0.0,1.0,0.0,0.0,0.0,1.0,-0.731707334518,5.85365867615,0.426829278469,1.0,0.0,0.0,0.0,1.0,0.0,0.0,0.0,1.0,-0.478840332031,-0.708683691406,10.165780249,1.0,0.0,0.0,0.0,1.0,0.0,0.0,0.0,1.0
1464109252598354258,343,1464109252594133020,,7.35997724533,-9.47863292694,-170.276016235,0.0010150000453,1.0,0.0,0.0,0.0,1.0,0.0,0.0,0.0,1.0,-0.609756112099,5.48780488968,0.487804889679,1.0,0.0,0.0,0.0,1.0,0.0,0.0,0.0,1.0,-0.61770402832,-0.627280834961,10.1897222656,1.0,0.0,0.0,0.0,1.0,0.0,0.0,0.0,1.0
1464109252618154776,344,1464109252614897754,,7.42444086075,-9.47349262238,-170.275085449,0.00109499995597,1.0,0.0,0.0,0.0,1.0,0.0,0.0,0.0,1.0,-0.304878056049,5.0,0.18292683363,1.0,0.0,0.0,0.0,1.0,0.0,0.0,0.0,1.0,-0.488417138672,-0.751779321289,10.1370498291,1.0,0.0,0.0,0.0,1.0,0.0,0.0,0.0,1.0
1464109252640085496,345,1464109252635897695,,7.48912334442,-9.47379779816,-170.276824951,0.00115200004075,1.0,0.0,0.0,0.0,1.0,0.0,0.0,0.0,1.0,-0.426829278469,4.51219558716,0.243902444839,1.0,0.0,0.0,0.0,1.0,0.0,0.0,0.0,1.0,-0.488417138672,-0.588973571866,10.2232410889,1.0,0.0,0.0,0.0,1.0,0.0,0.0,0.0,1.0
1464109252659423150,346,1464109252656533731,,7.54382801056,-9.47374725342,-170.272842407,0.001200000057,1.0,0.0,0.0,0.0,1.0,0.0,0.0,0.0,1.0,-0.487804889679,4.63414621353,0.548780500889,1.0,0.0,0.0,0.0,1.0,0.0,0.0,0.0,1.0,-0.502782348633,-0.670376464844,10.299855542,1.0,0.0,0.0,0.0,1.0,0.0,0.0,0.0,1.0
1464109252680708559,347,1464109252677332943,,7.59365177155,-9.47241401672,-170.27003479,0.00122800003737,1.0,0.0,0.0,0.0,1.0,0.0,0.0,0.0,1.0,-0.426829278469,5.36585378647,0.548780500889,1.0,0.0,0.0,0.0,1.0,0.0,0.0,0.0,1.0,-0.368707055664,-0.737414111328,10.2328178955,1.0,0.0,0.0,0.0,1.0,0.0,0.0,0.0,1.0
1464109252699990953,348,1464109252697939084,,7.65268278122,-9.47538757324,-170.266357422,0.00109799997881,1.0,0.0,0.0,0.0,1.0,0.0,0.0,0.0,1.0,-0.487804889679,5.54878091812,0.304878056049,1.0,0.0,0.0,0.0,1.0,0.0,0.0,0.0,1.0,-0.430956298828,-0.809240161133,10.2519715088,1.0,0.0,0.0,0.0,1.0,0.0,0.0,0.0,1.0
1464109252724869008,349,1464109252718680119,,7.71970844269,-9.4780216217,-170.273971558,0.00112200004514,1.0,0.0,0.0,0.0,1.0,0.0,0.0,0.0,1.0,-0.487804889679,6.09756088257,0.365853667259,1.0,0.0,0.0,0.0,1.0,0.0,0.0,0.0,1.0,-0.502782348633,-0.636857641602,10.0748005859,1.0,0.0,0.0,0.0,1.0,0.0,0.0,0.0,1.0
1464109252744609161,350,1464109252739443186,,7.80014467239,-9.48230934143,-170.281738281,0.00133999995887,1.0,0.0,0.0,0.0,1.0,0.0,0.0,0.0,1.0,-0.487804889679,5.97560977936,0.731707334518,1.0,0.0,0.0,0.0,1.0,0.0,0.0,0.0,1.0,-0.536301208408,-0.742202514648,10.2232410889,1.0,0.0,0.0,0.0,1.0,0.0,0.0,0.0,1.0
1464109252765219052,351,1464109252760492086,,7.88109493256,-9.48269271851,-170.285461426,0.00118999998085,1.0,0.0,0.0,0.0,1.0,0.0,0.0,0.0,1.0,-0.670731723309,4.81707286835,-0.12195122242,1.0,0.0,0.0,0.0,1.0,0.0,0.0,0.0,1.0,-0.536301208408,-0.794874951172,10.180145459,1.0,0.0,0.0,0.0,1.0,0.0,0.0,0.0,1.0
1464109252785024830,352,1464109252781702183,,7.94442987442,-9.48314666748,-170.29675293,0.00117499998305,1.0,0.0,0.0,0.0,1.0,0.0,0.0,0.0,1.0,-0.609756112099,4.2682929039,-0.426829278469,1.0,0.0,0.0,0.0,1.0,0.0,0.0,0.0,1.0,-0.660799658203,-0.737414111328,10.060435376,1.0,0.0,0.0,0.0,1.0,0.0,0.0,0.0,1.0
1464109252805805709,353,1464109252802506968,,7.9977645874,-9.48192310333,-170.302703857,0.0010150000453,1.0,0.0,0.0,0.0,1.0,0.0,0.0,0.0,1.0,-0.18292683363,3.53658556938,0.0609756112099,1.0,0.0,0.0,0.0,1.0,0.0,0.0,0.0,1.0,-0.814028564453,-0.732625708008,10.1992990723,1.0,0.0,0.0,0.0,1.0,0.0,0.0,0.0,1.0
1464109252826786536,354,1464109252823710086,,8.03478145599,-9.48375034332,-170.306564331,0.000988999963738,1.0,0.0,0.0,0.0,1.0,0.0,0.0,0.0,1.0,-0.609756112099,1.58536589146,-0.609756112099,1.0,0.0,0.0,0.0,1.0,0.0,0.0,0.0,1.0,-0.790086547852,-0.679953271484,10.2040874756,1.0,0.0,0.0,0.0,1.0,0.0,0.0,0.0,1.0
1464109252849366785,355,1464109252844678569,,8.0443277359,-9.48439979553,-170.30418396,0.00106899999082,1.0,0.0,0.0,0.0,1.0,0.0,0.0,0.0,1.0,-0.487804889679,1.15853655338,0.18292683363,1.0,0.0,0.0,0.0,1.0,0.0,0.0,0.0,1.0,-0.852335791016,-0.699106884766,10.180145459,1.0,0.0,0.0,0.0,1.0,0.0,0.0,0.0,1.0
1464109252870258654,356,1464109252865066741,,8.03225040436,-9.48252773285,-170.288024902,0.000959000026342,1.0,0.0,0.0,0.0,1.0,0.0,0.0,0.0,1.0,-0.18292683363,0.12195122242,0.0,1.0,0.0,0.0,0.0,1.0,0.0,0.0,0.0,1.0,-0.660799658203,-0.76135612793,10.2232410889,1.0,0.0,0.0,0.0,1.0,0.0,0.0,0.0,1.0
1464109252891502761,357,1464109252885932881,,7.99076986313,-9.48065853119,-170.274459839,0.000959999975748,1.0,0.0,0.0,0.0,1.0,0.0,0.0,0.0,1.0,-0.426829278469,-1.52439022064,-0.304878056049,1.0,0.0,0.0,0.0,1.0,0.0,0.0,0.0,1.0,-0.703895288086,-0.751779321289,10.299855542,1.0,0.0,0.0,0.0,1.0,0.0,0.0,0.0,1.0
1464109252911113071,358,1464109252907157821,,7.91364097595,-9.4789648056,-170.263046265,0.000972000008915,1.0,0.0,0.0,0.0,1.0,0.0,0.0,0.0,1.0,-0.548780500889,-1.58536589146,-0.243902444839,1.0,0.0,0.0,0.0,1.0,0.0,0.0,0.0,1.0,-0.507570751953,-0.684741674805,10.1466266357,1.0,0.0,0.0,0.0,1.0,0.0,0.0,0.0,1.0
1464109252930832390,359,1464109252927805940,,7.83148336411,-9.47238540649,-170.241088867,0.00106799998321,1.0,0.0,0.0,0.0,1.0,0.0,0.0,0.0,1.0,-0.243902444839,-2.13414645195,0.487804889679,1.0,0.0,0.0,0.0,1.0,0.0,0.0,0.0,1.0,-0.363918652344,-0.694318481445,10.2040874756,1.0,0.0,0.0,0.0,1.0,0.0,0.0,0.0,1.0
1464109252951774311,360,1464109252949328276,,7.74392414093,-9.46606063843,-170.219161987,0.00130100001115,1.0,0.0,0.0,0.0,1.0,0.0,0.0,0.0,1.0,-0.426829278469,-1.2195122242,0.18292683363,1.0,0.0,0.0,0.0,1.0,0.0,0.0,0.0,1.0,-0.330399829102,-0.718260498047,10.1514150391,1.0,0.0,0.0,0.0,1.0,0.0,0.0,0.0,1.0
1464109252973448677,361,1464109252970283165,,7.66512393951,-9.46001338959,-170.209899902,0.000965000013821,1.0,0.0,0.0,0.0,1.0,0.0,0.0,0.0,1.0,-0.487804889679,-2.01219511032,-0.914634168148,1.0,0.0,0.0,0.0,1.0,0.0,0.0,0.0,1.0,-0.526724328702,-0.636857641602,10.1418382324,1.0,0.0,0.0,0.0,1.0,0.0,0.0,0.0,1.0
1464109252996612362,362,1464109252990878733,,7.58566474915,-9.46064949036,-170.207443237,0.000975999981165,1.0,0.0,0.0,0.0,1.0,0.0,0.0,0.0,1.0,-0.18292683363,-1.52439022064,-0.18292683363,1.0,0.0,0.0,0.0,1.0,0.0,0.0,0.0,1.0,-0.521935925381,-0.679953271484,10.2471831055,1.0,0.0,0.0,0.0,1.0,0.0,0.0,0.0,1.0
1464109253020173026,363,1464109253011635289,,7.5117149353,-9.45603179932,-170.177597046,0.000956000003498,1.0,0.0,0.0,0.0,1.0,0.0,0.0,0.0,1.0,-0.487804889679,-0.792682945728,0.792682945728,1.0,0.0,0.0,0.0,1.0,0.0,0.0,0.0,1.0,-0.349553442383,-0.713472094727,10.0843773926,1.0,0.0,0.0,0.0,1.0,0.0,0.0,0.0,1.0
1464109253041289529,364,1464109253032637105,,7.43334960938,-9.45357894897,-170.157608032,0.000954999995884,1.0,0.0,0.0,0.0,1.0,0.0,0.0,0.0,1.0,-0.365853667259,-0.792682945728,-0.12195122242,1.0,0.0,0.0,0.0,1.0,0.0,0.0,0.0,1.0,-0.258573779297,-0.708683691406,10.2328178955,1.0,0.0,0.0,0.0,1.0,0.0,0.0,0.0,1.0
1464109253060247862,365,1464109253053688817,,7.35379648209,-9.45421981812,-170.155807495,0.000976999988779,1.0,0.0,0.0,0.0,1.0,0.0,0.0,0.0,1.0,-0.365853667259,0.0609756112099,-0.426829278469,1.0,0.0,0.0,0.0,1.0,0.0,0.0,0.0,1.0,-0.167594116211,-0.718260498047,10.3429511719,1.0,0.0,0.0,0.0,1.0,0.0,0.0,0.0,1.0
1464109253079890827,366,1464109253074261937,,7.31534719467,-9.45269680023,-170.150695801,0.00101999996696,1.0,0.0,0.0,0.0,1.0,0.0,0.0,0.0,1.0,-0.487804889679,0.609756112099,-0.0609756112099,1.0,0.0,0.0,0.0,1.0,0.0,0.0,0.0,1.0,-0.426167895508,-0.723048901367,10.2088758789,1.0,0.0,0.0,0.0,1.0,0.0,0.0,0.0,1.0
1464109253100112437,367,1464109253095987657,,7.28171682358,-9.44573974609,-170.142379761,0.00119500001892,1.0,0.0,0.0,0.0,1.0,0.0,0.0,0.0,1.0,-0.426829278469,0.304878056049,-0.12195122242,1.0,0.0,0.0,0.0,1.0,0.0,0.0,0.0,1.0,-0.488417138672,-0.61770402832,10.2232410889,1.0,0.0,0.0,0.0,1.0,0.0,0.0,0.0,1.0
1464109253123058779,368,1464109253116328746,,7.25008058548,-9.43986415863,-170.13142395,0.00121300003957,1.0,0.0,0.0,0.0,1.0,0.0,0.0,0.0,1.0,-0.426829278469,0.243902444839,0.12195122242,1.0,0.0,0.0,0.0,1.0,0.0,0.0,0.0,1.0,-0.387860668945,-0.703895288086,10.1562034424,1.0,0.0,0.0,0.0,1.0,0.0,0.0,0.0,1.0
1464109253140386752,369,1464109253137240146,,7.20782184601,-9.44003295898,-170.120040894,0.0039570000954,1.0,0.0,0.0,0.0,1.0,0.0,0.0,0.0,1.0,-0.243902444839,0.548780500889,0.0,1.0,0.0,0.0,0.0,1.0,0.0,0.0,0.0,1.0,-0.316034619141,-0.751779321289,10.2280294922,1.0,0.0,0.0,0.0,1.0,0.0,0.0,0.0,1.0
1464109253163657312,370,1464109253161110444,,7.16346740723,-9.44281482697,-170.113082886,0.00385700003244,1.0,0.0,0.0,0.0,1.0,0.0,0.0,0.0,1.0,-0.548780500889,1.15853655338,-0.12195122242,1.0,0.0,0.0,0.0,1.0,0.0,0.0,0.0,1.0,-0.196324536133,-0.665588061523,10.2136642822,1.0,0.0,0.0,0.0,1.0,0.0,0.0,0.0,1.0
1464109253189092709,371,1464109253182119812,,7.13945579529,-9.43938350677,-170.109939575,0.00128500000574,1.0,0.0,0.0,0.0,1.0,0.0,0.0,0.0,1.0,-0.548780500889,2.01219511032,0.12195122242,1.0,0.0,0.0,0.0,1.0,0.0,0.0,0.0,1.0,-0.277727392578,-0.670376464844,10.2232410889,1.0,0.0,0.0,0.0,1.0,0.0,0.0,0.0,1.0
1464109253204804957,372,1464109253203173295,,7.13276100159,-9.4377117157,-170.10647583,0.00113200000487,1.0,0.0,0.0,0.0,1.0,0.0,0.0,0.0,1.0,-0.426829278469,2.5,0.0609756112099,1.0,0.0,0.0,0.0,1.0,0.0,0.0,0.0,1.0,-0.316034619141,-0.689530078125,10.2328178955,1.0,0.0,0.0,0.0,1.0,0.0,0.0,0.0,1.0
1464109253232305870,373,1464109253224232455,,7.13994550705,-9.4316444397,-170.0987854,0.00121699995361,1.0,0.0,0.0,0.0,1.0,0.0,0.0,0.0,1.0,-0.304878056049,2.5,0.243902444839,1.0,0.0,0.0,0.0,1.0,0.0,0.0,0.0,1.0,-0.359130249023,-0.823605371094,10.0508585693,1.0,0.0,0.0,0.0,1.0,0.0,0.0,0.0,1.0
1464109253251489045,374,1464109253244888491,,7.14277029037,-9.43301296234,-170.096328735,0.0010150000453,1.0,0.0,0.0,0.0,1.0,0.0,0.0,0.0,1.0,-0.731707334518,2.56097555161,0.12195122242,1.0,0.0,0.0,0.0,1.0,0.0,0.0,0.0,1.0,-0.407014282227,-0.76135612793,10.2471831055,1.0,0.0,0.0,0.0,1.0,0.0,0.0,0.0,1.0
1464109253268912278,375,1464109253266122337,,7.15597248077,-9.43322086334,-170.089523315,0.00106899999082,1.0,0.0,0.0,0.0,1.0,0.0,0.0,0.0,1.0,-0.487804889679,2.68292689323,0.426829278469,1.0,0.0,0.0,0.0,1.0,0.0,0.0,0.0,1.0,-0.354341845703,-0.60812722168,10.1897222656,1.0,0.0,0.0,0.0,1.0,0.0,0.0,0.0,1.0
1464109253289564095,376,1464109253286603426,,7.16682243347,-9.43228626251,-170.087234497,0.00113500002772,1.0,0.0,0.0,0.0,1.0,0.0,0.0,0.0,1.0,-0.426829278469,2.80487799644,0.0,1.0,0.0,0.0,0.0,1.0,0.0,0.0,0.0,1.0,-0.330399829102,-0.632069238281,10.1370498291,1.0,0.0,0.0,0.0,1.0,0.0,0.0,0.0,1.0
1464109253311084503,377,1464109253307610451,,7.1797876358,-9.43316841125,-170.082229614,0.00101100001484,1.0,0.0,0.0,0.0,1.0,0.0,0.0,0.0,1.0,-0.609756112099,3.35365867615,0.365853667259,1.0,0.0,0.0,0.0,1.0,0.0,0.0,0.0,1.0,-0.272938989258,-0.708683691406,10.1992990723,1.0,0.0,0.0,0.0,1.0,0.0,0.0,0.0,1.0
1464109253335238707,378,1464109253329138932,,7.2048406601,-9.4325504303,-170.075881958,0.00126599997748,1.0,0.0,0.0,0.0,1.0,0.0,0.0,0.0,1.0,-0.487804889679,3.96341490746,0.18292683363,1.0,0.0,0.0,0.0,1.0,0.0,0.0,0.0,1.0,-0.45489831543,-0.651222851562,10.2088758789,1.0,0.0,0.0,0.0,1.0,0.0,0.0,0.0,1.0
1464109253352928136,379,1464109253350445018,,7.23789787292,-9.43394947052,-170.079528809,0.00119800004177,1.0,0.0,0.0,0.0,1.0,0.0,0.0,0.0,1.0,-0.304878056049,3.71951246262,-0.365853667259,1.0,0.0,0.0,0.0,1.0,0.0,0.0,0.0,1.0,-0.354341845703,-0.723048901367,10.1466266357,1.0,0.0,0.0,0.0,1.0,0.0,0.0,0.0,1.0
1464109253379153688,380,1464109253371414334,,7.27485847473,-9.43942737579,-170.082901001,0.00126299995463,1.0,0.0,0.0,0.0,1.0,0.0,0.0,0.0,1.0,-0.548780500889,4.57317066193,0.548780500889,1.0,0.0,0.0,0.0,1.0,0.0,0.0,0.0,1.0,-0.344765039063,-0.751779321289,10.2088758789,1.0,0.0,0.0,0.0,1.0,0.0,0.0,0.0,1.0
1464109253395660881,381,1464109253393287867,,7.3313627243,-9.43907260895,-170.076919556,0.00131800002418,1.0,0.0,0.0,0.0,1.0,0.0,0.0,0.0,1.0,-0.365853667259,4.93902444839,0.365853667259,1.0,0.0,0.0,0.0,1.0,0.0,0.0,0.0,1.0,-0.282515795898,-0.612915625,10.1562034424,1.0,0.0,0.0,0.0,1.0,0.0,0.0,0.0,1.0
1464109253416270615,382,1464109253414012965,,7.38411140442,-9.43376159668,-170.085021973,0.0010529999854,1.0,0.0,0.0,0.0,1.0,0.0,0.0,0.0,1.0,-0.548780500889,4.2682929039,-0.304878056049,1.0,0.0,0.0,0.0,1.0,0.0,0.0,0.0,1.0,-0.46447512207,-0.632069238281,10.2807019287,1.0,0.0,0.0,0.0,1.0,0.0,0.0,0.0,1.0
1464109253445168139,383,1464109253443594601,,7.44604063034,-9.43120193481,-170.088058472,0.00308499997482,1.0,0.0,0.0,0.0,1.0,0.0,0.0,0.0,1.0,-0.304878056049,4.93902444839,0.487804889679,1.0,0.0,0.0,0.0,1.0,0.0,0.0,0.0,1.0,-0.555454785156,-0.651222851562,10.1753570557,1.0,0.0,0.0,0.0,1.0,0.0,0.0,0.0,1.0
1464109253465843758,384,1464109253463794180,,7.51914644241,-9.43531894684,-170.082199097,0.00525199994445,1.0,0.0,0.0,0.0,1.0,0.0,0.0,0.0,1.0,-0.548780500889,3.84146332741,0.12195122242,1.0,0.0,0.0,0.0,1.0,0.0,0.0,0.0,1.0,-0.541089611728,-0.708683691406,10.2471831055,1.0,0.0,0.0,0.0,1.0,0.0,0.0,0.0,1.0
1464109253488916089,385,1464109253483445271,,7.5578455925,-9.44198799133,-170.084457397,0.00104300002567,1.0,0.0,0.0,0.0,1.0,0.0,0.0,0.0,1.0,-0.487804889679,3.23170733452,0.0,1.0,0.0,0.0,0.0,1.0,0.0,0.0,0.0,1.0,-0.588973571866,-0.76614453125,10.2184526855,1.0,0.0,0.0,0.0,1.0,0.0,0.0,0.0,1.0
1464109253508479472,386,1464109253504002557,,7.58558130264,-9.43652248383,-170.081802368,0.00108299998101,1.0,0.0,0.0,0.0,1.0,0.0,0.0,0.0,1.0,-0.731707334518,3.23170733452,0.18292683363,1.0,0.0,0.0,0.0,1.0,0.0,0.0,0.0,1.0,-0.536301208408,-0.684741674805,10.0843773926,1.0,0.0,0.0,0.0,1.0,0.0,0.0,0.0,1.0
1464109253526300672,387,1464109253524664947,,7.60590267181,-9.43341732025,-170.074417114,0.00108700001147,1.0,0.0,0.0,0.0,1.0,0.0,0.0,0.0,1.0,-0.548780500889,2.19512200356,0.12195122242,1.0,0.0,0.0,0.0,1.0,0.0,0.0,0.0,1.0,-0.565031591797,-0.723048901367,10.2232410889,1.0,0.0,0.0,0.0,1.0,0.0,0.0,0.0,1.0
1464109253547122905,388,1464109253545247963,,7.60386896133,-9.43396759033,-170.065856934,0.000969999993686,1.0,0.0,0.0,0.0,1.0,0.0,0.0,0.0,1.0,-0.548780500889,2.31707310677,0.487804889679,1.0,0.0,0.0,0.0,1.0,0.0,0.0,0.0,1.0,-0.469263525391,-0.775721337891,10.2328178955,1.0,0.0,0.0,0.0,1.0,0.0,0.0,0.0,1.0
1464109253569094354,389,1464109253567289620,,7.59773349762,-9.43347930908,-170.051116943,0.00156500004232,1.0,0.0,0.0,0.0,1.0,0.0,0.0,0.0,1.0,-0.487804889679,2.62195134163,0.18292683363,1.0,0.0,0.0,0.0,1.0,0.0,0.0,0.0,1.0,-0.411802685547,-0.727837304687,10.299855542,1.0,0.0,0.0,0.0,1.0,0.0,0.0,0.0,1.0
1464109253589274298,390,1464109253587690448,,7.59717321396,-9.43226718903,-170.050338745,0.00264799990691,1.0,0.0,0.0,0.0,1.0,0.0,0.0,0.0,1.0,-0.365853667259,2.31707310677,-0.487804889679,1.0,0.0,0.0,0.0,1.0,0.0,0.0,0.0,1.0,-0.478840332031,-0.670376464844,10.2567599121,1.0,0.0,0.0,0.0,1.0,0.0,0.0,0.0,1.0
1464109253610033094,391,1464109253608398411,,7.60081386566,-9.43531227112,-170.051620483,0.00103499996476,1.0,0.0,0.0,0.0,1.0,0.0,0.0,0.0,1.0,-0.670731723309,2.86585378647,0.12195122242,1.0,0.0,0.0,0.0,1.0,0.0,0.0,0.0,1.0,-0.402225878906,-0.818816967773,10.3190091553,1.0,0.0,0.0,0.0,1.0,0.0,0.0,0.0,1.0
1464109253630278714,392,1464109253628762364,,7.6236243248,-9.43455982208,-170.042449951,0.00106899999082,1.0,0.0,0.0,0.0,1.0,0.0,0.0,0.0,1.0,-0.243902444839,2.43902444839,0.609756112099,1.0,0.0,0.0,0.0,1.0,0.0,0.0,0.0,1.0,-0.579396801758,-0.660799658203,10.1514150391,1.0,0.0,0.0,0.0,1.0,0.0,0.0,0.0,1.0
1464109253652613704,393,1464109253650102148,,7.62697982788,-9.43715000153,-170.041625977,0.0016530000139,1.0,0.0,0.0,0.0,1.0,0.0,0.0,0.0,1.0,-0.426829278469,2.13414645195,-0.12195122242,1.0,0.0,0.0,0.0,1.0,0.0,0.0,0.0,1.0,-0.469263525391,-0.708683691406,10.2759135254,1.0,0.0,0.0,0.0,1.0,0.0,0.0,0.0,1.0
1464109253687314753,394,1464109253671418287,,7.62798404694,-9.43525695801,-170.034973145,0.00135999999475,1.0,0.0,0.0,0.0,1.0,0.0,0.0,0.0,1.0,-0.609756112099,2.56097555161,0.487804889679,1.0,0.0,0.0,0.0,1.0,0.0,0.0,0.0,1.0,-0.383072265625,-0.641646044922,10.165780249,1.0,0.0,0.0,0.0,1.0,0.0,0.0,0.0,1.0
1464109253694568326,395,1464109253692091041,,7.64004468918,-9.43437194824,-170.028182983,0.00122700002976,1.0,0.0,0.0,0.0,1.0,0.0,0.0,0.0,1.0,-0.853658556938,2.68292689323,-0.12195122242,1.0,0.0,0.0,0.0,1.0,0.0,0.0,0.0,1.0,-0.483628735352,-0.670376464844,10.2615483154,1.0,0.0,0.0,0.0,1.0,0.0,0.0,0.0,1.0
1464109253724255222,396,1464109253712624890,,7.64727115631,-9.43199825287,-170.029510498,0.00105700001586,1.0,0.0,0.0,0.0,1.0,0.0,0.0,0.0,1.0,-0.365853667259,2.01219511032,-0.0609756112099,1.0,0.0,0.0,0.0,1.0,0.0,0.0,0.0,1.0,-0.497993945312,-0.665588061523,10.2136642822,1.0,0.0,0.0,0.0,1.0,0.0,0.0,0.0,1.0
1464109253736030241,397,1464109253733908112,,7.6522321701,-9.43048000336,-170.023208618,0.0011269999668,1.0,0.0,0.0,0.0,1.0,0.0,0.0,0.0,1.0,-0.914634168148,2.68292689323,0.487804889679,1.0,0.0,0.0,0.0,1.0,0.0,0.0,0.0,1.0,-0.517147558594,-0.651222851562,10.165780249,1.0,0.0,0.0,0.0,1.0,0.0,0.0,0.0,1.0
1464109253756777319,398,1464109253755124250,,7.66659164429,-9.42949295044,-170.011184692,0.00115400005598,1.0,0.0,0.0,0.0,1.0,0.0,0.0,0.0,1.0,-0.609756112099,2.5,0.18292683363,1.0,0.0,0.0,0.0,1.0,0.0,0.0,0.0,1.0,-0.387860668945,-0.694318481445,10.0412817627,1.0,0.0,0.0,0.0,1.0,0.0,0.0,0.0,1.0
1464109253779801213,399,1464109253775955546,,7.67064428329,-9.4287481308,-170.007980347,0.00117499998305,1.0,0.0,0.0,0.0,1.0,0.0,0.0,0.0,1.0,-0.487804889679,2.62195134163,0.0,1.0,0.0,0.0,0.0,1.0,0.0,0.0,0.0,1.0,-0.46447512207,-0.703895288086,10.2184526855,1.0,0.0,0.0,0.0,1.0,0.0,0.0,0.0,1.0
1464109253800255947,400,1464109253797355486,,7.67607164383,-9.430768013,-170.008132935,0.00139200000558,1.0,0.0,0.0,0.0,1.0,0.0,0.0,0.0,1.0,-0.487804889679,1.8902438879,-0.243902444839,1.0,0.0,0.0,0.0,1.0,0.0,0.0,0.0,1.0,-0.598550451572,-0.660799658203,10.3190091553,1.0,0.0,0.0,0.0,1.0,0.0,0.0,0.0,1.0
1464109253821893699,401,1464109253819350841,,7.67905950546,-9.42967128754,-170.002044678,0.00146800000221,1.0,0.0,0.0,0.0,1.0,0.0,0.0,0.0,1.0,-0.548780500889,1.8292683363,0.243902444839,1.0,0.0,0.0,0.0,1.0,0.0,0.0,0.0,1.0,-0.550666381836,-0.699106884766,10.1035310059,1.0,0.0,0.0,0.0,1.0,0.0,0.0,0.0,1.0
1464109253842478485,402,1464109253839921982,,7.67185878754,-9.42733860016,-169.988861084,0.00154700002167,1.0,0.0,0.0,0.0,1.0,0.0,0.0,0.0,1.0,-0.304878056049,1.76829278469,0.426829278469,1.0,0.0,0.0,0.0,1.0,0.0,0.0,0.0,1.0,-0.378283862305,-0.61770402832,10.1274730225,1.0,0.0,0.0,0.0,1.0,0.0,0.0,0.0,1.0
1464109253863145302,403,1464109253860664736,,7.66143226624,-9.42562484741,-169.978851318,0.00130300002638,1.0,0.0,0.0,0.0,1.0,0.0,0.0,0.0,1.0,-0.304878056049,1.34146344662,-0.304878056049,1.0,0.0,0.0,0.0,1.0,0.0,0.0,0.0,1.0,-0.531512805087,-0.651222851562,10.2807019287,1.0,0.0,0.0,0.0,1.0,0.0,0.0,0.0,1.0
1464109253883668161,404,1464109253881614834,,7.64552593231,-9.42853832245,-169.980514526,0.00166900001932,1.0,0.0,0.0,0.0,1.0,0.0,0.0,0.0,1.0,-0.426829278469,0.914634168148,-0.426829278469,1.0,0.0,0.0,0.0,1.0,0.0,0.0,0.0,1.0,-0.622492431641,-0.694318481445,10.1992990723,1.0,0.0,0.0,0.0,1.0,0.0,0.0,0.0,1.0
1464109253904448051,405,1464109253902824670,,7.62932109833,-9.42928791046,-169.976608276,0.00134099996649,1.0,0.0,0.0,0.0,1.0,0.0,0.0,0.0,1.0,-0.426829278469,-0.365853667259,-0.243902444839,1.0,0.0,0.0,0.0,1.0,0.0,0.0,0.0,1.0,-0.565031591797,-0.723048901367,10.2328178955,1.0,0.0,0.0,0.0,1.0,0.0,0.0,0.0,1.0
1464109253926531010,406,1464109253923471696,,7.58743572235,-9.43161487579,-169.96182251,0.00124300003517,1.0,0.0,0.0,0.0,1.0,0.0,0.0,0.0,1.0,-0.487804889679,-0.670731723309,0.365853667259,1.0,0.0,0.0,0.0,1.0,0.0,0.0,0.0,1.0,-0.445321508789,-0.670376464844,10.2615483154,1.0,0.0,0.0,0.0,1.0,0.0,0.0,0.0,1.0
1464109253946455486,407,1464109253944168200,,7.5241689682,-9.42772102356,-169.937301636,0.000997000024654,1.0,0.0,0.0,0.0,1.0,0.0,0.0,0.0,1.0,-0.304878056049,-0.548780500889,0.18292683363,1.0,0.0,0.0,0.0,1.0,0.0,0.0,0.0,1.0,-0.359130249023,-0.665588061523,10.180145459,1.0,0.0,0.0,0.0,1.0,0.0,0.0,0.0,1.0
1464109253968525111,408,1464109253964861580,,7.44941473007,-9.42497158051,-169.926757812,0.00138599995989,1.0,0.0,0.0,0.0,1.0,0.0,0.0,0.0,1.0,-0.365853667259,-0.304878056049,-0.426829278469,1.0,0.0,0.0,0.0,1.0,0.0,0.0,0.0,1.0,-0.201112939453,-0.732625708008,10.2232410889,1.0,0.0,0.0,0.0,1.0,0.0,0.0,0.0,1.0
1464109253992470097,409,1464109253986219541,,7.39011049271,-9.42155361176,-169.922348022,0.00122700002976,1.0,0.0,0.0,0.0,1.0,0.0,0.0,0.0,1.0,-0.12195122242,1.58536589146,0.12195122242,1.0,0.0,0.0,0.0,1.0,0.0,0.0,0.0,1.0,-0.253785375977,-0.636857641602,10.3381627686,1.0,0.0,0.0,0.0,1.0,0.0,0.0,0.0,1.0
1464109254012240093,410,1464109254007034066,,7.36622285843,-9.4164686203,-169.914077759,0.00127500004601,1.0,0.0,0.0,0.0,1.0,0.0,0.0,0.0,1.0,-0.365853667259,1.52439022064,0.12195122242,1.0,0.0,0.0,0.0,1.0,0.0,0.0,0.0,1.0,-0.3064578125,-0.641646044922,10.3046439453,1.0,0.0,0.0,0.0,1.0,0.0,0.0,0.0,1.0
1464109254035007634,411,1464109254026912448,,7.35135316849,-9.4106798172,-169.911254883,0.000991999986582,1.0,0.0,0.0,0.0,1.0,0.0,0.0,0.0,1.0,-0.426829278469,2.07317066193,-0.0609756112099,1.0,0.0,0.0,0.0,1.0,0.0,0.0,0.0,1.0,-0.368707055664,-0.60812722168,10.1514150391,1.0,0.0,0.0,0.0,1.0,0.0,0.0,0.0,1.0
1464109254051415192,412,1464109254048462752,,7.35471153259,-9.4120349884,-169.9034729,0.00108600000385,1.0,0.0,0.0,0.0,1.0,0.0,0.0,0.0,1.0,-0.304878056049,2.56097555161,0.304878056049,1.0,0.0,0.0,0.0,1.0,0.0,0.0,0.0,1.0,-0.440533105469,-0.684741674805,10.2471831055,1.0,0.0,0.0,0.0,1.0,0.0,0.0,0.0,1.0
1464109254071270084,413,1464109254069026393,,7.35898399353,-9.41247081757,-169.900619507,0.00118599995039,1.0,0.0,0.0,0.0,1.0,0.0,0.0,0.0,1.0,-0.426829278469,2.5,-0.243902444839,1.0,0.0,0.0,0.0,1.0,0.0,0.0,0.0,1.0,-0.430956298828,-0.727837304687,10.1418382324,1.0,0.0,0.0,0.0,1.0,0.0,0.0,0.0,1.0
1464109254091735913,414,1464109254089640450,,7.36487817764,-9.40524196625,-169.894195557,0.00122600002214,1.0,0.0,0.0,0.0,1.0,0.0,0.0,0.0,1.0,-0.426829278469,3.10975623131,0.487804889679,1.0,0.0,0.0,0.0,1.0,0.0,0.0,0.0,1.0,-0.3064578125,-0.61770402832,10.1562034424,1.0,0.0,0.0,0.0,1.0,0.0,0.0,0.0,1.0
1464109254112808458,415,1464109254110446068,,7.3759059906,-9.38830375671,-169.881256104,0.00118200003635,1.0,0.0,0.0,0.0,1.0,0.0,0.0,0.0,1.0,1.03658533096,2.80487799644,0.731707334518,1.0,0.0,0.0,0.0,1.0,0.0,0.0,0.0,1.0,-0.210689746094,-0.440533105469,10.2136642822,1.0,0.0,0.0,0.0,1.0,0.0,0.0,0.0,1.0
1464109254136019226,416,1464109254131726686,,7.39981031418,-9.36767482758,-169.873428345,0.001111999969,1.0,0.0,0.0,0.0,1.0,0.0,0.0,0.0,1.0,1.40243899822,5.0,0.609756112099,1.0,0.0,0.0,0.0,1.0,0.0,0.0,0.0,1.0,-0.196324536133,-0.60812722168,10.2615483154,1.0,0.0,0.0,0.0,1.0,0.0,0.0,0.0,1.0
1464109254156248284,417,1464109254152836679,,7.45074605942,-9.32953357697,-169.881332397,0.000959000026342,1.0,0.0,0.0,0.0,1.0,0.0,0.0,0.0,1.0,0.670731723309,6.58536624908,0.18292683363,1.0,0.0,0.0,0.0,1.0,0.0,0.0,0.0,1.0,-0.474051928711,-0.651222851562,10.2519715088,1.0,0.0,0.0,0.0,1.0,0.0,0.0,0.0,1.0
1464109254176720571,418,1464109254174871565,,7.52507257462,-9.30159664154,-169.888702393,0.00108099996578,1.0,0.0,0.0,0.0,1.0,0.0,0.0,0.0,1.0,0.487804889679,7.19512224197,0.548780500889,1.0,0.0,0.0,0.0,1.0,0.0,0.0,0.0,1.0,-0.272938989258,-0.584185168546,10.314220752,1.0,0.0,0.0,0.0,1.0,0.0,0.0,0.0,1.0
1464109254198910196,419,1464109254196149058,,7.63393735886,-9.2982301712,-169.890686035,0.00136999995448,1.0,0.0,0.0,0.0,1.0,0.0,0.0,0.0,1.0,-0.609756112099,8.41463470459,0.426829278469,1.0,0.0,0.0,0.0,1.0,0.0,0.0,0.0,1.0,-0.378283862305,-0.651222851562,10.3046439453,1.0,0.0,0.0,0.0,1.0,0.0,0.0,0.0,1.0
1464109254222448099,420,1464109254216568428,,7.7494969368,-9.30061912537,-169.892868042,0.00119199999608,1.0,0.0,0.0,0.0,1.0,0.0,0.0,0.0,1.0,-0.0609756112099,8.65853691101,0.853658556938,1.0,0.0,0.0,0.0,1.0,0.0,0.0,0.0,1.0,-0.134075302102,-0.469263525391,10.2423947021,1.0,0.0,0.0,0.0,1.0,0.0,0.0,0.0,1.0
1464109254240593100,421,1464109254237388682,,7.88636016846,-9.30753326416,-169.901931763,0.00118000002112,1.0,0.0,0.0,0.0,1.0,0.0,0.0,0.0,1.0,-0.975609779358,10.6097564697,0.670731723309,1.0,0.0,0.0,0.0,1.0,0.0,0.0,0.0,1.0,-0.402225878906,-0.670376464844,10.2423947021,1.0,0.0,0.0,0.0,1.0,0.0,0.0,0.0,1.0
1464109254261973457,422,1464109254259014194,,8.05306434631,-9.31736469269,-169.918380737,0.00139600003604,1.0,0.0,0.0,0.0,1.0,0.0,0.0,0.0,1.0,-0.609756112099,11.4634151459,0.487804889679,1.0,0.0,0.0,0.0,1.0,0.0,0.0,0.0,1.0,-0.426167895508,-0.651222851562,10.3764699951,1.0,0.0,0.0,0.0,1.0,0.0,0.0,0.0,1.0
1464109254282766107,423,1464109254279802053,,8.24995708466,-9.32888317108,-169.937942505,0.00131500000134,1.0,0.0,0.0,0.0,1.0,0.0,0.0,0.0,1.0,-0.304878056049,12.3170728683,0.609756112099,1.0,0.0,0.0,0.0,1.0,0.0,0.0,0.0,1.0,-0.497993945312,-0.814028564453,10.2902787354,1.0,0.0,0.0,0.0,1.0,0.0,0.0,0.0,1.0
1464109254306464947,424,1464109254300784338,,8.46163463593,-9.34154415131,-169.958099365,0.00143599999137,1.0,0.0,0.0,0.0,1.0,0.0,0.0,0.0,1.0,-0.853658556938,12.6829271317,0.18292683363,1.0,0.0,0.0,0.0,1.0,0.0,0.0,0.0,1.0,-0.708683691406,-0.670376464844,10.1945106689,1.0,0.0,0.0,0.0,1.0,0.0,0.0,0.0,1.0
1464109254327647388,425,1464109254321852508,,8.68783950806,-9.35007095337,-169.981292725,0.00104200001806,1.0,0.0,0.0,0.0,1.0,0.0,0.0,0.0,1.0,-0.426829278469,11.341463089,0.304878056049,1.0,0.0,0.0,0.0,1.0,0.0,0.0,0.0,1.0,-0.890643017578,-0.718260498047,10.0556469727,1.0,0.0,0.0,0.0,1.0,0.0,0.0,0.0,1.0
1464109254345655358,426,1464109254342889324,,8.88460636139,-9.35603237152,-170.00163269,0.00107899995055,1.0,0.0,0.0,0.0,1.0,0.0,0.0,0.0,1.0,-0.487804889679,10.4878053665,0.365853667259,1.0,0.0,0.0,0.0,1.0,0.0,0.0,0.0,1.0,-0.861912597656,-0.742202514648,10.1753570557,1.0,0.0,0.0,0.0,1.0,0.0,0.0,0.0,1.0
1464109254366765247,427,1464109254363417288,,9.0648355484,-9.36145782471,-170.016159058,0.00118300004397,1.0,0.0,0.0,0.0,1.0,0.0,0.0,0.0,1.0,-0.487804889679,10.3048782349,0.670731723309,1.0,0.0,0.0,0.0,1.0,0.0,0.0,0.0,1.0,-0.92416184082,-0.675164868164,10.1370498291,1.0,0.0,0.0,0.0,1.0,0.0,0.0,0.0,1.0
1464109254386741858,428,1464109254383849626,,9.22465610504,-9.36503887177,-170.027099609,0.00112000002991,1.0,0.0,0.0,0.0,1.0,0.0,0.0,0.0,1.0,-0.548780500889,9.75609779358,0.243902444839,1.0,0.0,0.0,0.0,1.0,0.0,0.0,0.0,1.0,-0.746990917969,-0.593762048251,10.3812583984,1.0,0.0,0.0,0.0,1.0,0.0,0.0,0.0,1.0
1464109254407804663,429,1464109254404711755,,9.3818063736,-9.37082195282,-170.048736572,0.00111800001469,1.0,0.0,0.0,0.0,1.0,0.0,0.0,0.0,1.0,-0.548780500889,9.26829242706,-0.243902444839,1.0,0.0,0.0,0.0,1.0,0.0,0.0,0.0,1.0,-0.823605371094,-0.684741674805,10.1992990723,1.0,0.0,0.0,0.0,1.0,0.0,0.0,0.0,1.0
1464109254429501478,430,1464109254425623259,,9.52158355713,-9.37616825104,-170.069976807,0.00096700002905,1.0,0.0,0.0,0.0,1.0,0.0,0.0,0.0,1.0,-0.365853667259,9.32926845551,-0.365853667259,1.0,0.0,0.0,0.0,1.0,0.0,0.0,0.0,1.0,-0.857124194336,-0.699106884766,10.1992990723,1.0,0.0,0.0,0.0,1.0,0.0,0.0,0.0,1.0
1464109254450321211,431,1464109254446337160,,9.67799472809,-9.37570476532,-170.080413818,0.000968999986071,1.0,0.0,0.0,0.0,1.0,0.0,0.0,0.0,1.0,-0.731707334518,9.93902492523,0.914634168148,1.0,0.0,0.0,0.0,1.0,0.0,0.0,0.0,1.0,-0.905008227539,-0.713472094727,9.99339772949,1.0,0.0,0.0,0.0,1.0,0.0,0.0,0.0,1.0
1464109254471270215,432,1464109254467809027,,9.8512172699,-9.3747882843,-170.08404541,0.00107799994294,1.0,0.0,0.0,0.0,1.0,0.0,0.0,0.0,1.0,-0.609756112099,10.0609760284,0.304878056049,1.0,0.0,0.0,0.0,1.0,0.0,0.0,0.0,1.0,-0.814028564453,-0.636857641602,10.2807019287,1.0,0.0,0.0,0.0,1.0,0.0,0.0,0.0,1.0
1464109254491577554,433,1464109254488412407,,10.0071344376,-9.37784767151,-170.100296021,0.0009710000013,1.0,0.0,0.0,0.0,1.0,0.0,0.0,0.0,1.0,-0.548780500889,8.35365867615,-0.487804889679,1.0,0.0,0.0,0.0,1.0,0.0,0.0,0.0,1.0,-1.01035310059,-0.641646044922,10.2136642822,1.0,0.0,0.0,0.0,1.0,0.0,0.0,0.0,1.0
1464109254520945805,434,1464109254510193960,,10.1378040314,-9.38545036316,-170.134613037,0.00185999996029,1.0,0.0,0.0,0.0,1.0,0.0,0.0,0.0,1.0,-0.609756112099,8.04878044128,-0.914634168148,1.0,0.0,0.0,0.0,1.0,0.0,0.0,0.0,1.0,-0.92416184082,-0.689530078125,10.1178962158,1.0,0.0,0.0,0.0,1.0,0.0,0.0,0.0,1.0
1464109254541958298,435,1464109254531227912,,10.2622842789,-9.39598655701,-170.156921387,0.00108199997339,1.0,0.0,0.0,0.0,1.0,0.0,0.0,0.0,1.0,-0.609756112099,6.58536624908,-0.487804889679,1.0,0.0,0.0,0.0,1.0,0.0,0.0,0.0,1.0,-1.01035310059,-0.694318481445,10.180145459,1.0,0.0,0.0,0.0,1.0,0.0,0.0,0.0,1.0
1464109254561975170,436,1464109254552623477,,10.3743238449,-9.40594577789,-170.180084229,0.00109200004954,1.0,0.0,0.0,0.0,1.0,0.0,0.0,0.0,1.0,-0.365853667259,5.0,-1.40243899822,1.0,0.0,0.0,0.0,1.0,0.0,0.0,0.0,1.0,-1.24498486328,-0.723048901367,10.165780249,1.0,0.0,0.0,0.0,1.0,0.0,0.0,0.0,1.0
1464109254577659761,437,1464109254574099511,,10.4488267899,-9.41990947723,-170.200714111,0.00106699997559,1.0,0.0,0.0,0.0,1.0,0.0,0.0,0.0,1.0,-0.304878056049,1.95121955872,-0.914634168148,1.0,0.0,0.0,0.0,1.0,0.0,0.0,0.0,1.0,-1.43173259277,-0.957680664062,10.1992990723,1.0,0.0,0.0,0.0,1.0,0.0,0.0,0.0,1.0
1464109254600711988,438,1464109254596153511,,10.4736995697,-9.42824077606,-170.20413208,0.00119800004177,1.0,0.0,0.0,0.0,1.0,0.0,0.0,0.0,1.0,-0.365853667259,-0.853658556938,-0.548780500889,1.0,0.0,0.0,0.0,1.0,0.0,0.0,0.0,1.0,-1.5322890625,-0.775721337891,10.0556469727,1.0,0.0,0.0,0.0,1.0,0.0,0.0,0.0,1.0
1464109254622258178,439,1464109254617247254,,10.424372673,-9.42344760895,-170.180236816,0.00136700004805,1.0,0.0,0.0,0.0,1.0,0.0,0.0,0.0,1.0,-0.548780500889,-2.5,0.853658556938,1.0,0.0,0.0,0.0,1.0,0.0,0.0,0.0,1.0,-1.1875240965,-0.598550451572,10.1705686523,1.0,0.0,0.0,0.0,1.0,0.0,0.0,0.0,1.0
1464109254647817117,440,1464109254639013339,,10.3288011551,-9.40851974487,-170.136566162,0.00172499998007,1.0,0.0,0.0,0.0,1.0,0.0,0.0,0.0,1.0,-0.304878056049,-4.51219558716,0.0609756112099,1.0,0.0,0.0,0.0,1.0,0.0,0.0,0.0,1.0,-1.11569797363,-0.574608398438,10.180145459,1.0,0.0,0.0,0.0,1.0,0.0,0.0,0.0,1.0
1464109254663657854,441,1464109254660126926,,10.1849737167,-9.39268398285,-170.11100769,0.00173899997026,1.0,0.0,0.0,0.0,1.0,0.0,0.0,0.0,1.0,-0.243902444839,-7.01219511032,-1.2195122242,1.0,0.0,0.0,0.0,1.0,0.0,0.0,0.0,1.0,-1.10133276367,-0.579396801758,10.2088758789,1.0,0.0,0.0,0.0,1.0,0.0,0.0,0.0,1.0
1464109254684532899,442,1464109254680200360,,10.0063838959,-9.38746643066,-170.090362549,0.00227000005543,1.0,0.0,0.0,0.0,1.0,0.0,0.0,0.0,1.0,0.12195122242,-8.04878044128,-0.487804889679,1.0,0.0,0.0,0.0,1.0,0.0,0.0,0.0,1.0,-1.10133276367,-0.646434448242,10.1322614258,1.0,0.0,0.0,0.0,1.0,0.0,0.0,0.0,1.0
1464109254703857272,443,1464109254701263998,,9.79864788055,-9.37955474854,-170.047180176,0.00197799992748,1.0,0.0,0.0,0.0,1.0,0.0,0.0,0.0,1.0,-0.304878056049,-9.02439117432,-0.0609756112099,1.0,0.0,0.0,0.0,1.0,0.0,0.0,0.0,1.0,-0.905008227539,-0.76614453125,10.2711251221,1.0,0.0,0.0,0.0,1.0,0.0,0.0,0.0,1.0
1464109254726298408,444,1464109254722699668,,9.55521297455,-9.37989902496,-170.005859375,0.00102399999741,1.0,0.0,0.0,0.0,1.0,0.0,0.0,0.0,1.0,-0.18292683363,-9.75609779358,-0.609756112099,1.0,0.0,0.0,0.0,1.0,0.0,0.0,0.0,1.0,-0.718260498047,-0.76135612793,10.0891657959,1.0,0.0,0.0,0.0,1.0,0.0,0.0,0.0,1.0
1464109254745922051,445,1464109254743455391,,9.28286552429,-9.37505531311,-169.969985962,0.00105099997018,1.0,0.0,0.0,0.0,1.0,0.0,0.0,0.0,1.0,-0.12195122242,-9.14634132385,-0.548780500889,1.0,0.0,0.0,0.0,1.0,0.0,0.0,0.0,1.0,-0.497993945312,-0.684741674805,10.2088758789,1.0,0.0,0.0,0.0,1.0,0.0,0.0,0.0,1.0
1464109254766689024,446,1464109254764128510,,9.0423078537,-9.36267280579,-169.933334351,0.00100199994631,1.0,0.0,0.0,0.0,1.0,0.0,0.0,0.0,1.0,-0.426829278469,-7.62195110321,-0.12195122242,1.0,0.0,0.0,0.0,1.0,0.0,0.0,0.0,1.0,-0.488417138672,-0.703895288086,10.2232410889,1.0,0.0,0.0,0.0,1.0,0.0,0.0,0.0,1.0
1464109254787258810,447,1464109254784764077,,8.82683086395,-9.35452747345,-169.902740479,0.00111099996138,1.0,0.0,0.0,0.0,1.0,0.0,0.0,0.0,1.0,-0.243902444839,-6.70731735229,-0.731707334518,1.0,0.0,0.0,0.0,1.0,0.0,0.0,0.0,1.0,-0.493205541992,-0.641646044922,10.2088758789,1.0,0.0,0.0,0.0,1.0,0.0,0.0,0.0,1.0
1464109254810951764,448,1464109254805281468,,8.63306522369,-9.34191608429,-169.882629395,0.00100299995393,1.0,0.0,0.0,0.0,1.0,0.0,0.0,0.0,1.0,-0.670731723309,-6.21951246262,-0.487804889679,1.0,0.0,0.0,0.0,1.0,0.0,0.0,0.0,1.0,-0.598550451572,-0.641646044922,10.165780249,1.0,0.0,0.0,0.0,1.0,0.0,0.0,0.0,1.0
1464109254829111609,449,1464109254826421252,,8.44579982758,-9.32882881165,-169.852645874,0.00133899995126,1.0,0.0,0.0,0.0,1.0,0.0,0.0,0.0,1.0,-0.365853667259,-5.24390268326,0.0609756112099,1.0,0.0,0.0,0.0,1.0,0.0,0.0,0.0,1.0,-0.354341845703,-0.651222851562,10.1897222656,1.0,0.0,0.0,0.0,1.0,0.0,0.0,0.0,1.0
1464109254849770875,450,1464109254847535152,,8.28317165375,-9.31792163849,-169.821014404,0.000959000026342,1.0,0.0,0.0,0.0,1.0,0.0,0.0,0.0,1.0,-0.304878056049,-4.02439022064,-0.12195122242,1.0,0.0,0.0,0.0,1.0,0.0,0.0,0.0,1.0,-0.248996972656,-0.665588061523,10.2328178955,1.0,0.0,0.0,0.0,1.0,0.0,0.0,0.0,1.0
1464109254871452220,451,1464109254868193115,,8.14175319672,-9.31629085541,-169.800643921,0.00101300003007,1.0,0.0,0.0,0.0,1.0,0.0,0.0,0.0,1.0,-0.365853667259,-2.68292689323,-0.426829278469,1.0,0.0,0.0,0.0,1.0,0.0,0.0,0.0,1.0,-0.292092584273,-0.718260498047,10.2184526855,1.0,0.0,0.0,0.0,1.0,0.0,0.0,0.0,1.0
1464109254892551380,452,1464109254889559513,,8.02760696411,-9.31809806824,-169.786987305,0.00116800004616,1.0,0.0,0.0,0.0,1.0,0.0,0.0,0.0,1.0,-0.792682945728,-2.43902444839,-0.487804889679,1.0,0.0,0.0,0.0,1.0,0.0,0.0,0.0,1.0,-0.622492431641,-0.723048901367,10.1562034424,1.0,0.0,0.0,0.0,1.0,0.0,0.0,0.0,1.0
1464109254915306056,453,1464109254910341955,,7.93908882141,-9.31095123291,-169.780227661,0.000997000024654,1.0,0.0,0.0,0.0,1.0,0.0,0.0,0.0,1.0,-0.426829278469,-2.19512200356,-0.609756112099,1.0,0.0,0.0,0.0,1.0,0.0,0.0,0.0,1.0,-0.584185168546,-0.699106884766,10.2280294922,1.0,0.0,0.0,0.0,1.0,0.0,0.0,0.0,1.0
1464109254935904800,454,1464109254931000908,,7.85637569427,-9.30835056305,-169.76121521,0.00115799997002,1.0,0.0,0.0,0.0,1.0,0.0,0.0,0.0,1.0,-0.487804889679,-1.34146344662,0.670731723309,1.0,0.0,0.0,0.0,1.0,0.0,0.0,0.0,1.0,-0.435744702148,-0.670376464844,10.1897222656,1.0,0.0,0.0,0.0,1.0,0.0,0.0,0.0,1.0
1464109254954045166,455,1464109254951801110,,7.77471446991,-9.30149555206,-169.736709595,0.0010000000475,1.0,0.0,0.0,0.0,1.0,0.0,0.0,0.0,1.0,-0.426829278469,-1.70731711388,-0.304878056049,1.0,0.0,0.0,0.0,1.0,0.0,0.0,0.0,1.0,-0.373495458984,-0.727837304687,10.1274730225,1.0,0.0,0.0,0.0,1.0,0.0,0.0,0.0,1.0
1464109254977131404,456,1464109254973477560,,7.68229007721,-9.29863452911,-169.727172852,0.00176699995063,1.0,0.0,0.0,0.0,1.0,0.0,0.0,0.0,1.0,-0.12195122242,-0.609756112099,0.12195122242,1.0,0.0,0.0,0.0,1.0,0.0,0.0,0.0,1.0,-0.392649072266,-0.809240161133,10.314220752,1.0,0.0,0.0,0.0,1.0,0.0,0.0,0.0,1.0
1464109254998384000,457,1464109254994601928,,7.61508893967,-9.29694747925,-169.715087891,0.00119600002654,1.0,0.0,0.0,0.0,1.0,0.0,0.0,0.0,1.0,-0.12195122242,-0.243902444839,-0.12195122242,1.0,0.0,0.0,0.0,1.0,0.0,0.0,0.0,1.0,-0.426167895508,-0.713472094727,10.1226846191,1.0,0.0,0.0,0.0,1.0,0.0,0.0,0.0,1.0
1464109255023667628,458,1464109255016461866,,7.56833553314,-9.29476737976,-169.708679199,0.00148900004569,1.0,0.0,0.0,0.0,1.0,0.0,0.0,0.0,1.0,-0.609756112099,-0.731707334518,-0.365853667259,1.0,0.0,0.0,0.0,1.0,0.0,0.0,0.0,1.0,-0.502782348633,-0.627280834961,10.314220752,1.0,0.0,0.0,0.0,1.0,0.0,0.0,0.0,1.0
1464109255043156896,459,1464109255037753421,,7.51234483719,-9.28391075134,-169.694839478,0.00156100001186,1.0,0.0,0.0,0.0,1.0,0.0,0.0,0.0,1.0,-1.03658533096,-0.731707334518,0.365853667259,1.0,0.0,0.0,0.0,1.0,0.0,0.0,0.0,1.0,-0.373495458984,-0.809240161133,10.2232410889,1.0,0.0,0.0,0.0,1.0,0.0,0.0,0.0,1.0
1464109255063737828,460,1464109255058226802,,7.46279287338,-9.27971553802,-169.677688599,0.00121000001673,1.0,0.0,0.0,0.0,1.0,0.0,0.0,0.0,1.0,-0.487804889679,-0.853658556938,0.243902444839,1.0,0.0,0.0,0.0,1.0,0.0,0.0,0.0,1.0,-0.378283862305,-0.713472094727,10.1083194092,1.0,0.0,0.0,0.0,1.0,0.0,0.0,0.0,1.0
1464109255083571262,461,1464109255079251170,,7.39460945129,-9.28335571289,-169.67024231,0.00131299998611,1.0,0.0,0.0,0.0,1.0,0.0,0.0,0.0,1.0,-0.18292683363,-1.52439022064,-0.609756112099,1.0,0.0,0.0,0.0,1.0,0.0,0.0,0.0,1.0,-0.521935925381,-0.794874951172,10.2423947021,1.0,0.0,0.0,0.0,1.0,0.0,0.0,0.0,1.0
1464109255103651779,462,1464109255100241476,,7.31916475296,-9.29211044312,-169.659713745,0.00174600002356,1.0,0.0,0.0,0.0,1.0,0.0,0.0,0.0,1.0,-0.487804889679,-1.95121955872,-0.243902444839,1.0,0.0,0.0,0.0,1.0,0.0,0.0,0.0,1.0,-0.497993945312,-0.76614453125,10.1897222656,1.0,0.0,0.0,0.0,1.0,0.0,0.0,0.0,1.0
1464109255124154273,463,1464109255120687981,,7.24223232269,-9.29233169556,-169.641296387,0.00195599999279,1.0,0.0,0.0,0.0,1.0,0.0,0.0,0.0,1.0,-0.18292683363,-2.68292689323,-0.0609756112099,1.0,0.0,0.0,0.0,1.0,0.0,0.0,0.0,1.0,-0.517147558594,-0.675164868164,10.2376062988,1.0,0.0,0.0,0.0,1.0,0.0,0.0,0.0,1.0
1464109255145368693,464,1464109255143611146,,7.12664270401,-9.29273796082,-169.619125366,0.00290299998596,1.0,0.0,0.0,0.0,1.0,0.0,0.0,0.0,1.0,-0.609756112099,-2.07317066193,0.365853667259,1.0,0.0,0.0,0.0,1.0,0.0,0.0,0.0,1.0,-0.201112939453,-0.660799658203,10.1705686523,1.0,0.0,0.0,0.0,1.0,0.0,0.0,0.0,1.0
1464109255167303319,465,1464109255165489314,,7.02340126038,-9.29031181335,-169.592407227,0.00148400000762,1.0,0.0,0.0,0.0,1.0,0.0,0.0,0.0,1.0,-0.426829278469,-1.46341466904,0.243902444839,1.0,0.0,0.0,0.0,1.0,0.0,0.0,0.0,1.0,-0.287304199219,-0.703895288086,10.2902787354,1.0,0.0,0.0,0.0,1.0,0.0,0.0,0.0,1.0
1464109255190528931,466,1464109255187056077,,6.93552398682,-9.28255653381,-169.587219238,0.00106299994513,1.0,0.0,0.0,0.0,1.0,0.0,0.0,0.0,1.0,-0.426829278469,-2.07317066193,-0.853658556938,1.0,0.0,0.0,0.0,1.0,0.0,0.0,0.0,1.0,-0.407014282227,-0.679953271484,10.2471831055,1.0,0.0,0.0,0.0,1.0,0.0,0.0,0.0,1.0
1464109255210291168,467,1464109255208368725,,6.85190439224,-9.29068374634,-169.586486816,0.00100899999961,1.0,0.0,0.0,0.0,1.0,0.0,0.0,0.0,1.0,-0.243902444839,-2.43902444839,-0.487804889679,1.0,0.0,0.0,0.0,1.0,0.0,0.0,0.0,1.0,-0.440533105469,-0.780509741211,10.2423947021,1.0,0.0,0.0,0.0,1.0,0.0,0.0,0.0,1.0
1464109255231615431,468,1464109255229564239,,6.77512741089,-9.28941917419,-169.563919067,0.00100100005511,1.0,0.0,0.0,0.0,1.0,0.0,0.0,0.0,1.0,-0.609756112099,-2.13414645195,0.243902444839,1.0,0.0,0.0,0.0,1.0,0.0,0.0,0.0,1.0,-0.325611425781,-0.421379492187,10.180145459,1.0,0.0,0.0,0.0,1.0,0.0,0.0,0.0,1.0
1464109255253753390,469,1464109255250108244,,6.67779016495,-8.75095367432,-169.531890869,0.000981000019237,1.0,0.0,0.0,0.0,1.0,0.0,0.0,0.0,1.0,-15.9146347046,-3.90243911743,5.42682933807,1.0,0.0,0.0,0.0,1.0,0.0,0.0,0.0,1.0,0.483628735352,4.46758029785,8.32224438618,1.0,0.0,0.0,0.0,1.0,0.0,0.0,0.0,1.0
1464109255276090463,470,1464109255270993654,,6.6025223732,-8.76995944977,-169.511581421,0.00130899995565,1.0,0.0,0.0,0.0,1.0,0.0,0.0,0.0,1.0,6.09756088257,0.0609756112099,-1.8902438879,1.0,0.0,0.0,0.0,1.0,0.0,0.0,0.0,1.0,-1.34554133301,0.0526724365234,11.4490723389,1.0,0.0,0.0,0.0,1.0,0.0,0.0,0.0,1.0
1464109255296725041,471,1464109255292369115,,6.42224359512,-8.79757595062,-169.461471558,0.00142999994569,1.0,0.0,0.0,0.0,1.0,0.0,0.0,0.0,1.0,-13.2926826477,0.853658556938,-5.85365867615,1.0,0.0,0.0,0.0,1.0,0.0,0.0,0.0,1.0,1.91536132812,-6.85699355469,18.7561758057,1.0,0.0,0.0,0.0,1.0,0.0,0.0,0.0,1.0
1464109255316471131,472,1464109255313382598,,6.40544891357,-7.72382736206,-169.527557373,0.00108199997339,1.0,0.0,0.0,0.0,1.0,0.0,0.0,0.0,1.0,-48.7804870605,-2.62195134163,-1.15853655338,1.0,0.0,0.0,0.0,1.0,0.0,0.0,0.0,1.0,-1.81959326172,3.25132585449,7.01501086426,1.0,0.0,0.0,0.0,1.0,0.0,0.0,0.0,1.0
1464109255339450546,473,1464109255335004569,,6.31405878067,-7.71515846252,-169.480529785,0.00117800000589,1.0,0.0,0.0,0.0,1.0,0.0,0.0,0.0,1.0,3.41463422775,0.853658556938,2.19512200356,1.0,0.0,0.0,0.0,1.0,0.0,0.0,0.0,1.0,-0.325611425781,2.10689731481,7.98705673828,1.0,0.0,0.0,0.0,1.0,0.0,0.0,0.0,1.0
1464109255361678817,474,1464109255355802740,,6.488468647,-7.85888719559,-169.421661377,0.00119700003415,1.0,0.0,0.0,0.0,1.0,0.0,0.0,0.0,1.0,-0.670731723309,1.52439022064,-9.26829242706,1.0,0.0,0.0,0.0,1.0,0.0,0.0,0.0,1.0,-3.71580097656,-13.0819178711,12.0715647705,1.0,0.0,0.0,0.0,1.0,0.0,0.0,0.0,1.0
1464109255384618649,475,1464109255378484343,,6.36559295654,-7.40591716766,-169.415740967,0.00209400011227,1.0,0.0,0.0,0.0,1.0,0.0,0.0,0.0,1.0,-1.40243899822,-1.40243899822,-1.76829278469,1.0,0.0,0.0,0.0,1.0,0.0,0.0,0.0,1.0,1.31202250977,2.12605122035,14.8919343262,1.0,0.0,0.0,0.0,1.0,0.0,0.0,0.0,1.0
1464109255403781512,476,1464109255399114441,,6.33030891418,-7.38027143478,-169.40423584,0.00130200001877,1.0,0.0,0.0,0.0,1.0,0.0,0.0,0.0,1.0,0.609756112099,2.74390244484,2.5,1.0,0.0,0.0,0.0,1.0,0.0,0.0,0.0,1.0,-0.244208569336,-2.38941340297,6.96712683105,1.0,0.0,0.0,0.0,1.0,0.0,0.0,0.0,1.0
1464109255425525409,477,1464109255420379382,,6.25649023056,-7.0980758667,-169.345428467,0.00243399990723,1.0,0.0,0.0,0.0,1.0,0.0,0.0,0.0,1.0,-14.6341466904,4.51219558716,1.03658533096,1.0,0.0,0.0,0.0,1.0,0.0,0.0,0.0,1.0,0.411802685547,1.36948334961,9.86411083984,1.0,0.0,0.0,0.0,1.0,0.0,0.0,0.0,1.0
1464109255443023746,478,1464109255440946408,,6.26783704758,-7.38541698456,-169.363998413,0.00187399995048,1.0,0.0,0.0,0.0,1.0,0.0,0.0,0.0,1.0,-3.96341490746,9.08536529541,-2.68292689323,1.0,0.0,0.0,0.0,1.0,0.0,0.0,0.0,1.0,-4.41490786133,-3.06936652832,8.45153127583,1.0,0.0,0.0,0.0,1.0,0.0,0.0,0.0,1.0
1464109255466039931,479,1464109255462318379,,6.2898850441,-7.09138298035,-169.307022095,0.00200399989262,1.0,0.0,0.0,0.0,1.0,0.0,0.0,0.0,1.0,-38.9634132385,6.15853643417,-1.58536589146,1.0,0.0,0.0,0.0,1.0,0.0,0.0,0.0,1.0,0.435744702148,2.88261879883,7.44596716309,1.0,0.0,0.0,0.0,1.0,0.0,0.0,0.0,1.0
1464109255486548259,480,1464109255484046391,,6.40010643005,-7.18868684769,-169.276596069,0.00220500002615,1.0,0.0,0.0,0.0,1.0,0.0,0.0,0.0,1.0,-1.76829278469,11.7682924271,1.8902438879,1.0,0.0,0.0,0.0,1.0,0.0,0.0,0.0,1.0,-0.0526724365234,3.6535517334,9.86889924316,1.0,0.0,0.0,0.0,1.0,0.0,0.0,0.0,1.0
1464109255506973671,481,1464109255504855135,,6.49641752243,-6.92696046829,-169.205032349,0.00110899994615,1.0,0.0,0.0,0.0,1.0,0.0,0.0,0.0,1.0,34.0243911743,2.62195134163,-0.18292683363,1.0,0.0,0.0,0.0,1.0,0.0,0.0,0.0,1.0,1.38384855957,1.75734401855,14.8871459229,1.0,0.0,0.0,0.0,1.0,0.0,0.0,0.0,1.0
1464109255527277260,482,1464109255525028360,,6.58985853195,-6.78868865967,-169.177688599,0.0010229999898,1.0,0.0,0.0,0.0,1.0,0.0,0.0,0.0,1.0,-19.3292694092,8.29268264771,-0.548780500889,1.0,0.0,0.0,0.0,1.0,0.0,0.0,0.0,1.0,1.20188930646,-1.80043964844,9.89762966309,1.0,0.0,0.0,0.0,1.0,0.0,0.0,0.0,1.0
1464109255548596992,483,1464109255545986010,,6.79743766785,-6.51162862778,-169.137512207,0.00103899999522,1.0,0.0,0.0,0.0,1.0,0.0,0.0,0.0,1.0,-15.0609760284,7.07317113876,5.67073154449,1.0,0.0,0.0,0.0,1.0,0.0,0.0,0.0,1.0,0.579396801758,5.07570751953,13.4171061035,1.0,0.0,0.0,0.0,1.0,0.0,0.0,0.0,1.0
1464109255571445574,484,1464109255567332981,,7.01082849503,-6.31314706802,-169.07194519,0.00107400002889,1.0,0.0,0.0,0.0,1.0,0.0,0.0,0.0,1.0,-9.32926845551,14.5121955872,1.03658533096,1.0,0.0,0.0,0.0,1.0,0.0,0.0,0.0,1.0,-1.5322890625,3.35667072754,8.26957253418,1.0,0.0,0.0,0.0,1.0,0.0,0.0,0.0,1.0
1464109255591426299,485,1464109255588924848,,7.15183973312,-6.21095895767,-168.995666504,0.00110200000927,1.0,0.0,0.0,0.0,1.0,0.0,0.0,0.0,1.0,26.2195129395,16.0365848541,-0.487804889679,1.0,0.0,0.0,0.0,1.0,0.0,0.0,0.0,1.0,-0.823605371094,-2.72938989258,14.4322476074,1.0,0.0,0.0,0.0,1.0,0.0,0.0,0.0,1.0
1464109255614487224,486,1464109255609969685,,7.43799495697,-5.65817260742,-168.92074585,0.00103499996476,1.0,0.0,0.0,0.0,1.0,0.0,0.0,0.0,1.0,-14.3292694092,13.9634151459,1.95121955872,1.0,0.0,0.0,0.0,1.0,0.0,0.0,0.0,1.0,1.07739082014,6.68939943848,10.4961800781,1.0,0.0,0.0,0.0,1.0,0.0,0.0,0.0,1.0
1464109255633593525,487,1464109255631103740,,7.58823680878,-5.37133598328,-168.786773682,0.00118499994278,1.0,0.0,0.0,0.0,1.0,0.0,0.0,0.0,1.0,35.9146347046,15.3048791885,-0.548780500889,1.0,0.0,0.0,0.0,1.0,0.0,0.0,0.0,1.0,2.33674067418,8.03015236816,11.2000753662,1.0,0.0,0.0,0.0,1.0,0.0,0.0,0.0,1.0
1464109255654738882,488,1464109255652477326,,7.90143156052,-5.43833017349,-168.732818604,0.00114099995699,1.0,0.0,0.0,0.0,1.0,0.0,0.0,0.0,1.0,42.134147644,7.86585378647,-0.609756112099,1.0,0.0,0.0,0.0,1.0,0.0,0.0,0.0,1.0,2.65277543945,-4.01747038574,16.2039568359,1.0,0.0,0.0,0.0,1.0,0.0,0.0,0.0,1.0
1464109255676325593,489,1464109255673575236,,8.31986618042,-5.16238641739,-168.700836182,0.000984000042081,1.0,0.0,0.0,0.0,1.0,0.0,0.0,0.0,1.0,-22.0121955872,21.7073173523,-2.68292689323,1.0,0.0,0.0,0.0,1.0,0.0,0.0,0.0,1.0,-0.938527050781,0.502782348633,10.2232410889,1.0,0.0,0.0,0.0,1.0,0.0,0.0,0.0,1.0
1464109255699191362,490,1464109255696623088,,8.69847774506,-5.06032848358,-168.695281982,0.00110999995377,1.0,0.0,0.0,0.0,1.0,0.0,0.0,0.0,1.0,31.8292694092,31.0365867615,-1.2804877758,1.0,0.0,0.0,0.0,1.0,0.0,0.0,0.0,1.0,-0.91458503418,2.26012636719,11.3820346924,1.0,0.0,0.0,0.0,1.0,0.0,0.0,0.0,1.0
1464109255717124333,491,1464109255715549233,,9.10725021362,-4.48002910614,-168.674102783,0.0011569999624,1.0,0.0,0.0,0.0,1.0,0.0,0.0,0.0,1.0,-0.18292683363,25.7317085266,-2.56097555161,1.0,0.0,0.0,0.0,1.0,0.0,0.0,0.0,1.0,-0.77093293457,7.22570061035,7.59919606934,1.0,0.0,0.0,0.0,1.0,0.0,0.0,0.0,1.0
1464109255739326042,492,1464109255738034587,,9.53214740753,-4.52839756012,-168.64666748,0.00115899997763,1.0,0.0,0.0,0.0,1.0,0.0,0.0,0.0,1.0,-5.0,30.6707305908,2.80487799644,1.0,0.0,0.0,0.0,1.0,0.0,0.0,0.0,1.0,1.30244570312,4.87459458008,9.66778688823,1.0,0.0,0.0,0.0,1.0,0.0,0.0,0.0,1.0
1464109255761029575,493,1464109255759562704,,10.2967500687,-4.25838088989,-168.640686035,0.0060279997997,1.0,0.0,0.0,0.0,1.0,0.0,0.0,0.0,1.0,9.63414573669,42.6219520569,-1.2195122242,1.0,0.0,0.0,0.0,1.0,0.0,0.0,0.0,1.0,-3.11725056152,5.17626398926,11.6166664551,1.0,0.0,0.0,0.0,1.0,0.0,0.0,0.0,1.0
1464109255787330074,494,1464109255781525923,,11.2647857666,-4.34357023239,-168.770187378,0.00177099998109,1.0,0.0,0.0,0.0,1.0,0.0,0.0,0.0,1.0,-10.2439022064,47.6829299927,-1.15853655338,1.0,0.0,0.0,0.0,1.0,0.0,0.0,0.0,1.0,-1.62805712891,-2.83952316895,14.3987287842,1.0,0.0,0.0,0.0,1.0,0.0,0.0,0.0,1.0
1464109255803611903,495,1464109255801404201,,12.1405286789,-4.09540510178,-168.909698486,0.00141300004907,1.0,0.0,0.0,0.0,1.0,0.0,0.0,0.0,1.0,6.21951246262,45.7317085266,-2.98780488968,1.0,0.0,0.0,0.0,1.0,0.0,0.0,0.0,1.0,3.94085593262,1.5322890625,20.719421167,1.0,0.0,0.0,0.0,1.0,0.0,0.0,0.0,1.0
1464109255829052770,496,1464109255823322838,,13.5401887894,-5.10504817963,-169.212432861,0.001511999988,1.0,0.0,0.0,0.0,1.0,0.0,0.0,0.0,1.0,-25.0,94.9390258789,11.5243911743,1.0,0.0,0.0,0.0,1.0,0.0,0.0,0.0,1.0,1.92014973145,-23.6595008057,28.3665012695,1.0,0.0,0.0,0.0,1.0,0.0,0.0,0.0,1.0
1464109255845144183,497,1464109255843677781,,14.3491506577,-3.34742021561,-169.585220337,0.00101600005291,1.0,0.0,0.0,0.0,1.0,0.0,0.0,0.0,1.0,-121.28049469,93.7195129395,-13.7195129395,1.0,0.0,0.0,0.0,1.0,0.0,0.0,0.0,1.0,-3.34230551758,4.80755722585,11.4825911621,1.0,0.0,0.0,0.0,1.0,0.0,0.0,0.0,1.0
1464109255867572870,498,1464109255864526577,,15.7047586441,-3.33540892601,-169.947219849,0.00110200000927,1.0,0.0,0.0,0.0,1.0,0.0,0.0,0.0,1.0,11.6463422775,80.9146347046,-9.75609779358,1.0,0.0,0.0,0.0,1.0,0.0,0.0,0.0,1.0,3.16992299805,10.7643306641,17.8320139648,1.0,0.0,0.0,0.0,1.0,0.0,0.0,0.0,1.0
1464109255887239378,499,1464109255885578236,,17.4622192383,-4.17799520493,-170.677093506,0.00114700000267,1.0,0.0,0.0,0.0,1.0,0.0,0.0,0.0,1.0,17.317073822,96.8292694092,-23.9024391174,1.0,0.0,0.0,0.0,1.0,0.0,0.0,0.0,1.0,-0.00478840332031,-12.4929442627,24.4352221436,1.0,0.0,0.0,0.0,1.0,0.0,0.0,0.0,1.0
1464109255908602443,500,1464109255906858177,,19.2872276306,-3.48927569389,-171.553939819,0.00136200000998,1.0,0.0,0.0,0.0,1.0,0.0,0.0,0.0,1.0,-8.29268264771,101.524391174,-52.134147644,1.0,0.0,0.0,0.0,1.0,0.0,0.0,0.0,1.0,-2.68150585937,1.14921679688,11.1569797363,1.0,0.0,0.0,0.0,1.0,0.0,0.0,0.0,1.0
1464109255930211132,501,1464109255928333898,,21.4989204407,-3.18513560295,-173.104263306,0.000960999983363,1.0,0.0,0.0,0.0,1.0,0.0,0.0,0.0,1.0,5.42682933807,132.012207031,-89.3902435303,1.0,0.0,0.0,0.0,1.0,0.0,0.0,0.0,1.0,-8.43237766255,11.8417214111,-14.8823575195,1.0,0.0,0.0,0.0,1.0,0.0,0.0,0.0,1.0
1464109255950380711,502,1464109255948785091,,23.6153850555,-3.5278403759,-174.818023682,0.00111599999946,1.0,0.0,0.0,0.0,1.0,0.0,0.0,0.0,1.0,86.7682952881,141.34147644,-114.756095886,1.0,0.0,0.0,0.0,1.0,0.0,0.0,0.0,1.0,-2.17872351074,7.60398447266,-10.3190091553,1.0,0.0,0.0,0.0,1.0,0.0,0.0,0.0,1.0
1464109255980511877,503,1464109255970116958,,26.0834331512,-5.79991865158,-177.6040802,0.00108199997339,1.0,0.0,0.0,0.0,1.0,0.0,0.0,0.0,1.0,107.256103516,144.756103516,-80.0,1.0,0.0,0.0,0.0,1.0,0.0,0.0,0.0,1.0,-12.4642138428,-14.4801316406,7.07726010742,1.0,0.0,0.0,0.0,1.0,0.0,0.0,0.0,1.0
1464109255992020907,504,1464109255990421537,,28.248085022,-5.69235420227,179.532424927,0.000961999990977,1.0,0.0,0.0,0.0,1.0,0.0,0.0,0.0,1.0,35.6097564697,130.975616455,-134.39024353,1.0,0.0,0.0,0.0,1.0,0.0,0.0,0.0,1.0,-1.27850368652,3.06936652832,17.9756660645,1.0,0.0,0.0,0.0,1.0,0.0,0.0,0.0,1.0
1464109256017234639,505,1464109256011568509,,30.5887050629,-6.44745540619,175.57611084,0.00096700002905,1.0,0.0,0.0,0.0,1.0,0.0,0.0,0.0,1.0,125.243904114,122.439033508,-145.731719971,1.0,0.0,0.0,0.0,1.0,0.0,0.0,0.0,1.0,-2.69108266602,-7.03895288086,6.83783994141,1.0,0.0,0.0,0.0,1.0,0.0,0.0,0.0,1.0
1464109256037724425,506,1464109256035609952,,32.7607803345,-6.41372394562,171.586959839,0.000953999988269,1.0,0.0,0.0,0.0,1.0,0.0,0.0,0.0,1.0,116.829269409,108.10975647,-157.621948242,1.0,0.0,0.0,0.0,1.0,0.0,0.0,0.0,1.0,1.21146604004,21.3371251953,8.74362446289,1.0,0.0,0.0,0.0,1.0,0.0,0.0,0.0,1.0
1464109256061069360,507,1464109256057120465,,34.924861908,-7.47530937195,165.655258179,0.0037579999771,1.0,0.0,0.0,0.0,1.0,0.0,0.0,0.0,1.0,90.8536605835,130.365859985,-224.329269409,1.0,0.0,0.0,0.0,1.0,0.0,0.0,0.0,1.0,-10.9798088135,16.7211032255,-4.86501777344,1.0,0.0,0.0,0.0,1.0,0.0,0.0,0.0,1.0
1464109256081747948,508,1464109256078813685,,36.2970466614,-8.49464511871,159.911514282,0.00236700009555,1.0,0.0,0.0,0.0,1.0,0.0,0.0,0.0,1.0,283.475616455,171.097564697,-224.024398804,1.0,0.0,0.0,0.0,1.0,0.0,0.0,0.0,1.0,16.1704391817,9.72045874023,0.210689746094,1.0,0.0,0.0,0.0,1.0,0.0,0.0,0.0,1.0
1464109256103376533,509,1464109256098741963,,36.8571243286,-8.59634017944,154.384170532,0.00136999995448,1.0,0.0,0.0,0.0,1.0,0.0,0.0,0.0,1.0,124.085365295,58.3536605835,-219.45123291,1.0,0.0,0.0,0.0,1.0,0.0,0.0,0.0,1.0,-3.95522114258,-1.65678754883,5.38695373535,1.0,0.0,0.0,0.0,1.0,0.0,0.0,0.0,1.0
1464109256123681737,510,1464109256120100341,,36.767829895,-8.54641532898,147.856140137,0.00170699995942,1.0,0.0,0.0,0.0,1.0,0.0,0.0,0.0,1.0,168.048782349,9.20731735229,-250.060974121,1.0,0.0,0.0,0.0,1.0,0.0,0.0,0.0,1.0,-15.0978356689,18.3443731201,-0.45968671875,1.0,0.0,0.0,0.0,1.0,0.0,0.0,0.0,1.0
1464109256143860118,511,1464109256140742002,,35.4937782288,-9.58636474609,141.94519043,0.00281099998392,1.0,0.0,0.0,0.0,1.0,0.0,0.0,0.0,1.0,229.39024353,-56.4634132385,-243.841461182,1.0,0.0,0.0,0.0,1.0,0.0,0.0,0.0,1.0,-7.11077893066,-1.69988317871,13.962984082,1.0,0.0,0.0,0.0,1.0,0.0,0.0,0.0,1.0
1464109256167766093,512,1464109256163147668,,34.2642822266,-10.3836050034,135.833694458,0.00294700008817,1.0,0.0,0.0,0.0,1.0,0.0,0.0,0.0,1.0,127.621963501,69.5121994019,-249.573165894,1.0,0.0,0.0,0.0,1.0,0.0,0.0,0.0,1.0,-31.3400997314,-28.0361014404,-29.0895501709,1.0,0.0,0.0,0.0,1.0,0.0,0.0,0.0,1.0
1464109256186221353,513,1464109256183114018,,30.6687450409,-7.77347278595,130.109100342,0.00126100005582,1.0,0.0,0.0,0.0,1.0,0.0,0.0,0.0,1.0,90.8536605835,-149.878051758,-238.414642334,1.0,0.0,0.0,0.0,1.0,0.0,0.0,0.0,1.0,-8.89685336914,27.3561481689,27.4231858154,1.0,0.0,0.0,0.0,1.0,0.0,0.0,0.0,1.0
1464109256207105618,514,1464109256204181407,,25.7011699677,-8.20925521851,125.177749634,0.00108600000385,1.0,0.0,0.0,0.0,1.0,0.0,0.0,0.0,1.0,87.3780517578,-191.829269409,-245.853652954,1.0,0.0,0.0,0.0,1.0,0.0,0.0,0.0,1.0,-7.59919606934,-5.60722028809,21.7632930908,1.0,0.0,0.0,0.0,1.0,0.0,0.0,0.0,1.0
1464109256234348979,515,1464109256224645308,,19.881193161,-7.5961689949,121.070762634,0.00100499996915,1.0,0.0,0.0,0.0,1.0,0.0,0.0,0.0,1.0,-40.0609741211,-281.768310547,-207.317077637,1.0,0.0,0.0,0.0,1.0,0.0,0.0,0.0,1.0,1.35032973633,-0.411802685547,14.575899707,1.0,0.0,0.0,0.0,1.0,0.0,0.0,0.0,1.0
1464109256248390086,516,1464109256245955822,,13.1216602325,-6.5338435173,117.698158264,0.0010379999876,1.0,0.0,0.0,0.0,1.0,0.0,0.0,0.0,1.0,-23.7195129395,-310.792694092,-209.451217651,1.0,0.0,0.0,0.0,1.0,0.0,0.0,0.0,1.0,-4.95599743652,4.3382934082,0.718260498047,1.0,0.0,0.0,0.0,1.0,0.0,0.0,0.0,1.0
1464109256269581433,517,1464109256266754097,,5.76046276093,-6.58258533478,114.672813416,0.000958000018727,1.0,0.0,0.0,0.0,1.0,0.0,0.0,0.0,1.0,-19.1463432312,-373.17074585,-175.60975647,1.0,0.0,0.0,0.0,1.0,0.0,0.0,0.0,1.0,-8.84896933594,-13.1776859375,6.90966599121,1.0,0.0,0.0,0.0,1.0,0.0,0.0,0.0,1.0
1464109256291586788,518,1464109256288508619,,-2.69363737106,-5.39150905609,112.365600586,0.00107899995055,1.0,0.0,0.0,0.0,1.0,0.0,0.0,0.0,1.0,-182.134155273,-323.414642334,-120.731712341,1.0,0.0,0.0,0.0,1.0,0.0,0.0,0.0,1.0,-10.9845972168,20.5470386475,-22.6204172852,1.0,0.0,0.0,0.0,1.0,0.0,0.0,0.0,1.0
1464109256313837507,519,1464109256309671581,,-12.4902086258,-5.32120752335,110.944732666,0.00106399995275,1.0,0.0,0.0,0.0,1.0,0.0,0.0,0.0,1.0,-60.5487823486,-465.243927002,-56.7073173523,1.0,0.0,0.0,0.0,1.0,0.0,0.0,0.0,1.0,-1.01992990723,10.3285859619,-12.2152168701,1.0,0.0,0.0,0.0,1.0,0.0,0.0,0.0,1.0
1464109256334480991,520,1464109256330382877,,-22.6278324127,-6.11212110519,110.456344604,0.00107700005174,1.0,0.0,0.0,0.0,1.0,0.0,0.0,0.0,1.0,-23.1097564697,-480.121948242,-49.7560997009,1.0,0.0,0.0,0.0,1.0,0.0,0.0,0.0,1.0,-1.66636435547,1.77649763184,-13.7475059326,1.0,0.0,0.0,0.0,1.0,0.0,0.0,0.0,1.0
1464109256356667179,521,1464109256351551516,,-32.9364242554,-7.37408447266,111.328453064,0.00101799995173,1.0,0.0,0.0,0.0,1.0,0.0,0.0,0.0,1.0,-34.2073173523,-475.365875244,-10.9756097794,1.0,0.0,0.0,0.0,1.0,0.0,0.0,0.0,1.0,1.59453830566,-0.421379492187,-8.46110808247,1.0,0.0,0.0,0.0,1.0,0.0,0.0,0.0,1.0
1464109256377385193,522,1464109256372583957,,-42.9293441772,-10.2792224884,114.443817139,0.00111099996138,1.0,0.0,0.0,0.0,1.0,0.0,0.0,0.0,1.0,18.3536586761,-533.658569336,56.1585388184,1.0,0.0,0.0,0.0,1.0,0.0,0.0,0.0,1.0,11.7124345215,-12.2678893066,-2.07337849156,1.0,0.0,0.0,0.0,1.0,0.0,0.0,0.0,1.0
1464109256395994204,523,1464109256393496398,,-53.0815048218,-13.8723812103,120.678451538,0.00101400003769,1.0,0.0,0.0,0.0,1.0,0.0,0.0,0.0,1.0,16.341463089,-450.487792969,148.17074585,1.0,0.0,0.0,0.0,1.0,0.0,0.0,0.0,1.0,43.1913979492,-24.6267582764,17.9900324435,1.0,0.0,0.0,0.0,1.0,0.0,0.0,0.0,1.0
1464109256418737630,524,1464109256414567589,,-60.0872535706,-16.9045543671,128.822662354,0.0012009999482,1.0,0.0,0.0,0.0,1.0,0.0,0.0,0.0,1.0,299.329284668,-267.865844727,82.9268341064,1.0,0.0,0.0,0.0,1.0,0.0,0.0,0.0,1.0,56.1967013672,-25.7999170898,21.6340062012,1.0,0.0,0.0,0.0,1.0,0.0,0.0,0.0,1.0
1464109256443342926,525,1464109256436485914,,-58.4561424255,-19.6967887878,136.71434021,0.00113600003533,1.0,0.0,0.0,0.0,1.0,0.0,0.0,0.0,1.0,137.987808228,273.963409424,212.439041138,1.0,0.0,0.0,0.0,1.0,0.0,0.0,0.0,1.0,35.2713765193,-23.0417967773,1.89141931152,1.0,0.0,0.0,0.0,1.0,0.0,0.0,0.0,1.0
1464109256461320584,526,1464109256457124762,,-51.9581375122,-14.7245512009,141.418701172,0.00301699992269,1.0,0.0,0.0,0.0,1.0,0.0,0.0,0.0,1.0,373.048797607,262.743896484,182.865859985,1.0,0.0,0.0,0.0,1.0,0.0,0.0,0.0,1.0,7.26400783691,16.3380321289,12.8424977051,1.0,0.0,0.0,0.0,1.0,0.0,0.0,0.0,1.0
1464109256483017033,527,1464109256479647668,,-45.0503311157,-13.332608223,147.942321777,0.00211100000888,1.0,0.0,0.0,0.0,1.0,0.0,0.0,0.0,1.0,324.207336426,181.95123291,294.939025879,1.0,0.0,0.0,0.0,1.0,0.0,0.0,0.0,1.0,-11.5592056152,-20.5326734375,18.9429223661,1.0,0.0,0.0,0.0,1.0,0.0,0.0,0.0,1.0
1464109256501986928,528,1464109256499361571,,-39.4518013,-8.05815887451,153.930374146,0.00124300003517,1.0,0.0,0.0,0.0,1.0,0.0,0.0,0.0,1.0,228.658554077,110.304878235,271.524414062,1.0,0.0,0.0,0.0,1.0,0.0,0.0,0.0,1.0,4.5489831543,62.4742981201,22.1272117432,1.0,0.0,0.0,0.0,1.0,0.0,0.0,0.0,1.0
1464109256524424574,529,1464109256521668956,,-33.9661331177,-9.09984302521,162.918548584,0.00229099998251,1.0,0.0,0.0,0.0,1.0,0.0,0.0,0.0,1.0,287.378051758,262.317077637,336.768310547,1.0,0.0,0.0,0.0,1.0,0.0,0.0,0.0,1.0,7.3789295166,-6.07648381348,-16.1560728027,1.0,0.0,0.0,0.0,1.0,0.0,0.0,0.0,1.0
1464109256548059299,530,1464109256544421966,,-29.2069816589,-7.3826212883,170.669158936,0.00252299988642,1.0,0.0,0.0,0.0,1.0,0.0,0.0,0.0,1.0,251.951217651,154.268295288,280.487792969,1.0,0.0,0.0,0.0,1.0,0.0,0.0,0.0,1.0,11.7220113281,31.2778504883,5.8705824707,1.0,0.0,0.0,0.0,1.0,0.0,0.0,0.0,1.0
1464109256569266636,531,1464109256566108259,,-24.0616188049,-6.78091144562,177.89151001,0.00172499998007,1.0,0.0,0.0,0.0,1.0,0.0,0.0,0.0,1.0,245.975616455,293.04876709,343.414642334,1.0,0.0,0.0,0.0,1.0,0.0,0.0,0.0,1.0,15.6389252441,-4.58250197754,19.8718737793,1.0,0.0,0.0,0.0,1.0,0.0,0.0,0.0,1.0
1464109256592272353,532,1464109256588802310,,-17.7294635773,-5.06515216827,-175.683731079,0.00168800004758,1.0,0.0,0.0,0.0,1.0,0.0,0.0,0.0,1.0,-25.975610733,244.45123291,283.719512939,1.0,0.0,0.0,0.0,1.0,0.0,0.0,0.0,1.0,-2.4277204834,8.18816967773,19.9820070557,1.0,0.0,0.0,0.0,1.0,0.0,0.0,0.0,1.0
1464109256611622038,533,1464109256609182670,,-9.19997882843,-2.43242430687,-170.384048462,0.00154800002929,1.0,0.0,0.0,0.0,1.0,0.0,0.0,0.0,1.0,156.646347046,645.731689453,204.695129395,1.0,0.0,0.0,0.0,1.0,0.0,0.0,0.0,1.0,0.378283862305,12.018892334,-27.4710698486,1.0,0.0,0.0,0.0,1.0,0.0,0.0,0.0,1.0
1464109256632105627,534,1464109256630041361,,-0.180403634906,-5.24997472763,-168.032623291,0.00148199999239,1.0,0.0,0.0,0.0,1.0,0.0,0.0,0.0,1.0,113.231712341,323.475616455,272.804901123,1.0,0.0,0.0,0.0,1.0,0.0,0.0,0.0,1.0,20.2645228516,-14.6860329834,-12.8137672852,1.0,0.0,0.0,0.0,1.0,0.0,0.0,0.0,1.0
1464109256658785239,535,1464109256651903957,,10.5830430984,-4.92380237579,-165.617950439,0.00734600005671,1.0,0.0,0.0,0.0,1.0,0.0,0.0,0.0,1.0,-54.6951217651,444.268310547,144.329269409,1.0,0.0,0.0,0.0,1.0,0.0,0.0,0.0,1.0,-4.46279189453,-10.3764699951,14.1497318115,1.0,0.0,0.0,0.0,1.0,0.0,0.0,0.0,1.0
1464109256678996797,536,1464109256671779422,,20.659362793,-4.00365638733,-163.502563477,0.00104700005613,1.0,0.0,0.0,0.0,1.0,0.0,0.0,0.0,1.0,-63.6585388184,508.292663574,99.7560958862,1.0,0.0,0.0,0.0,1.0,0.0,0.0,0.0,1.0,1.48919343262,1.64721074219,2.77727392578,1.0,0.0,0.0,0.0,1.0,0.0,0.0,0.0,1.0
1464109256698887054,537,1464109256692586864,,31.7768764496,-3.95327043533,-162.183639526,0.00112100003753,1.0,0.0,0.0,0.0,1.0,0.0,0.0,0.0,1.0,-64.634147644,538.170715332,73.3536605835,1.0,0.0,0.0,0.0,1.0,0.0,0.0,0.0,1.0,0.177170922852,-0.574608398438,-9.30386706685,1.0,0.0,0.0,0.0,1.0,0.0,0.0,0.0,1.0
1464109256716255651,538,1464109256713788263,,42.7091789246,-4.47308540344,-161.857421875,0.00155399995856,1.0,0.0,0.0,0.0,1.0,0.0,0.0,0.0,1.0,-31.8292694092,528.841430664,34.4512214661,1.0,0.0,0.0,0.0,1.0,0.0,0.0,0.0,1.0,7.18739338379,-1.01035310059,-1.94888015137,1.0,0.0,0.0,0.0,1.0,0.0,0.0,0.0,1.0
1464109256737334551,539,1464109256734702527,,54.4599113464,-6.44523143768,-163.6822052,0.00149900000542,1.0,0.0,0.0,0.0,1.0,0.0,0.0,0.0,1.0,-42.0121955872,461.82925415,-91.8902435303,1.0,0.0,0.0,0.0,1.0,0.0,0.0,0.0,1.0,-45.4515243164,9.33259748677,-25.5892273438,1.0,0.0,0.0,0.0,1.0,0.0,0.0,0.0,1.0
1464109256759366156,540,1464109256756369185,,59.2434539795,-14.7395420074,-172.512420654,0.00127600005362,1.0,0.0,0.0,0.0,1.0,0.0,0.0,0.0,1.0,-96.6463394165,385.975616455,-198.292694092,1.0,0.0,0.0,0.0,1.0,0.0,0.0,0.0,1.0,-49.4929367187,-18.866307913,22.2995942627,1.0,0.0,0.0,0.0,1.0,0.0,0.0,0.0,1.0
1464109256779779745,541,1464109256776719857,,59.3638305664,-14.3131847382,-179.64906311,0.00144999998156,1.0,0.0,0.0,0.0,1.0,0.0,0.0,0.0,1.0,571.95123291,14.7560987473,-112.682929993,1.0,0.0,0.0,0.0,1.0,0.0,0.0,0.0,1.0,10.2280294922,-17.415422876,33.3799595459,1.0,0.0,0.0,0.0,1.0,0.0,0.0,0.0,1.0
1464109256801208643,542,1464109256798267349,,54.9259910583,-15.6637763977,174.506317139,0.00143299996853,1.0,0.0,0.0,0.0,1.0,0.0,0.0,0.0,1.0,3.65853667259,-165.548782349,-301.097564697,1.0,0.0,0.0,0.0,1.0,0.0,0.0,0.0,1.0,-26.2165081787,-2.81079274902,22.6970317383,1.0,0.0,0.0,0.0,1.0,0.0,0.0,0.0,1.0
1464109256828027839,543,1464109256821633117,,47.8116722107,-13.7010831833,167.687973022,0.00120499997865,1.0,0.0,0.0,0.0,1.0,0.0,0.0,0.0,1.0,198.475616455,-225.304885864,-233.475631714,1.0,0.0,0.0,0.0,1.0,0.0,0.0,0.0,1.0,16.1369191895,1.41257897949,-4.61123239746,1.0,0.0,0.0,0.0,1.0,0.0,0.0,0.0,1.0
1464109256844619303,544,1464109256839873639,,42.0852890015,-10.5929632187,162.251174927,0.00147699995432,1.0,0.0,0.0,0.0,1.0,0.0,0.0,0.0,1.0,196.707321167,-188.048797607,-219.024398804,1.0,0.0,0.0,0.0,1.0,0.0,0.0,0.0,1.0,-14.0779057617,22.5342260254,-2.58094938965,1.0,0.0,0.0,0.0,1.0,0.0,0.0,0.0,1.0
1464109256864990652,545,1464109256860739414,,37.0251350403,-10.4471197128,157.167022705,0.00118400005158,1.0,0.0,0.0,0.0,1.0,0.0,0.0,0.0,1.0,157.439025879,-154.512207031,-233.048797607,1.0,0.0,0.0,0.0,1.0,0.0,0.0,0.0,1.0,-2.09732050817,-1.53707746582,3.96479794922,1.0,0.0,0.0,0.0,1.0,0.0,0.0,0.0,1.0
1464109256883403048,546,1464109256881196596,,32.5568809509,-9.32099437714,152.916717529,0.00143599999137,1.0,0.0,0.0,0.0,1.0,0.0,0.0,0.0,1.0,170.487808228,-222.621948242,-170.487808228,1.0,0.0,0.0,0.0,1.0,0.0,0.0,0.0,1.0,-4.18027580637,8.90164177246,9.20331118164,1.0,0.0,0.0,0.0,1.0,0.0,0.0,0.0,1.0
1464109256907136315,547,1464109256902740859,,26.9844741821,-8.4700345993,149.483062744,0.00147899996955,1.0,0.0,0.0,0.0,1.0,0.0,0.0,0.0,1.0,110.487808228,-247.926849365,-180.304885864,1.0,0.0,0.0,0.0,1.0,0.0,0.0,0.0,1.0,-2.75333190918,-6.21055910645,-21.8686379639,1.0,0.0,0.0,0.0,1.0,0.0,0.0,0.0,1.0
1464109256928111465,548,1464109256923099343,,21.0097045898,-7.91171550751,147.317337036,0.00116200000048,1.0,0.0,0.0,0.0,1.0,0.0,0.0,0.0,1.0,39.4512214661,-246.402450562,-145.731719971,1.0,0.0,0.0,0.0,1.0,0.0,0.0,0.0,1.0,-1.62805712891,11.0372696533,-4.45321508789,1.0,0.0,0.0,0.0,1.0,0.0,0.0,0.0,1.0
1464109256948029065,549,1464109256944120066,,14.8542232513,-7.34443616867,145.765655518,0.00119199999608,1.0,0.0,0.0,0.0,1.0,0.0,0.0,0.0,1.0,-29.6341457367,-268.658538818,-92.0121994019,1.0,0.0,0.0,0.0,1.0,0.0,0.0,0.0,1.0,4.51067592773,-4.89853659668,6.0812722168,1.0,0.0,0.0,0.0,1.0,0.0,0.0,0.0,1.0
1464109256969124423,550,1464109256965238080,,9.26093959808,-6.65501785278,144.684570312,0.00116099999286,1.0,0.0,0.0,0.0,1.0,0.0,0.0,0.0,1.0,-34.5731735229,-219.573165894,-80.792678833,1.0,0.0,0.0,0.0,1.0,0.0,0.0,0.0,1.0,1.66636435547,3.55778366699,-2.3415290775,1.0,0.0,0.0,0.0,1.0,0.0,0.0,0.0,1.0
1464109256991345923,551,1464109256986358333,,4.24508428574,-6.64379549026,143.909423828,0.00105099997018,1.0,0.0,0.0,0.0,1.0,0.0,0.0,0.0,1.0,-17.134147644,-215.731704712,-48.6585388184,1.0,0.0,0.0,0.0,1.0,0.0,0.0,0.0,1.0,2.62404501953,-1.45567460937,10.6781394043,1.0,0.0,0.0,0.0,1.0,0.0,0.0,0.0,1.0
1464109257012567270,552,1464109257006975723,,-0.145124599338,-6.57289648056,143.552368164,0.00107899995055,1.0,0.0,0.0,0.0,1.0,0.0,0.0,0.0,1.0,27.317073822,-198.597564697,-30.5487804413,1.0,0.0,0.0,0.0,1.0,0.0,0.0,0.0,1.0,-0.167594116211,0.129286889648,10.4147772217,1.0,0.0,0.0,0.0,1.0,0.0,0.0,0.0,1.0
1464109257034188043,553,1464109257028409830,,-4.21854686737,-6.61146831512,143.572921753,0.00106799998321,1.0,0.0,0.0,0.0,1.0,0.0,0.0,0.0,1.0,-13.841463089,-143.10975647,13.5365858078,1.0,0.0,0.0,0.0,1.0,0.0,0.0,0.0,1.0,-3.40455476074,-19.4504942871,42.3821577881,1.0,0.0,0.0,0.0,1.0,0.0,0.0,0.0,1.0
1464109257055533452,554,1464109257050114665,,-8.40899562836,-5.59048843384,143.909286499,0.00143299996853,1.0,0.0,0.0,0.0,1.0,0.0,0.0,0.0,1.0,-245.304901123,-135.121948242,6.58536624908,1.0,0.0,0.0,0.0,1.0,0.0,0.0,0.0,1.0,3.69664736328,10.8026378906,-17.9182052246,1.0,0.0,0.0,0.0,1.0,0.0,0.0,0.0,1.0
1464109257075199751,555,1464109257071076065,,-11.7504310608,-6.16607666016,144.793731689,0.00113099999726,1.0,0.0,0.0,0.0,1.0,0.0,0.0,0.0,1.0,139.024398804,-123.048789978,15.6707315445,1.0,0.0,0.0,0.0,1.0,0.0,0.0,0.0,1.0,-5.53060583496,8.64785698101,-4.71657697825,1.0,0.0,0.0,0.0,1.0,0.0,0.0,0.0,1.0
1464109257097178596,556,1464109257092052725,,-14.7645187378,-6.75769710541,145.692016602,0.0014230000088,1.0,0.0,0.0,0.0,1.0,0.0,0.0,0.0,1.0,32.865852356,-160.243896484,30.975610733,1.0,0.0,0.0,0.0,1.0,0.0,0.0,0.0,1.0,0.105344873047,-10.6063133545,9.40921193989,1.0,0.0,0.0,0.0,1.0,0.0,0.0,0.0,1.0
1464109257116599323,557,1464109257113502352,,-17.6549816132,-6.5893445015,146.869338989,0.00121799996123,1.0,0.0,0.0,0.0,1.0,0.0,0.0,0.0,1.0,-41.8292694092,-133.10975647,48.2926864624,1.0,0.0,0.0,0.0,1.0,0.0,0.0,0.0,1.0,-0.344765039063,-3.48595761719,9.11233151855,1.0,0.0,0.0,0.0,1.0,0.0,0.0,0.0,1.0
1464109257138372960,558,1464109257134211513,,-20.1700248718,-6.28495740891,148.449813843,0.00109799997881,1.0,0.0,0.0,0.0,1.0,0.0,0.0,0.0,1.0,43.2926864624,-134.817077637,62.8048782349,1.0,0.0,0.0,0.0,1.0,0.0,0.0,0.0,1.0,7.65186850586,2.3415290775,10.2423947021,1.0,0.0,0.0,0.0,1.0,0.0,0.0,0.0,1.0
1464109257159597223,559,1464109257155426454,,-22.4137916565,-7.06885147095,150.285888672,0.00118999998085,1.0,0.0,0.0,0.0,1.0,0.0,0.0,0.0,1.0,4.93902444839,-121.463417053,75.0609817505,1.0,0.0,0.0,0.0,1.0,0.0,0.0,0.0,1.0,-2.64319863281,-4.89374819336,5.27203205566,1.0,0.0,0.0,0.0,1.0,0.0,0.0,0.0,1.0
1464109257181282840,560,1464109257176479936,,-24.8225746155,-7.6950173378,152.560577393,0.001215999946,1.0,0.0,0.0,0.0,1.0,0.0,0.0,0.0,1.0,114.146339417,-116.097564697,68.5975570679,1.0,0.0,0.0,0.0,1.0,0.0,0.0,0.0,1.0,0.383072265625,-0.497993945312,22.1415769531,1.0,0.0,0.0,0.0,1.0,0.0,0.0,0.0,1.0
1464109257203051477,561,1464109257197168629,,-26.9190139771,-8.02815818787,155.123748779,0.00130799994804,1.0,0.0,0.0,0.0,1.0,0.0,0.0,0.0,1.0,-6.95121955872,-137.743896484,125.853660583,1.0,0.0,0.0,0.0,1.0,0.0,0.0,0.0,1.0,8.36534001606,-5.90888969727,9.13148513184,1.0,0.0,0.0,0.0,1.0,0.0,0.0,0.0,1.0
1464109257220257887,562,1464109257218759714,,-29.3081073761,-9.31638145447,158.104736328,0.00124600005802,1.0,0.0,0.0,0.0,1.0,0.0,0.0,0.0,1.0,120.548789978,-151.646347046,89.5731735229,1.0,0.0,0.0,0.0,1.0,0.0,0.0,0.0,1.0,-2.10210891149,5.36301171875,10.0317049561,1.0,0.0,0.0,0.0,1.0,0.0,0.0,0.0,1.0
1464109257243680061,563,1464109257239649083,,-31.9458885193,-10.8976049423,161.279464722,0.0015419999836,1.0,0.0,0.0,0.0,1.0,0.0,0.0,0.0,1.0,158.414642334,-100.121955872,71.707321167,1.0,0.0,0.0,0.0,1.0,0.0,0.0,0.0,1.0,-1.45567460937,-32.3696064453,-15.8974990234,1.0,0.0,0.0,0.0,1.0,0.0,0.0,0.0,1.0
1464109257264351826,564,1464109257260915169,,-34.9165687561,-9.84031200409,164.306777954,0.00129199994262,1.0,0.0,0.0,0.0,1.0,0.0,0.0,0.0,1.0,-58.9634132385,-179.39024353,84.207321167,1.0,0.0,0.0,0.0,1.0,0.0,0.0,0.0,1.0,-0.411802685547,-7.19697019043,7.09162531738,1.0,0.0,0.0,0.0,1.0,0.0,0.0,0.0,1.0
1464109257283503022,565,1464109257281832090,,-38.3316459656,-10.3537559509,167.797302246,0.0011569999624,1.0,0.0,0.0,0.0,1.0,0.0,0.0,0.0,1.0,37.134147644,-228.84147644,87.865852356,1.0,0.0,0.0,0.0,1.0,0.0,0.0,0.0,1.0,-3.23217224121,6.83783994141,-3.40934316406,1.0,0.0,0.0,0.0,1.0,0.0,0.0,0.0,1.0
1464109257304523380,566,1464109257302503542,,-42.6970863342,-11.981385231,171.470733643,0.00129399995785,1.0,0.0,0.0,0.0,1.0,0.0,0.0,0.0,1.0,61.1585350037,-216.89024353,89.3902435303,1.0,0.0,0.0,0.0,1.0,0.0,0.0,0.0,1.0,13.8767928223,2.53306535645,-8.24563051758,1.0,0.0,0.0,0.0,1.0,0.0,0.0,0.0,1.0
1464109257327958263,567,1464109257322967912,,-45.620929718,-14.2647304535,176.446426392,0.00127799995244,1.0,0.0,0.0,0.0,1.0,0.0,0.0,0.0,1.0,222.682937622,-72.134147644,113.475616455,1.0,0.0,0.0,0.0,1.0,0.0,0.0,0.0,1.0,6.46434448242,-16.0267870821,27.1215164062,1.0,0.0,0.0,0.0,1.0,0.0,0.0,0.0,1.0
1464109257348283102,568,1464109257344306550,,-46.1297607422,-14.6757965088,-179.082092285,0.00144100002944,1.0,0.0,0.0,0.0,1.0,0.0,0.0,0.0,1.0,264.939025879,2.98780488968,107.682929993,1.0,0.0,0.0,0.0,1.0,0.0,0.0,0.0,1.0,40.3039907471,-22.1272117432,22.3235362793,1.0,0.0,0.0,0.0,1.0,0.0,0.0,0.0,1.0
1464109257368301171,569,1464109257365203575,,-43.1770782471,-11.6538257599,-175.131866455,0.00106200005393,1.0,0.0,0.0,0.0,1.0,0.0,0.0,0.0,1.0,101.219512939,164.756103516,185.487808228,1.0,0.0,0.0,0.0,1.0,0.0,0.0,0.0,1.0,-0.330399829102,9.33259748677,-25.1486942383,1.0,0.0,0.0,0.0,1.0,0.0,0.0,0.0,1.0
1464109257390326369,570,1464109257386561588,,-40.6700286865,-11.5344228745,-171.294433594,0.00107999995816,1.0,0.0,0.0,0.0,1.0,0.0,0.0,0.0,1.0,239.512207031,45.1219520569,139.512191772,1.0,0.0,0.0,0.0,1.0,0.0,0.0,0.0,1.0,2.25533796387,10.5009684814,0.0574608398438,1.0,0.0,0.0,0.0,1.0,0.0,0.0,0.0,1.0
1464109257411195894,571,1464109257407155124,,-38.7893486023,-10.6237735748,-167.539962769,0.0010300000431,1.0,0.0,0.0,0.0,1.0,0.0,0.0,0.0,1.0,226.707321167,12.2560977936,162.012191772,1.0,0.0,0.0,0.0,1.0,0.0,0.0,0.0,1.0,-9.11233151855,6.83305153809,-4.93205541992,1.0,0.0,0.0,0.0,1.0,0.0,0.0,0.0,1.0
1464109257432152450,572,1464109257428244388,,-38.3188247681,-9.99907398224,-163.433258057,0.00108600000385,1.0,0.0,0.0,0.0,1.0,0.0,0.0,0.0,1.0,230.548782349,-0.914634168148,112.012199402,1.0,0.0,0.0,0.0,1.0,0.0,0.0,0.0,1.0,-12.9191121582,9.46667277974,0.627280834961,1.0,0.0,0.0,0.0,1.0,0.0,0.0,0.0,1.0
1464109257452529320,573,1464109257448905893,,-39.2209663391,-9.43859672546,-159.814483643,0.00104400003329,1.0,0.0,0.0,0.0,1.0,0.0,0.0,0.0,1.0,190.426834106,-111.28049469,105.121955872,1.0,0.0,0.0,0.0,1.0,0.0,0.0,0.0,1.0,15.4330239014,2.67671745605,5.68862314453,1.0,0.0,0.0,0.0,1.0,0.0,0.0,0.0,1.0
1464109257474082645,574,1464109257469969949,,-40.4306564331,-8.99255943298,-156.121124268,0.0010379999876,1.0,0.0,0.0,0.0,1.0,0.0,0.0,0.0,1.0,225.792694092,-48.7804870605,125.731704712,1.0,0.0,0.0,0.0,1.0,0.0,0.0,0.0,1.0,8.37970522602,12.152967627,15.5192151611,1.0,0.0,0.0,0.0,1.0,0.0,0.0,0.0,1.0
1464109257494052537,575,1464109257490564891,,-40.7676582336,-8.89270496368,-151.479293823,0.00101799995173,1.0,0.0,0.0,0.0,1.0,0.0,0.0,0.0,1.0,175.182922363,-1.8902438879,112.378051758,1.0,0.0,0.0,0.0,1.0,0.0,0.0,0.0,1.0,9.48582756206,-13.1633207275,8.82023891602,1.0,0.0,0.0,0.0,1.0,0.0,0.0,0.0,1.0
1464109257515578883,576,1464109257510984469,,-40.0866661072,-8.99081993103,-147.624404907,0.00102900003549,1.0,0.0,0.0,0.0,1.0,0.0,0.0,0.0,1.0,-21.8902435303,107.926834106,197.439025879,1.0,0.0,0.0,0.0,1.0,0.0,0.0,0.0,1.0,-10.0556469727,-9.55765361187,1.47482822266,1.0,0.0,0.0,0.0,1.0,0.0,0.0,0.0,1.0
1464109257539325379,577,1464109257533125084,,-39.4112586975,-7.30202484131,-143.575546265,0.00140199996531,1.0,0.0,0.0,0.0,1.0,0.0,0.0,0.0,1.0,191.158538818,-4.51219558716,88.1097640991,1.0,0.0,0.0,0.0,1.0,0.0,0.0,0.0,1.0,-0.584185168546,12.152967627,9.66299848491,1.0,0.0,0.0,0.0,1.0,0.0,0.0,0.0,1.0
1464109257557570953,578,1464109257553945078,,-38.4374885559,-7.36140012741,-140.387374878,0.00103100005072,1.0,0.0,0.0,0.0,1.0,0.0,0.0,0.0,1.0,139.939025879,29.6341457367,108.841461182,1.0,0.0,0.0,0.0,1.0,0.0,0.0,0.0,1.0,7.6853873291,-5.65510432129,6.60799658203,1.0,0.0,0.0,0.0,1.0,0.0,0.0,0.0,1.0
1464109257577604960,579,1464109257574465854,,-37.8309288025,-6.89607858658,-137.251022339,0.0010450000409,1.0,0.0,0.0,0.0,1.0,0.0,0.0,0.0,1.0,145.121963501,-2.80487799644,109.817077637,1.0,0.0,0.0,0.0,1.0,0.0,0.0,0.0,1.0,7.48906279297,-5.92325490723,9.7348239502,1.0,0.0,0.0,0.0,1.0,0.0,0.0,0.0,1.0
1464109257597708758,580,1464109257595332098,,-37.8039894104,-6.50344896317,-134.261184692,0.00116500002332,1.0,0.0,0.0,0.0,1.0,0.0,0.0,0.0,1.0,129.756088257,-80.6097564697,115.914634705,1.0,0.0,0.0,0.0,1.0,0.0,0.0,0.0,1.0,10.180145459,-8.51378168804,19.62766521,1.0,0.0,0.0,0.0,1.0,0.0,0.0,0.0,1.0
1464109257618447085,581,1464109257616062977,,-38.413066864,-5.761323452,-131.940612793,0.00118300004397,1.0,0.0,0.0,0.0,1.0,0.0,0.0,0.0,1.0,118.963417053,-38.2317085266,99.3902435303,1.0,0.0,0.0,0.0,1.0,0.0,0.0,0.0,1.0,6.95755002441,-5.88494768066,16.6444887724,1.0,0.0,0.0,0.0,1.0,0.0,0.0,0.0,1.0
1464109257641120095,582,1464109257637933489,,-38.7693519592,-5.85068464279,-128.43598938,0.00142800004687,1.0,0.0,0.0,0.0,1.0,0.0,0.0,0.0,1.0,183.048782349,-8.96341514587,89.0853652954,1.0,0.0,0.0,0.0,1.0,0.0,0.0,0.0,1.0,19.2302289034,-5.78917961426,9.5193463853,1.0,0.0,0.0,0.0,1.0,0.0,0.0,0.0,1.0
1464109257661098789,583,1464109257658892545,,-38.150554657,-3.91661953926,-126.025588989,0.00134299998172,1.0,0.0,0.0,0.0,1.0,0.0,0.0,0.0,1.0,144.024398804,-2.98780488968,120.000007629,1.0,0.0,0.0,0.0,1.0,0.0,0.0,0.0,1.0,3.7253777832,10.2950671387,8.44195446919,1.0,0.0,0.0,0.0,1.0,0.0,0.0,0.0,1.0
