%time,field.header.seq,field.header.stamp,field.header.frame_id,field.orientation.x,field.orientation.y,field.orientation.z,field.orientation.w,field.orientation_covariance0,field.orientation_covariance1,field.orientation_covariance2,field.orientation_covariance3,field.orientation_covariance4,field.orientation_covariance5,field.orientation_covariance6,field.orientation_covariance7,field.orientation_covariance8,field.angular_velocity.x,field.angular_velocity.y,field.angular_velocity.z,field.angular_velocity_covariance0,field.angular_velocity_covariance1,field.angular_velocity_covariance2,field.angular_velocity_covariance3,field.angular_velocity_covariance4,field.angular_velocity_covariance5,field.angular_velocity_covariance6,field.angular_velocity_covariance7,field.angular_velocity_covariance8,field.linear_acceleration.x,field.linear_acceleration.y,field.linear_acceleration.z,field.linear_acceleration_covariance0,field.linear_acceleration_covariance1,field.linear_acceleration_covariance2,field.linear_acceleration_covariance3,field.linear_acceleration_covariance4,field.linear_acceleration_covariance5,field.linear_acceleration_covariance6,field.linear_acceleration_covariance7,field.linear_acceleration_covariance8
1481887169774779770,413,1481887169540349091,,2.48079323769,1.59552359581,106.53868866,0.00161200005095,1.0,0.0,0.0,0.0,1.0,0.0,0.0,0.0,1.0,-0.548780500889,12.9878053665,5.0,1.0,0.0,0.0,0.0,1.0,0.0,0.0,0.0,1.0,0.656011254883,0.186747729492,10.285490332,1.0,0.0,0.0,0.0,1.0,0.0,0.0,0.0,1.0
1481887169774849718,414,1481887169560705142,,2.69198298454,1.59025585651,106.635879517,0.00113999994937,1.0,0.0,0.0,0.0,1.0,0.0,0.0,0.0,1.0,-1.64634156227,12.1951217651,3.53658556938,1.0,0.0,0.0,0.0,1.0,0.0,0.0,0.0,1.0,0.253785375977,-0.0526724365234,10.0795889893,1.0,0.0,0.0,0.0,1.0,0.0,0.0,0.0,1.0
1481887169774960499,415,1481887169581960512,,2.85742044449,1.54658687115,106.711784363,0.00139099999797,1.0,0.0,0.0,0.0,1.0,0.0,0.0,0.0,1.0,-1.52439022064,11.0975618362,2.25609779358,1.0,0.0,0.0,0.0,1.0,0.0,0.0,0.0,1.0,0.191536132812,-0.248996972656,10.0556469727,1.0,0.0,0.0,0.0,1.0,0.0,0.0,0.0,1.0
1481887169775148987,416,1481887169603146403,,3.0295920372,1.48934900761,106.811439514,0.00126199994702,1.0,0.0,0.0,0.0,1.0,0.0,0.0,0.0,1.0,-0.792682945728,13.9634151459,4.39024400711,1.0,0.0,0.0,0.0,1.0,0.0,0.0,0.0,1.0,0.651222851562,-0.45968671875,10.3429511719,1.0,0.0,0.0,0.0,1.0,0.0,0.0,0.0,1.0
1481887169775260081,417,1481887169624533022,,3.268658638,1.46110665798,106.915412903,0.00267200008966,1.0,0.0,0.0,0.0,1.0,0.0,0.0,0.0,1.0,-0.12195122242,15.548781395,2.80487799644,1.0,0.0,0.0,0.0,1.0,0.0,0.0,0.0,1.0,0.368707055664,-0.15801730957,10.2088758789,1.0,0.0,0.0,0.0,1.0,0.0,0.0,0.0,1.0
1481887169775402163,418,1481887169646884637,,3.52923846245,1.46907496452,106.953018188,0.00137900002301,1.0,0.0,0.0,0.0,1.0,0.0,0.0,0.0,1.0,-0.304878056049,14.3292694092,1.52439022064,1.0,0.0,0.0,0.0,1.0,0.0,0.0,0.0,1.0,-0.100556469727,-0.220266552734,10.1274730225,1.0,0.0,0.0,0.0,1.0,0.0,0.0,0.0,1.0
1481887169775504559,419,1481887169669319949,,3.80652332306,1.4219378233,107.03792572,0.00288700009696,1.0,0.0,0.0,0.0,1.0,0.0,0.0,0.0,1.0,-0.914634168148,14.1463422775,4.2682929039,1.0,0.0,0.0,0.0,1.0,0.0,0.0,0.0,1.0,0.0287304199219,-0.493205541992,10.2711251221,1.0,0.0,0.0,0.0,1.0,0.0,0.0,0.0,1.0
1481887169775845859,420,1481887169702863491,,4.19523429871,1.3523209095,107.230155945,0.0156640000641,1.0,0.0,0.0,0.0,1.0,0.0,0.0,0.0,1.0,-0.914634168148,10.7926826477,4.45121955872,1.0,0.0,0.0,0.0,1.0,0.0,0.0,0.0,1.0,-0.502782348633,-0.531512805087,10.6446205811,1.0,0.0,0.0,0.0,1.0,0.0,0.0,0.0,1.0
1481887169781819269,421,1481887169724949794,,4.34798192978,1.37768566608,107.435035706,0.00445799995214,1.0,0.0,0.0,0.0,1.0,0.0,0.0,0.0,1.0,0.487804889679,10.6097564697,9.51219558716,1.0,0.0,0.0,0.0,1.0,0.0,0.0,0.0,1.0,0.167594116211,0.134075302102,9.66778688823,1.0,0.0,0.0,0.0,1.0,0.0,0.0,0.0,1.0
1481887169781863904,422,1481887169745148710,,4.52445220947,1.36659944057,107.622589111,0.00192499998957,1.0,0.0,0.0,0.0,1.0,0.0,0.0,0.0,1.0,0.487804889679,7.98780536652,8.35365867615,1.0,0.0,0.0,0.0,1.0,0.0,0.0,0.0,1.0,-0.502782348633,-0.397437475586,10.6206785645,1.0,0.0,0.0,0.0,1.0,0.0,0.0,0.0,1.0
1481887169782062393,423,1481887169767055431,,4.67824220657,1.35618710518,107.786834717,0.0016530000139,1.0,0.0,0.0,0.0,1.0,0.0,0.0,0.0,1.0,-1.15853655338,1.40243899822,9.39024448395,1.0,0.0,0.0,0.0,1.0,0.0,0.0,0.0,1.0,-1.28329208984,-0.517147558594,9.77313117676,1.0,0.0,0.0,0.0,1.0,0.0,0.0,0.0,1.0
1481887169790890320,424,1481887169788109604,,4.60962343216,1.35544085503,107.977516174,0.00153899996076,1.0,0.0,0.0,0.0,1.0,0.0,0.0,0.0,1.0,-0.243902444839,-7.98780536652,7.37804937363,1.0,0.0,0.0,0.0,1.0,0.0,0.0,0.0,1.0,-0.354341845703,0.349553442383,10.3285859619,1.0,0.0,0.0,0.0,1.0,0.0,0.0,0.0,1.0
1481887169812124388,425,1481887169810015075,,4.45299291611,1.35229849815,108.098976135,0.00170599995181,1.0,0.0,0.0,0.0,1.0,0.0,0.0,0.0,1.0,0.304878056049,-10.0,6.15853643417,1.0,0.0,0.0,0.0,1.0,0.0,0.0,0.0,1.0,-0.842758984375,-0.225054956055,10.0556469727,1.0,0.0,0.0,0.0,1.0,0.0,0.0,0.0,1.0
1481887169831647891,426,1481887169829740244,,4.21628761292,1.35081148148,108.277175903,0.00113600003533,1.0,0.0,0.0,0.0,1.0,0.0,0.0,0.0,1.0,1.64634156227,-8.35365867615,12.3780488968,1.0,0.0,0.0,0.0,1.0,0.0,0.0,0.0,1.0,0.287304199219,-0.00478840332031,10.0891657959,1.0,0.0,0.0,0.0,1.0,0.0,0.0,0.0,1.0
1481887169855742883,427,1481887169850616501,,4.09443664551,1.35774469376,108.508872986,0.00141400005668,1.0,0.0,0.0,0.0,1.0,0.0,0.0,0.0,1.0,1.52439022064,-1.09756100178,13.5975618362,1.0,0.0,0.0,0.0,1.0,0.0,0.0,0.0,1.0,-0.641646044922,-0.852335791016,9.91199487305,1.0,0.0,0.0,0.0,1.0,0.0,0.0,0.0,1.0
1481887169874088527,428,1481887169872189786,,3.98639130592,1.43011689186,108.704017639,0.00123199995141,1.0,0.0,0.0,0.0,1.0,0.0,0.0,0.0,1.0,1.95121955872,4.75609779358,3.04878044128,1.0,0.0,0.0,0.0,1.0,0.0,0.0,0.0,1.0,0.565031591797,0.0191536132812,10.3621047852,1.0,0.0,0.0,0.0,1.0,0.0,0.0,0.0,1.0
1481887169895257439,429,1481887169893290469,,4.00660943985,1.43696904182,108.728271484,0.00118000002112,1.0,0.0,0.0,0.0,1.0,0.0,0.0,0.0,1.0,0.975609779358,2.37804889679,-1.09756100178,1.0,0.0,0.0,0.0,1.0,0.0,0.0,0.0,1.0,0.248996972656,-0.191536132812,10.3908352051,1.0,0.0,0.0,0.0,1.0,0.0,0.0,0.0,1.0
1481887169922368511,430,1481887169915539428,,3.98265385628,1.45961463451,108.659988403,0.00518799992278,1.0,0.0,0.0,0.0,1.0,0.0,0.0,0.0,1.0,0.487804889679,2.37804889679,-4.45121955872,1.0,0.0,0.0,0.0,1.0,0.0,0.0,0.0,1.0,-0.0335188255255,-0.0814028564453,10.0508585693,1.0,0.0,0.0,0.0,1.0,0.0,0.0,0.0,1.0
1481887169940499207,431,1481887169936158290,,3.99245381355,1.46525299549,108.619796753,0.00147599994671,1.0,0.0,0.0,0.0,1.0,0.0,0.0,0.0,1.0,1.2195122242,2.98780488968,-1.15853655338,1.0,0.0,0.0,0.0,1.0,0.0,0.0,0.0,1.0,0.0478840332031,-0.143652099609,10.2759135254,1.0,0.0,0.0,0.0,1.0,0.0,0.0,0.0,1.0
1481887169961065726,432,1481887169957112203,,4.01648807526,1.47796678543,108.630012512,0.00110200000927,1.0,0.0,0.0,0.0,1.0,0.0,0.0,0.0,1.0,0.792682945728,4.39024400711,0.731707334518,1.0,0.0,0.0,0.0,1.0,0.0,0.0,0.0,1.0,-0.067037651051,-0.201112939453,10.0891657959,1.0,0.0,0.0,0.0,1.0,0.0,0.0,0.0,1.0
1481887169982092243,433,1481887169978654759,,4.03304624557,1.49239122868,108.667793274,0.00144100002944,1.0,0.0,0.0,0.0,1.0,0.0,0.0,0.0,1.0,0.731707334518,5.12195110321,1.46341466904,1.0,0.0,0.0,0.0,1.0,0.0,0.0,0.0,1.0,0.483628735352,-0.445321508789,10.3237975586,1.0,0.0,0.0,0.0,1.0,0.0,0.0,0.0,1.0
1481887170003757819,434,1481887169999155601,,4.07159042358,1.52026534081,108.707962036,0.0010379999876,1.0,0.0,0.0,0.0,1.0,0.0,0.0,0.0,1.0,0.975609779358,7.62195110321,1.2195122242,1.0,0.0,0.0,0.0,1.0,0.0,0.0,0.0,1.0,0.440533105469,-0.0383072265625,10.180145459,1.0,0.0,0.0,0.0,1.0,0.0,0.0,0.0,1.0
1481887170025189230,435,1481887170023033146,,4.15831375122,1.54655408859,108.705490112,0.00117699999828,1.0,0.0,0.0,0.0,1.0,0.0,0.0,0.0,1.0,0.426829278469,8.59756088257,-1.46341466904,1.0,0.0,0.0,0.0,1.0,0.0,0.0,0.0,1.0,0.517147558594,0.833182177734,10.4578728516,1.0,0.0,0.0,0.0,1.0,0.0,0.0,0.0,1.0
1481887170045420229,436,1481887170043027845,,4.28534221649,1.61572849751,108.716690063,0.00312100001611,1.0,0.0,0.0,0.0,1.0,0.0,0.0,0.0,1.0,0.670731723309,11.341463089,-0.0609756112099,1.0,0.0,0.0,0.0,1.0,0.0,0.0,0.0,1.0,0.368707055664,0.282515795898,10.0317049561,1.0,0.0,0.0,0.0,1.0,0.0,0.0,0.0,1.0
1481887170065611802,437,1481887170063061293,,4.50123357773,1.63911986351,108.654769897,0.00366499996744,1.0,0.0,0.0,0.0,1.0,0.0,0.0,0.0,1.0,0.0,9.63414573669,-3.29268312454,1.0,0.0,0.0,0.0,1.0,0.0,0.0,0.0,1.0,-0.555454785156,-0.392649072266,10.2902787354,1.0,0.0,0.0,0.0,1.0,0.0,0.0,0.0,1.0
1481887170086527434,438,1481887170084279111,,4.62279224396,1.61042368412,108.654396057,0.00113600003533,1.0,0.0,0.0,0.0,1.0,0.0,0.0,0.0,1.0,-0.243902444839,12.4390249252,0.18292683363,1.0,0.0,0.0,0.0,1.0,0.0,0.0,0.0,1.0,0.45968671875,-0.416591088867,10.4578728516,1.0,0.0,0.0,0.0,1.0,0.0,0.0,0.0,1.0
1481887170107969678,439,1481887170105325367,,4.89584493637,1.59407353401,108.659011841,0.00108600000385,1.0,0.0,0.0,0.0,1.0,0.0,0.0,0.0,1.0,-0.12195122242,11.341463089,-0.0609756112099,1.0,0.0,0.0,0.0,1.0,0.0,0.0,0.0,1.0,-0.383072265625,-0.258573779297,10.180145459,1.0,0.0,0.0,0.0,1.0,0.0,0.0,0.0,1.0
1481887170128367864,440,1481887170126201208,,5.06346940994,1.57876336575,108.630249023,0.00110200000927,1.0,0.0,0.0,0.0,1.0,0.0,0.0,0.0,1.0,0.0,10.6707315445,-3.65853667259,1.0,0.0,0.0,0.0,1.0,0.0,0.0,0.0,1.0,-0.282515795898,-0.0239420166016,10.2088758789,1.0,0.0,0.0,0.0,1.0,0.0,0.0,0.0,1.0
1481887170149203757,441,1481887170147041319,,5.24009418488,1.58586847782,108.599769592,0.001111999969,1.0,0.0,0.0,0.0,1.0,0.0,0.0,0.0,1.0,-0.304878056049,8.35365867615,-0.670731723309,1.0,0.0,0.0,0.0,1.0,0.0,0.0,0.0,1.0,-0.339976635742,0.191536132812,10.2136642822,1.0,0.0,0.0,0.0,1.0,0.0,0.0,0.0,1.0
1481887170169662255,442,1481887170167425078,,5.38300466537,1.619363904,108.589431763,0.00161799998023,1.0,0.0,0.0,0.0,1.0,0.0,0.0,0.0,1.0,0.0,9.39024448395,-1.76829278469,1.0,0.0,0.0,0.0,1.0,0.0,0.0,0.0,1.0,-0.502782348633,0.191536132812,9.92157167969,1.0,0.0,0.0,0.0,1.0,0.0,0.0,0.0,1.0
1481887170190739032,443,1481887170188336179,,5.51684951782,1.64250397682,108.582626343,0.00151299999561,1.0,0.0,0.0,0.0,1.0,0.0,0.0,0.0,1.0,0.0609756112099,6.15853643417,-1.03658533096,1.0,0.0,0.0,0.0,1.0,0.0,0.0,0.0,1.0,-0.45968671875,-0.0622492431641,10.1705686523,1.0,0.0,0.0,0.0,1.0,0.0,0.0,0.0,1.0
1481887170212910387,444,1481887170210627273,,5.60738754272,1.63627517223,108.549629211,0.00201499997638,1.0,0.0,0.0,0.0,1.0,0.0,0.0,0.0,1.0,0.243902444839,3.47560977936,-1.52439022064,1.0,0.0,0.0,0.0,1.0,0.0,0.0,0.0,1.0,-0.584185168546,-0.215478149414,10.2567599121,1.0,0.0,0.0,0.0,1.0,0.0,0.0,0.0,1.0
1481887170233362532,445,1481887170231271239,,5.6342010498,1.63082277775,108.530090332,0.0010229999898,1.0,0.0,0.0,0.0,1.0,0.0,0.0,0.0,1.0,0.12195122242,2.98780488968,-1.34146344662,1.0,0.0,0.0,0.0,1.0,0.0,0.0,0.0,1.0,-0.330399829102,-0.177170922852,10.165780249,1.0,0.0,0.0,0.0,1.0,0.0,0.0,0.0,1.0
1481887170254022852,446,1481887170251933695,,5.66314983368,1.62593078613,108.53049469,0.00113300001249,1.0,0.0,0.0,0.0,1.0,0.0,0.0,0.0,1.0,-0.12195122242,3.41463422775,0.12195122242,1.0,0.0,0.0,0.0,1.0,0.0,0.0,0.0,1.0,-0.277727392578,-0.167594116211,10.1131078125,1.0,0.0,0.0,0.0,1.0,0.0,0.0,0.0,1.0
1481887170276202280,447,1481887170273751042,,5.68731307983,1.62638688087,108.550483704,0.00214800005779,1.0,0.0,0.0,0.0,1.0,0.0,0.0,0.0,1.0,0.18292683363,3.23170733452,0.243902444839,1.0,0.0,0.0,0.0,1.0,0.0,0.0,0.0,1.0,-0.387860668945,-0.119710083008,10.165780249,1.0,0.0,0.0,0.0,1.0,0.0,0.0,0.0,1.0
1481887170297138485,448,1481887170295315629,,5.68576192856,1.63157343864,108.550704956,0.00131500000134,1.0,0.0,0.0,0.0,1.0,0.0,0.0,0.0,1.0,0.0609756112099,1.2195122242,-0.975609779358,1.0,0.0,0.0,0.0,1.0,0.0,0.0,0.0,1.0,-0.296881024126,-0.0814028564453,10.1178962158,1.0,0.0,0.0,0.0,1.0,0.0,0.0,0.0,1.0
1481887170320488533,449,1481887170316462614,,5.66243219376,1.64040267467,108.539489746,0.00107799994294,1.0,0.0,0.0,0.0,1.0,0.0,0.0,0.0,1.0,-0.243902444839,1.58536589146,-0.792682945728,1.0,0.0,0.0,0.0,1.0,0.0,0.0,0.0,1.0,-0.3064578125,0.0,10.2711251221,1.0,0.0,0.0,0.0,1.0,0.0,0.0,0.0,1.0
1481887170341356300,450,1481887170337418245,,5.64410734177,1.64313936234,108.548675537,0.00127400003839,1.0,0.0,0.0,0.0,1.0,0.0,0.0,0.0,1.0,0.0609756112099,1.8902438879,0.12195122242,1.0,0.0,0.0,0.0,1.0,0.0,0.0,0.0,1.0,-0.248996972656,-0.0239420166016,10.0891657959,1.0,0.0,0.0,0.0,1.0,0.0,0.0,0.0,1.0
1481887170361901986,451,1481887170357986796,,5.63602781296,1.64642691612,108.555953979,0.00135799997952,1.0,0.0,0.0,0.0,1.0,0.0,0.0,0.0,1.0,0.12195122242,1.34146344662,-0.12195122242,1.0,0.0,0.0,0.0,1.0,0.0,0.0,0.0,1.0,-0.316034619141,-0.129286889648,10.1274730225,1.0,0.0,0.0,0.0,1.0,0.0,0.0,0.0,1.0
1481887170382149912,452,1481887170378897792,,5.5978307724,1.64594173431,108.554885864,0.00124799995683,1.0,0.0,0.0,0.0,1.0,0.0,0.0,0.0,1.0,0.18292683363,0.609756112099,-0.426829278469,1.0,0.0,0.0,0.0,1.0,0.0,0.0,0.0,1.0,-0.248996972656,-0.110133276367,10.2376062988,1.0,0.0,0.0,0.0,1.0,0.0,0.0,0.0,1.0
1481887170401829873,453,1481887170399566810,,5.56590461731,1.64517426491,108.550865173,0.0054910001345,1.0,0.0,0.0,0.0,1.0,0.0,0.0,0.0,1.0,0.243902444839,0.609756112099,-0.609756112099,1.0,0.0,0.0,0.0,1.0,0.0,0.0,0.0,1.0,-0.397437475586,-0.105344873047,10.1226846191,1.0,0.0,0.0,0.0,1.0,0.0,0.0,0.0,1.0
1481887170423530813,454,1481887170421075877,,5.51266670227,1.64725661278,108.558563232,0.00130500004161,1.0,0.0,0.0,0.0,1.0,0.0,0.0,0.0,1.0,-0.304878056049,-0.0609756112099,0.731707334518,1.0,0.0,0.0,0.0,1.0,0.0,0.0,0.0,1.0,-0.282515795898,0.0143652099609,10.3237975586,1.0,0.0,0.0,0.0,1.0,0.0,0.0,0.0,1.0
1481887170444213530,455,1481887170442229893,,5.47053432465,1.67065429688,108.588363647,0.00145199999679,1.0,0.0,0.0,0.0,1.0,0.0,0.0,0.0,1.0,-0.12195122242,2.37804889679,0.670731723309,1.0,0.0,0.0,0.0,1.0,0.0,0.0,0.0,1.0,-0.282515795898,0.076614453125,10.1131078125,1.0,0.0,0.0,0.0,1.0,0.0,0.0,0.0,1.0
1481887170465257390,456,1481887170463406097,,5.43997621536,1.71294212341,108.624069214,0.00426300009713,1.0,0.0,0.0,0.0,1.0,0.0,0.0,0.0,1.0,-0.609756112099,-0.487804889679,0.670731723309,1.0,0.0,0.0,0.0,1.0,0.0,0.0,0.0,1.0,-0.316034619141,0.392649072266,10.1945106689,1.0,0.0,0.0,0.0,1.0,0.0,0.0,0.0,1.0
1481887170486782290,457,1481887170485093860,,5.36578512192,1.71881008148,108.61592865,0.00331400008872,1.0,0.0,0.0,0.0,1.0,0.0,0.0,0.0,1.0,0.0609756112099,-1.34146344662,-0.853658556938,1.0,0.0,0.0,0.0,1.0,0.0,0.0,0.0,1.0,-0.272938989258,-0.0143652099609,10.1466266357,1.0,0.0,0.0,0.0,1.0,0.0,0.0,0.0,1.0
1481887170508009691,458,1481887170506067513,,5.29445886612,1.70182669163,108.602432251,0.00116600003093,1.0,0.0,0.0,0.0,1.0,0.0,0.0,0.0,1.0,-0.487804889679,-2.13414645195,-0.731707334518,1.0,0.0,0.0,0.0,1.0,0.0,0.0,0.0,1.0,-0.416591088867,-0.215478149414,10.180145459,1.0,0.0,0.0,0.0,1.0,0.0,0.0,0.0,1.0
1481887170528546575,459,1481887170526885905,,5.20963573456,1.68842673302,108.607154846,0.00116600003093,1.0,0.0,0.0,0.0,1.0,0.0,0.0,0.0,1.0,-0.243902444839,-3.35365867615,0.304878056049,1.0,0.0,0.0,0.0,1.0,0.0,0.0,0.0,1.0,-0.46447512207,-0.181959326172,10.1897222656,1.0,0.0,0.0,0.0,1.0,0.0,0.0,0.0,1.0
1481887170549591633,460,1481887170547746485,,5.09461021423,1.68032598495,108.615341187,0.00147899996955,1.0,0.0,0.0,0.0,1.0,0.0,0.0,0.0,1.0,-0.0609756112099,-5.54878091812,-0.12195122242,1.0,0.0,0.0,0.0,1.0,0.0,0.0,0.0,1.0,-0.392649072266,-0.177170922852,10.2136642822,1.0,0.0,0.0,0.0,1.0,0.0,0.0,0.0,1.0
1481887170570336120,461,1481887170568627586,,4.92869567871,1.67024004459,108.613471985,0.00116999994498,1.0,0.0,0.0,0.0,1.0,0.0,0.0,0.0,1.0,-0.18292683363,-7.01219511032,-0.12195122242,1.0,0.0,0.0,0.0,1.0,0.0,0.0,0.0,1.0,-0.339976635742,-0.0718260498047,10.285490332,1.0,0.0,0.0,0.0,1.0,0.0,0.0,0.0,1.0
1481887170592466069,462,1481887170590169829,,4.73327922821,1.65513944626,108.625816345,0.00129299995024,1.0,0.0,0.0,0.0,1.0,0.0,0.0,0.0,1.0,0.0609756112099,-8.65853691101,2.80487799644,1.0,0.0,0.0,0.0,1.0,0.0,0.0,0.0,1.0,-0.162805712891,-0.407014282227,10.3046439453,1.0,0.0,0.0,0.0,1.0,0.0,0.0,0.0,1.0
1481887170612886651,463,1481887170610428381,,4.51901626587,1.65807688236,108.742866516,0.0010969999712,1.0,0.0,0.0,0.0,1.0,0.0,0.0,0.0,1.0,-1.15853655338,0.0,3.59756112099,1.0,0.0,0.0,0.0,1.0,0.0,0.0,0.0,1.0,0.225054956055,-0.0861912597656,10.4243540283,1.0,0.0,0.0,0.0,1.0,0.0,0.0,0.0,1.0
1481887170634576914,464,1481887170632017812,,4.40688228607,1.65110945702,108.818450928,0.00111800001469,1.0,0.0,0.0,0.0,1.0,0.0,0.0,0.0,1.0,-0.0609756112099,-7.80487823486,2.5,1.0,0.0,0.0,0.0,1.0,0.0,0.0,0.0,1.0,-0.167594116211,-0.0478840332031,10.1370498291,1.0,0.0,0.0,0.0,1.0,0.0,0.0,0.0,1.0
1481887170656655978,465,1481887170652232926,,4.16785430908,1.62967860699,108.825843811,0.00116099999286,1.0,0.0,0.0,0.0,1.0,0.0,0.0,0.0,1.0,-0.0609756112099,-6.09756088257,0.243902444839,1.0,0.0,0.0,0.0,1.0,0.0,0.0,0.0,1.0,0.373495458984,-0.325611425781,10.3046439453,1.0,0.0,0.0,0.0,1.0,0.0,0.0,0.0,1.0
1481887170675944795,466,1481887170673109079,,3.99965929985,1.6053609848,108.856010437,0.00132399995346,1.0,0.0,0.0,0.0,1.0,0.0,0.0,0.0,1.0,-0.12195122242,-1.95121955872,1.15853655338,1.0,0.0,0.0,0.0,1.0,0.0,0.0,0.0,1.0,0.316034619141,-0.234631762695,10.2519715088,1.0,0.0,0.0,0.0,1.0,0.0,0.0,0.0,1.0
1481887170697614069,467,1481887170694152470,,3.86769676208,1.60553789139,108.880325317,0.0012009999482,1.0,0.0,0.0,0.0,1.0,0.0,0.0,0.0,1.0,0.12195122242,-1.34146344662,0.304878056049,1.0,0.0,0.0,0.0,1.0,0.0,0.0,0.0,1.0,0.435744702148,-0.0622492431641,10.1897222656,1.0,0.0,0.0,0.0,1.0,0.0,0.0,0.0,1.0
1481887170719970996,468,1481887170715054717,,3.76437830925,1.60457837582,108.877174377,0.00122400000691,1.0,0.0,0.0,0.0,1.0,0.0,0.0,0.0,1.0,0.12195122242,0.0,-0.609756112099,1.0,0.0,0.0,0.0,1.0,0.0,0.0,0.0,1.0,0.363918652344,-0.105344873047,10.2232410889,1.0,0.0,0.0,0.0,1.0,0.0,0.0,0.0,1.0
1481887170740646421,469,1481887170736229723,,3.69826030731,1.6148724556,108.854827881,0.00108600000385,1.0,0.0,0.0,0.0,1.0,0.0,0.0,0.0,1.0,0.243902444839,1.34146344662,-1.8902438879,1.0,0.0,0.0,0.0,1.0,0.0,0.0,0.0,1.0,0.210689746094,0.0143652099609,10.2615483154,1.0,0.0,0.0,0.0,1.0,0.0,0.0,0.0,1.0
1481887170762058248,470,1481887170757082698,,3.66955137253,1.63144123554,108.821517944,0.00104400003329,1.0,0.0,0.0,0.0,1.0,0.0,0.0,0.0,1.0,0.18292683363,1.52439022064,-2.37804889679,1.0,0.0,0.0,0.0,1.0,0.0,0.0,0.0,1.0,0.0287304199219,0.0287304199219,10.1562034424,1.0,0.0,0.0,0.0,1.0,0.0,0.0,0.0,1.0
1481887170783885022,471,1481887170777696457,,3.64526677132,1.66786539555,108.800338745,0.00178100005724,1.0,0.0,0.0,0.0,1.0,0.0,0.0,0.0,1.0,0.12195122242,2.07317066193,-1.15853655338,1.0,0.0,0.0,0.0,1.0,0.0,0.0,0.0,1.0,0.215478149414,-0.129286889648,10.1753570557,1.0,0.0,0.0,0.0,1.0,0.0,0.0,0.0,1.0
1481887170804363832,472,1481887170798661724,,3.65385341644,1.69272053242,108.804214478,0.00145199999679,1.0,0.0,0.0,0.0,1.0,0.0,0.0,0.0,1.0,-0.304878056049,3.90243911743,-0.487804889679,1.0,0.0,0.0,0.0,1.0,0.0,0.0,0.0,1.0,-0.0430956298828,0.344765039063,10.2807019287,1.0,0.0,0.0,0.0,1.0,0.0,0.0,0.0,1.0
1481887170821588127,473,1481887170819099701,,3.66918849945,1.68034029007,108.806602478,0.00158200005535,1.0,0.0,0.0,0.0,1.0,0.0,0.0,0.0,1.0,0.12195122242,2.56097555161,-0.304878056049,1.0,0.0,0.0,0.0,1.0,0.0,0.0,0.0,1.0,0.0383072265625,-0.124498486328,10.1131078125,1.0,0.0,0.0,0.0,1.0,0.0,0.0,0.0,1.0
1481887170843549067,474,1481887170840862413,,3.67069864273,1.66044676304,108.820602417,0.00125199998729,1.0,0.0,0.0,0.0,1.0,0.0,0.0,0.0,1.0,0.18292683363,3.59756112099,0.426829278469,1.0,0.0,0.0,0.0,1.0,0.0,0.0,0.0,1.0,0.129286889648,-0.335188232422,10.2615483154,1.0,0.0,0.0,0.0,1.0,0.0,0.0,0.0,1.0
1481887170865153966,475,1481887170861479869,,3.68677711487,1.65097939968,108.835197449,0.00153699994553,1.0,0.0,0.0,0.0,1.0,0.0,0.0,0.0,1.0,0.12195122242,3.41463422775,-0.426829278469,1.0,0.0,0.0,0.0,1.0,0.0,0.0,0.0,1.0,0.210689746094,-0.15801730957,10.2807019287,1.0,0.0,0.0,0.0,1.0,0.0,0.0,0.0,1.0
1481887170885231789,476,1481887170882849926,,3.69362068176,1.64690375328,108.824401855,0.00153999996837,1.0,0.0,0.0,0.0,1.0,0.0,0.0,0.0,1.0,0.0,3.7804877758,-0.792682945728,1.0,0.0,0.0,0.0,1.0,0.0,0.0,0.0,1.0,0.181959326172,-0.0622492431641,10.3285859619,1.0,0.0,0.0,0.0,1.0,0.0,0.0,0.0,1.0
1481887170906460701,477,1481887170903777328,,3.72434616089,1.65111804008,108.830917358,0.00183700001799,1.0,0.0,0.0,0.0,1.0,0.0,0.0,0.0,1.0,0.18292683363,5.42682933807,0.243902444839,1.0,0.0,0.0,0.0,1.0,0.0,0.0,0.0,1.0,0.172382519531,-0.0287304199219,10.2040874756,1.0,0.0,0.0,0.0,1.0,0.0,0.0,0.0,1.0
1481887170926731284,478,1481887170924278639,,3.77386260033,1.65997517109,108.843078613,0.00142400001641,1.0,0.0,0.0,0.0,1.0,0.0,0.0,0.0,1.0,-0.0609756112099,5.60975599289,-0.365853667259,1.0,0.0,0.0,0.0,1.0,0.0,0.0,0.0,1.0,0.205901342773,0.00478840332031,10.2711251221,1.0,0.0,0.0,0.0,1.0,0.0,0.0,0.0,1.0
1481887170947776030,479,1481887170944989740,,3.83251619339,1.65849721432,108.836433411,0.00127000000793,1.0,0.0,0.0,0.0,1.0,0.0,0.0,0.0,1.0,-0.18292683363,6.28048801422,-1.2195122242,1.0,0.0,0.0,0.0,1.0,0.0,0.0,0.0,1.0,0.196324536133,-0.0526724365234,10.2615483154,1.0,0.0,0.0,0.0,1.0,0.0,0.0,0.0,1.0
1481887170971525346,480,1481887170966519953,,3.92503213882,1.6456592083,108.824539185,0.00117699999828,1.0,0.0,0.0,0.0,1.0,0.0,0.0,0.0,1.0,-0.18292683363,6.70731735229,-1.34146344662,1.0,0.0,0.0,0.0,1.0,0.0,0.0,0.0,1.0,-0.0909796630859,-0.138863696289,10.2376062988,1.0,0.0,0.0,0.0,1.0,0.0,0.0,0.0,1.0
1481887170994503312,481,1481887170987685323,,4.01792144775,1.63498806953,108.808898926,0.00125400000252,1.0,0.0,0.0,0.0,1.0,0.0,0.0,0.0,1.0,0.0609756112099,5.79268312454,-1.70731711388,1.0,0.0,0.0,0.0,1.0,0.0,0.0,0.0,1.0,0.0430956298828,-0.148440512063,10.1466266357,1.0,0.0,0.0,0.0,1.0,0.0,0.0,0.0,1.0
1481887171012150678,482,1481887171009484336,,4.09030199051,1.63192915916,108.792625427,0.00127699994482,1.0,0.0,0.0,0.0,1.0,0.0,0.0,0.0,1.0,-0.0609756112099,5.54878091812,-0.914634168148,1.0,0.0,0.0,0.0,1.0,0.0,0.0,0.0,1.0,-0.0909796630859,-0.129286889648,10.3285859619,1.0,0.0,0.0,0.0,1.0,0.0,0.0,0.0,1.0
1481887171035324528,483,1481887171030148198,,4.16105699539,1.63808453083,108.789543152,0.00101999996696,1.0,0.0,0.0,0.0,1.0,0.0,0.0,0.0,1.0,0.0,5.30487823486,-0.548780500889,1.0,0.0,0.0,0.0,1.0,0.0,0.0,0.0,1.0,-0.105344873047,-0.0383072265625,10.0939541992,1.0,0.0,0.0,0.0,1.0,0.0,0.0,0.0,1.0
1481887171053105018,484,1481887171051229090,,4.22499990463,1.64732551575,108.787979126,0.00105900003109,1.0,0.0,0.0,0.0,1.0,0.0,0.0,0.0,1.0,0.12195122242,4.57317066193,-0.548780500889,1.0,0.0,0.0,0.0,1.0,0.0,0.0,0.0,1.0,-0.148440512063,-0.0478840332031,10.1131078125,1.0,0.0,0.0,0.0,1.0,0.0,0.0,0.0,1.0
1481887171074366326,485,1481887171072387325,,4.27127456665,1.64687287807,108.781921387,0.00103199994192,1.0,0.0,0.0,0.0,1.0,0.0,0.0,0.0,1.0,0.243902444839,3.23170733452,-0.609756112099,1.0,0.0,0.0,0.0,1.0,0.0,0.0,0.0,1.0,-0.119710083008,-0.215478149414,10.1609918457,1.0,0.0,0.0,0.0,1.0,0.0,0.0,0.0,1.0
1481887171095950079,486,1481887171093883787,,4.30064296722,1.64287722111,108.768623352,0.00120900000911,1.0,0.0,0.0,0.0,1.0,0.0,0.0,0.0,1.0,-0.12195122242,2.31707310677,-1.2195122242,1.0,0.0,0.0,0.0,1.0,0.0,0.0,0.0,1.0,-0.205901342773,-0.191536132812,10.3477395752,1.0,0.0,0.0,0.0,1.0,0.0,0.0,0.0,1.0
1481887171117417375,487,1481887171115524624,,4.30581331253,1.63563299179,108.755508423,0.00136500003282,1.0,0.0,0.0,0.0,1.0,0.0,0.0,0.0,1.0,0.0609756112099,0.914634168148,-0.975609779358,1.0,0.0,0.0,0.0,1.0,0.0,0.0,0.0,1.0,-0.325611425781,-0.119710083008,10.1705686523,1.0,0.0,0.0,0.0,1.0,0.0,0.0,0.0,1.0
1481887171145650109,488,1481887171136091716,,4.28071975708,1.63624286652,108.746177673,0.000989999971353,1.0,0.0,0.0,0.0,1.0,0.0,0.0,0.0,1.0,-0.243902444839,-0.609756112099,-0.304878056049,1.0,0.0,0.0,0.0,1.0,0.0,0.0,0.0,1.0,-0.215478149414,0.0,10.1035310059,1.0,0.0,0.0,0.0,1.0,0.0,0.0,0.0,1.0
1481887171161160505,489,1481887171157070368,,4.22633218765,1.64964354038,108.756858826,0.00103899999522,1.0,0.0,0.0,0.0,1.0,0.0,0.0,0.0,1.0,0.18292683363,-0.548780500889,0.365853667259,1.0,0.0,0.0,0.0,1.0,0.0,0.0,0.0,1.0,-0.15801730957,-0.0574608398438,10.2615483154,1.0,0.0,0.0,0.0,1.0,0.0,0.0,0.0,1.0
1481887171180030365,490,1481887171177710532,,4.16974258423,1.65231287479,108.761474609,0.00104899995495,1.0,0.0,0.0,0.0,1.0,0.0,0.0,0.0,1.0,-0.304878056049,-2.31707310677,-0.853658556938,1.0,0.0,0.0,0.0,1.0,0.0,0.0,0.0,1.0,-0.196324536133,-0.0430956298828,10.1705686523,1.0,0.0,0.0,0.0,1.0,0.0,0.0,0.0,1.0
1481887171203591401,491,1481887171199467462,,4.05941200256,1.62775814533,108.759231567,0.00130100001115,1.0,0.0,0.0,0.0,1.0,0.0,0.0,0.0,1.0,-0.243902444839,-2.68292689323,0.670731723309,1.0,0.0,0.0,0.0,1.0,0.0,0.0,0.0,1.0,0.0526724365234,-0.0526724365234,10.3429511719,1.0,0.0,0.0,0.0,1.0,0.0,0.0,0.0,1.0
1481887171225243176,492,1481887171222975582,,3.96013450623,1.63032615185,108.762657166,0.00280099990778,1.0,0.0,0.0,0.0,1.0,0.0,0.0,0.0,1.0,-0.487804889679,-3.96341490746,-0.487804889679,1.0,0.0,0.0,0.0,1.0,0.0,0.0,0.0,1.0,-0.134075302102,0.0478840332031,9.97903251953,1.0,0.0,0.0,0.0,1.0,0.0,0.0,0.0,1.0
1481887171246821565,493,1481887171244462774,,3.81611466408,1.62540817261,108.751243591,0.00250499998219,1.0,0.0,0.0,0.0,1.0,0.0,0.0,0.0,1.0,-0.243902444839,-4.51219558716,-0.609756112099,1.0,0.0,0.0,0.0,1.0,0.0,0.0,0.0,1.0,-0.0239420166016,-0.0909796630859,10.285490332,1.0,0.0,0.0,0.0,1.0,0.0,0.0,0.0,1.0
1481887171268879118,494,1481887171265949184,,3.68236756325,1.62262558937,108.763191223,0.00120299996343,1.0,0.0,0.0,0.0,1.0,0.0,0.0,0.0,1.0,0.0,-4.69512224197,0.670731723309,1.0,0.0,0.0,0.0,1.0,0.0,0.0,0.0,1.0,0.0,0.0143652099609,10.2471831055,1.0,0.0,0.0,0.0,1.0,0.0,0.0,0.0,1.0
1481887171291618388,495,1481887171288178924,,3.51598525047,1.62169277668,108.77481842,0.00221799989231,1.0,0.0,0.0,0.0,1.0,0.0,0.0,0.0,1.0,-0.365853667259,-5.42682933807,-0.243902444839,1.0,0.0,0.0,0.0,1.0,0.0,0.0,0.0,1.0,0.0574608398438,-0.0526724365234,10.1609918457,1.0,0.0,0.0,0.0,1.0,0.0,0.0,0.0,1.0
1481887171311629649,496,1481887171309478669,,3.34248423576,1.61252522469,108.770896912,0.00101000000723,1.0,0.0,0.0,0.0,1.0,0.0,0.0,0.0,1.0,-0.304878056049,-5.91463422775,-0.548780500889,1.0,0.0,0.0,0.0,1.0,0.0,0.0,0.0,1.0,0.067037651051,-0.076614453125,10.1705686523,1.0,0.0,0.0,0.0,1.0,0.0,0.0,0.0,1.0
1481887171333050695,497,1481887171330468675,,3.17540669441,1.60461807251,108.770988464,0.000984000042081,1.0,0.0,0.0,0.0,1.0,0.0,0.0,0.0,1.0,-0.426829278469,-6.0365858078,-0.12195122242,1.0,0.0,0.0,0.0,1.0,0.0,0.0,0.0,1.0,0.0574608398438,-0.114921679688,10.1897222656,1.0,0.0,0.0,0.0,1.0,0.0,0.0,0.0,1.0
1481887171356716678,498,1481887171351117225,,2.99003052711,1.60190725327,108.798118591,0.00102500000503,1.0,0.0,0.0,0.0,1.0,0.0,0.0,0.0,1.0,-0.365853667259,-5.24390268326,2.37804889679,1.0,0.0,0.0,0.0,1.0,0.0,0.0,0.0,1.0,0.497993945312,-0.0191536132812,10.2423947021,1.0,0.0,0.0,0.0,1.0,0.0,0.0,0.0,1.0
1481887171376969761,499,1481887171371885670,,2.85488200188,1.60856389999,108.848312378,0.00117599999066,1.0,0.0,0.0,0.0,1.0,0.0,0.0,0.0,1.0,-0.18292683363,-1.8902438879,1.8902438879,1.0,0.0,0.0,0.0,1.0,0.0,0.0,0.0,1.0,0.497993945312,-0.00478840332031,10.1945106689,1.0,0.0,0.0,0.0,1.0,0.0,0.0,0.0,1.0
1481887171394690877,500,1481887171392596720,,2.72220563889,1.61218011379,108.872077942,0.00138300005347,1.0,0.0,0.0,0.0,1.0,0.0,0.0,0.0,1.0,-0.243902444839,-2.62195134163,-0.304878056049,1.0,0.0,0.0,0.0,1.0,0.0,0.0,0.0,1.0,0.560243188477,-0.0574608398438,10.3285859619,1.0,0.0,0.0,0.0,1.0,0.0,0.0,0.0,1.0
1481887171416717701,501,1481887171414353858,,2.59695363045,1.60006046295,108.8644104,0.00164999999106,1.0,0.0,0.0,0.0,1.0,0.0,0.0,0.0,1.0,-0.426829278469,-0.0609756112099,-0.365853667259,1.0,0.0,0.0,0.0,1.0,0.0,0.0,0.0,1.0,0.627280834961,-0.31124621582,10.2328178955,1.0,0.0,0.0,0.0,1.0,0.0,0.0,0.0,1.0
1481887171438329996,502,1481887171435440218,,2.53007769585,1.58585059643,108.872772217,0.00134099996649,1.0,0.0,0.0,0.0,1.0,0.0,0.0,0.0,1.0,-0.0609756112099,2.01219511032,-0.0609756112099,1.0,0.0,0.0,0.0,1.0,0.0,0.0,0.0,1.0,0.517147558594,-0.316034619141,10.1562034424,1.0,0.0,0.0,0.0,1.0,0.0,0.0,0.0,1.0
1481887171459649585,503,1481887171456245330,,2.50410723686,1.57860898972,108.882835388,0.000969999993686,1.0,0.0,0.0,0.0,1.0,0.0,0.0,0.0,1.0,0.12195122242,3.7804877758,-0.12195122242,1.0,0.0,0.0,0.0,1.0,0.0,0.0,0.0,1.0,0.593762048251,-0.129286889648,10.1514150391,1.0,0.0,0.0,0.0,1.0,0.0,0.0,0.0,1.0
1481887171479421107,504,1481887171477234763,,2.5233836174,1.58361923695,108.887565613,0.0010150000453,1.0,0.0,0.0,0.0,1.0,0.0,0.0,0.0,1.0,0.304878056049,5.85365867615,-0.426829278469,1.0,0.0,0.0,0.0,1.0,0.0,0.0,0.0,1.0,0.46447512207,0.0335188255255,10.3429511719,1.0,0.0,0.0,0.0,1.0,0.0,0.0,0.0,1.0
1481887171500268198,505,1481887171498245759,,2.58906698227,1.58973908424,108.875938416,0.0010529999854,1.0,0.0,0.0,0.0,1.0,0.0,0.0,0.0,1.0,0.12195122242,6.82926845551,-1.76829278469,1.0,0.0,0.0,0.0,1.0,0.0,0.0,0.0,1.0,0.229843359375,-0.210689746094,10.3285859619,1.0,0.0,0.0,0.0,1.0,0.0,0.0,0.0,1.0
1481887171522884915,506,1481887171520458520,,2.68437457085,1.58220934868,108.855125427,0.00097499997355,1.0,0.0,0.0,0.0,1.0,0.0,0.0,0.0,1.0,0.0609756112099,6.64634132385,-1.2804877758,1.0,0.0,0.0,0.0,1.0,0.0,0.0,0.0,1.0,0.167594116211,-0.186747729492,10.2950671387,1.0,0.0,0.0,0.0,1.0,0.0,0.0,0.0,1.0
1481887171542842427,507,1481887171540705978,,2.7942135334,1.58426129818,108.853874207,0.00124000001233,1.0,0.0,0.0,0.0,1.0,0.0,0.0,0.0,1.0,0.304878056049,6.70731735229,-0.18292683363,1.0,0.0,0.0,0.0,1.0,0.0,0.0,0.0,1.0,0.114921679688,0.201112939453,10.2807019287,1.0,0.0,0.0,0.0,1.0,0.0,0.0,0.0,1.0
1481887171564759408,508,1481887171563136863,,2.90029215813,1.60766148567,108.840690613,0.00157500000205,1.0,0.0,0.0,0.0,1.0,0.0,0.0,0.0,1.0,-0.304878056049,5.0,-1.76829278469,1.0,0.0,0.0,0.0,1.0,0.0,0.0,0.0,1.0,-0.220266552734,-0.248996972656,10.0652237793,1.0,0.0,0.0,0.0,1.0,0.0,0.0,0.0,1.0
1481887171584805721,509,1481887171582974063,,2.94958806038,1.59594118595,108.820739746,0.00405800016597,1.0,0.0,0.0,0.0,1.0,0.0,0.0,0.0,1.0,-0.243902444839,2.98780488968,-1.52439022064,1.0,0.0,0.0,0.0,1.0,0.0,0.0,0.0,1.0,0.0574608398438,-0.076614453125,10.1992990723,1.0,0.0,0.0,0.0,1.0,0.0,0.0,0.0,1.0
1481887171606895618,510,1481887171604535317,,2.99167704582,1.60071492195,108.818588257,0.00138999999035,1.0,0.0,0.0,0.0,1.0,0.0,0.0,0.0,1.0,-0.0609756112099,2.01219511032,0.426829278469,1.0,0.0,0.0,0.0,1.0,0.0,0.0,0.0,1.0,-0.100556469727,-0.00478840332031,10.2232410889,1.0,0.0,0.0,0.0,1.0,0.0,0.0,0.0,1.0
1481887171627266773,511,1481887171624952305,,2.99562001228,1.59671056271,108.829803467,0.0011419999646,1.0,0.0,0.0,0.0,1.0,0.0,0.0,0.0,1.0,0.0,0.792682945728,0.0,1.0,0.0,0.0,0.0,1.0,0.0,0.0,0.0,1.0,-0.067037651051,-0.167594116211,10.3573163818,1.0,0.0,0.0,0.0,1.0,0.0,0.0,0.0,1.0
1481887171647847927,512,1481887171645857312,,2.96206045151,1.60240876675,108.843254089,0.00106699997559,1.0,0.0,0.0,0.0,1.0,0.0,0.0,0.0,1.0,-0.12195122242,-1.03658533096,0.548780500889,1.0,0.0,0.0,0.0,1.0,0.0,0.0,0.0,1.0,0.0861912597656,0.0143652099609,10.1992990723,1.0,0.0,0.0,0.0,1.0,0.0,0.0,0.0,1.0
1481887171668614706,513,1481887171666481487,,2.89941692352,1.60282337666,108.857078552,0.00105800002348,1.0,0.0,0.0,0.0,1.0,0.0,0.0,0.0,1.0,-0.12195122242,-0.731707334518,0.243902444839,1.0,0.0,0.0,0.0,1.0,0.0,0.0,0.0,1.0,0.191536132812,-0.181959326172,10.3333743652,1.0,0.0,0.0,0.0,1.0,0.0,0.0,0.0,1.0
1481887171689793253,514,1481887171687746960,,2.82212233543,1.60651350021,108.868774414,0.00132100004703,1.0,0.0,0.0,0.0,1.0,0.0,0.0,0.0,1.0,-0.365853667259,-1.15853655338,-0.18292683363,1.0,0.0,0.0,0.0,1.0,0.0,0.0,0.0,1.0,0.320823022461,-0.0430956298828,10.2376062988,1.0,0.0,0.0,0.0,1.0,0.0,0.0,0.0,1.0
1481887171711189508,515,1481887171709049674,,2.74266266823,1.60838699341,108.87223053,0.00109599996358,1.0,0.0,0.0,0.0,1.0,0.0,0.0,0.0,1.0,-0.12195122242,-0.670731723309,0.0,1.0,0.0,0.0,0.0,1.0,0.0,0.0,0.0,1.0,0.258573779297,-0.114921679688,10.2567599121,1.0,0.0,0.0,0.0,1.0,0.0,0.0,0.0,1.0
1481887171731572434,516,1481887171729594995,,2.67702698708,1.59660339355,108.874397278,0.00107500003651,1.0,0.0,0.0,0.0,1.0,0.0,0.0,0.0,1.0,-0.243902444839,-0.670731723309,-0.0609756112099,1.0,0.0,0.0,0.0,1.0,0.0,0.0,0.0,1.0,0.205901342773,-0.143652099609,10.1322614258,1.0,0.0,0.0,0.0,1.0,0.0,0.0,0.0,1.0
1481887171752789106,517,1481887171750780365,,2.61311388016,1.58905136585,108.880126953,0.000982000026852,1.0,0.0,0.0,0.0,1.0,0.0,0.0,0.0,1.0,-0.0609756112099,-0.243902444839,0.12195122242,1.0,0.0,0.0,0.0,1.0,0.0,0.0,0.0,1.0,0.339976635742,-0.0957680664062,10.180145459,1.0,0.0,0.0,0.0,1.0,0.0,0.0,0.0,1.0
1481887171774458171,518,1481887171772127297,,2.55962181091,1.58892703056,108.890708923,0.000991999986582,1.0,0.0,0.0,0.0,1.0,0.0,0.0,0.0,1.0,0.0,0.792682945728,-0.0609756112099,1.0,0.0,0.0,0.0,1.0,0.0,0.0,0.0,1.0,0.339976635742,-0.067037651051,10.1897222656,1.0,0.0,0.0,0.0,1.0,0.0,0.0,0.0,1.0
1481887171795680937,519,1481887171792544389,,2.51832199097,1.58985221386,108.894294739,0.00124300003517,1.0,0.0,0.0,0.0,1.0,0.0,0.0,0.0,1.0,-0.12195122242,0.670731723309,-0.548780500889,1.0,0.0,0.0,0.0,1.0,0.0,0.0,0.0,1.0,0.335188232422,-0.0909796630859,10.1226846191,1.0,0.0,0.0,0.0,1.0,0.0,0.0,0.0,1.0
1481887171815318815,520,1481887171813236376,,2.48412561417,1.58625793457,108.89541626,0.00096700002905,1.0,0.0,0.0,0.0,1.0,0.0,0.0,0.0,1.0,0.0,1.2804877758,-0.304878056049,1.0,0.0,0.0,0.0,1.0,0.0,0.0,0.0,1.0,0.354341845703,-0.201112939453,10.2711251221,1.0,0.0,0.0,0.0,1.0,0.0,0.0,0.0,1.0
1481887171836634913,521,1481887171833909822,,2.46177458763,1.58179962635,108.899238586,0.000966000021435,1.0,0.0,0.0,0.0,1.0,0.0,0.0,0.0,1.0,-0.243902444839,1.8902438879,-0.365853667259,1.0,0.0,0.0,0.0,1.0,0.0,0.0,0.0,1.0,0.31124621582,-0.0718260498047,10.1418382324,1.0,0.0,0.0,0.0,1.0,0.0,0.0,0.0,1.0
1481887171857325807,522,1481887171854992172,,2.44665169716,1.58313393593,108.905464172,0.000962999998592,1.0,0.0,0.0,0.0,1.0,0.0,0.0,0.0,1.0,-0.243902444839,1.95121955872,-0.426829278469,1.0,0.0,0.0,0.0,1.0,0.0,0.0,0.0,1.0,0.335188232422,-0.124498486328,10.2902787354,1.0,0.0,0.0,0.0,1.0,0.0,0.0,0.0,1.0
1481887171879887681,523,1481887171875849262,,2.43856263161,1.58112871647,108.907707214,0.000965000013821,1.0,0.0,0.0,0.0,1.0,0.0,0.0,0.0,1.0,-0.0609756112099,2.68292689323,-0.548780500889,1.0,0.0,0.0,0.0,1.0,0.0,0.0,0.0,1.0,0.339976635742,-0.067037651051,10.2567599121,1.0,0.0,0.0,0.0,1.0,0.0,0.0,0.0,1.0
1481887171903025177,524,1481887171897390099,,2.43907380104,1.57941424847,108.910018921,0.00135100004263,1.0,0.0,0.0,0.0,1.0,0.0,0.0,0.0,1.0,-0.18292683363,2.68292689323,-0.18292683363,1.0,0.0,0.0,0.0,1.0,0.0,0.0,0.0,1.0,0.363918652344,-0.124498486328,10.1418382324,1.0,0.0,0.0,0.0,1.0,0.0,0.0,0.0,1.0
1481887171921857433,525,1481887171917964431,,2.4465444088,1.57923352718,108.913711548,0.00140299997292,1.0,0.0,0.0,0.0,1.0,0.0,0.0,0.0,1.0,0.18292683363,3.35365867615,-0.426829278469,1.0,0.0,0.0,0.0,1.0,0.0,0.0,0.0,1.0,0.292092584273,-0.234631762695,10.0748005859,1.0,0.0,0.0,0.0,1.0,0.0,0.0,0.0,1.0
1481887171942763378,526,1481887171939044072,,2.46094918251,1.58070719242,108.918014526,0.0012229999993,1.0,0.0,0.0,0.0,1.0,0.0,0.0,0.0,1.0,0.0609756112099,3.41463422775,-0.365853667259,1.0,0.0,0.0,0.0,1.0,0.0,0.0,0.0,1.0,0.248996972656,-0.148440512063,10.1466266357,1.0,0.0,0.0,0.0,1.0,0.0,0.0,0.0,1.0
1481887171964298277,527,1481887171961667613,,2.47958827019,1.58090031147,108.92074585,0.00106599996798,1.0,0.0,0.0,0.0,1.0,0.0,0.0,0.0,1.0,0.12195122242,3.71951246262,-0.243902444839,1.0,0.0,0.0,0.0,1.0,0.0,0.0,0.0,1.0,0.244208569336,-0.105344873047,10.1753570557,1.0,0.0,0.0,0.0,1.0,0.0,0.0,0.0,1.0
1481887171986567965,528,1481887171984627089,,2.508051157,1.57749927044,108.923217773,0.00474500004202,1.0,0.0,0.0,0.0,1.0,0.0,0.0,0.0,1.0,-0.304878056049,3.71951246262,-0.365853667259,1.0,0.0,0.0,0.0,1.0,0.0,0.0,0.0,1.0,0.325611425781,-0.15322890625,10.2184526855,1.0,0.0,0.0,0.0,1.0,0.0,0.0,0.0,1.0
1481887172012913624,529,1481887172010644103,,2.53001523018,1.57986032963,108.928031921,0.00156700005755,1.0,0.0,0.0,0.0,1.0,0.0,0.0,0.0,1.0,0.12195122242,3.47560977936,-0.426829278469,1.0,0.0,0.0,0.0,1.0,0.0,0.0,0.0,1.0,0.292092584273,-0.119710083008,10.1178962158,1.0,0.0,0.0,0.0,1.0,0.0,0.0,0.0,1.0
1481887172028096835,530,1481887172025650752,,2.54927659035,1.58078706264,108.930381775,0.00124999997206,1.0,0.0,0.0,0.0,1.0,0.0,0.0,0.0,1.0,0.18292683363,3.47560977936,-0.365853667259,1.0,0.0,0.0,0.0,1.0,0.0,0.0,0.0,1.0,0.335188232422,-0.0526724365234,10.1753570557,1.0,0.0,0.0,0.0,1.0,0.0,0.0,0.0,1.0
1481887172049246684,531,1481887172046783310,,2.57217311859,1.58059024811,108.932037354,0.00106299994513,1.0,0.0,0.0,0.0,1.0,0.0,0.0,0.0,1.0,-0.0609756112099,3.59756112099,-0.426829278469,1.0,0.0,0.0,0.0,1.0,0.0,0.0,0.0,1.0,0.196324536133,-0.177170922852,10.0939541992,1.0,0.0,0.0,0.0,1.0,0.0,0.0,0.0,1.0
1481887172070950594,532,1481887172068507792,,2.5976421833,1.58709394932,108.935379028,0.00199800007977,1.0,0.0,0.0,0.0,1.0,0.0,0.0,0.0,1.0,0.243902444839,3.29268312454,-0.243902444839,1.0,0.0,0.0,0.0,1.0,0.0,0.0,0.0,1.0,0.248996972656,-0.076614453125,10.1609918457,1.0,0.0,0.0,0.0,1.0,0.0,0.0,0.0,1.0
1481887172091978621,533,1481887172089969880,,2.6181204319,1.58594942093,108.939346313,0.00170999998227,1.0,0.0,0.0,0.0,1.0,0.0,0.0,0.0,1.0,-0.12195122242,3.10975623131,-0.365853667259,1.0,0.0,0.0,0.0,1.0,0.0,0.0,0.0,1.0,0.258573779297,-0.119710083008,10.2136642822,1.0,0.0,0.0,0.0,1.0,0.0,0.0,0.0,1.0
1481887172114694036,534,1481887172111735872,,2.63518095016,1.59055554867,108.942626953,0.0012309999438,1.0,0.0,0.0,0.0,1.0,0.0,0.0,0.0,1.0,0.243902444839,2.86585378647,-0.243902444839,1.0,0.0,0.0,0.0,1.0,0.0,0.0,0.0,1.0,0.220266552734,-0.124498486328,10.1226846191,1.0,0.0,0.0,0.0,1.0,0.0,0.0,0.0,1.0
1481887172133930561,535,1481887172132141194,,2.64544439316,1.590888381,108.945320129,0.00104799994733,1.0,0.0,0.0,0.0,1.0,0.0,0.0,0.0,1.0,0.0,2.74390244484,-0.304878056049,1.0,0.0,0.0,0.0,1.0,0.0,0.0,0.0,1.0,0.191536132812,-0.134075302102,10.1562034424,1.0,0.0,0.0,0.0,1.0,0.0,0.0,0.0,1.0
1481887172156523477,536,1481887172154401507,,2.65352153778,1.59156763554,108.948440552,0.00107799994294,1.0,0.0,0.0,0.0,1.0,0.0,0.0,0.0,1.0,-0.0609756112099,2.5,-0.426829278469,1.0,0.0,0.0,0.0,1.0,0.0,0.0,0.0,1.0,0.205901342773,-0.067037651051,10.1945106689,1.0,0.0,0.0,0.0,1.0,0.0,0.0,0.0,1.0
1481887172177746346,537,1481887172174104332,,2.6574652195,1.59489130974,108.953605652,0.00121899996884,1.0,0.0,0.0,0.0,1.0,0.0,0.0,0.0,1.0,0.0609756112099,2.07317066193,-0.18292683363,1.0,0.0,0.0,0.0,1.0,0.0,0.0,0.0,1.0,0.244208569336,-0.0143652099609,10.2423947021,1.0,0.0,0.0,0.0,1.0,0.0,0.0,0.0,1.0
1481887172201886807,538,1481887172198693853,,2.65649795532,1.59428584576,108.956161499,0.00117900001351,1.0,0.0,0.0,0.0,1.0,0.0,0.0,0.0,1.0,-0.0609756112099,2.13414645195,-0.243902444839,1.0,0.0,0.0,0.0,1.0,0.0,0.0,0.0,1.0,0.172382519531,-0.172382519531,10.2040874756,1.0,0.0,0.0,0.0,1.0,0.0,0.0,0.0,1.0
1481887172217455328,539,1481887172215090235,,2.65168595314,1.59682118893,108.959442139,0.00117900001351,1.0,0.0,0.0,0.0,1.0,0.0,0.0,0.0,1.0,-0.243902444839,1.8902438879,-0.304878056049,1.0,0.0,0.0,0.0,1.0,0.0,0.0,0.0,1.0,0.191536132812,-0.0287304199219,10.1131078125,1.0,0.0,0.0,0.0,1.0,0.0,0.0,0.0,1.0
1481887172239018665,540,1481887172236741749,,2.64225888252,1.59874773026,108.96421814,0.00109200004954,1.0,0.0,0.0,0.0,1.0,0.0,0.0,0.0,1.0,-0.0609756112099,1.95121955872,-0.18292683363,1.0,0.0,0.0,0.0,1.0,0.0,0.0,0.0,1.0,0.320823022461,-0.076614453125,10.2280294922,1.0,0.0,0.0,0.0,1.0,0.0,0.0,0.0,1.0
1481887172259708517,541,1481887172257526236,,2.62936711311,1.60042083263,108.968330383,0.00118599995039,1.0,0.0,0.0,0.0,1.0,0.0,0.0,0.0,1.0,-0.12195122242,1.8902438879,-0.12195122242,1.0,0.0,0.0,0.0,1.0,0.0,0.0,0.0,1.0,0.272938989258,-0.110133276367,10.2136642822,1.0,0.0,0.0,0.0,1.0,0.0,0.0,0.0,1.0
1481887172281133001,542,1481887172279521185,,2.61158370972,1.59928178787,108.973846436,0.00162600004114,1.0,0.0,0.0,0.0,1.0,0.0,0.0,0.0,1.0,-0.18292683363,1.58536589146,-0.12195122242,1.0,0.0,0.0,0.0,1.0,0.0,0.0,0.0,1.0,0.201112939453,-0.138863696289,10.2567599121,1.0,0.0,0.0,0.0,1.0,0.0,0.0,0.0,1.0
1481887172304662891,543,1481887172302204101,,2.60033917427,1.59623372555,108.977935791,0.00128800002858,1.0,0.0,0.0,0.0,1.0,0.0,0.0,0.0,1.0,-0.426829278469,1.8292683363,-0.365853667259,1.0,0.0,0.0,0.0,1.0,0.0,0.0,0.0,1.0,0.234631762695,-0.114921679688,10.2376062988,1.0,0.0,0.0,0.0,1.0,0.0,0.0,0.0,1.0
1481887172323046139,544,1481887172320868232,,2.58728790283,1.60216224194,108.98197937,0.00111700000707,1.0,0.0,0.0,0.0,1.0,0.0,0.0,0.0,1.0,0.18292683363,1.76829278469,0.0609756112099,1.0,0.0,0.0,0.0,1.0,0.0,0.0,0.0,1.0,0.335188232422,-0.124498486328,10.2280294922,1.0,0.0,0.0,0.0,1.0,0.0,0.0,0.0,1.0
1481887172344381977,545,1481887172342515319,,2.57103466988,1.60286903381,108.986854553,0.0012080000015,1.0,0.0,0.0,0.0,1.0,0.0,0.0,0.0,1.0,0.0609756112099,1.70731711388,-0.243902444839,1.0,0.0,0.0,0.0,1.0,0.0,0.0,0.0,1.0,0.263362164351,-0.0814028564453,10.1083194092,1.0,0.0,0.0,0.0,1.0,0.0,0.0,0.0,1.0
1481887172367627650,546,1481887172364615060,,2.55701756477,1.60261666775,108.990501404,0.00213599996641,1.0,0.0,0.0,0.0,1.0,0.0,0.0,0.0,1.0,0.0609756112099,1.76829278469,-0.365853667259,1.0,0.0,0.0,0.0,1.0,0.0,0.0,0.0,1.0,0.354341845703,-0.0909796630859,10.2040874756,1.0,0.0,0.0,0.0,1.0,0.0,0.0,0.0,1.0
1481887172388236148,547,1481887172386043242,,2.54829478264,1.5999840498,108.993759155,0.0015490000369,1.0,0.0,0.0,0.0,1.0,0.0,0.0,0.0,1.0,0.0609756112099,2.07317066193,-0.304878056049,1.0,0.0,0.0,0.0,1.0,0.0,0.0,0.0,1.0,0.229843359375,-0.0861912597656,10.1753570557,1.0,0.0,0.0,0.0,1.0,0.0,0.0,0.0,1.0
1481887172409907037,548,1481887172407148248,,2.53900003433,1.60063171387,108.997016907,0.00098600005731,1.0,0.0,0.0,0.0,1.0,0.0,0.0,0.0,1.0,0.0,2.19512200356,-0.365853667259,1.0,0.0,0.0,0.0,1.0,0.0,0.0,0.0,1.0,0.268150604204,-0.138863696289,10.2567599121,1.0,0.0,0.0,0.0,1.0,0.0,0.0,0.0,1.0
1481887172432095319,549,1481887172427104196,,2.53442287445,1.5977691412,108.999061584,0.00110200000927,1.0,0.0,0.0,0.0,1.0,0.0,0.0,0.0,1.0,0.18292683363,2.43902444839,-0.12195122242,1.0,0.0,0.0,0.0,1.0,0.0,0.0,0.0,1.0,0.268150604204,-0.134075302102,10.1322614258,1.0,0.0,0.0,0.0,1.0,0.0,0.0,0.0,1.0
1481887172449945080,550,1481887172447862798,,2.52858424187,1.597910285,109.001052856,0.00139500002842,1.0,0.0,0.0,0.0,1.0,0.0,0.0,0.0,1.0,-0.12195122242,2.43902444839,-0.243902444839,1.0,0.0,0.0,0.0,1.0,0.0,0.0,0.0,1.0,0.272938989258,-0.0718260498047,10.2711251221,1.0,0.0,0.0,0.0,1.0,0.0,0.0,0.0,1.0
1481887172471294355,551,1481887172469298479,,2.52643632889,1.59798336029,109.004890442,0.00105399999302,1.0,0.0,0.0,0.0,1.0,0.0,0.0,0.0,1.0,-0.0609756112099,2.62195134163,-0.18292683363,1.0,0.0,0.0,0.0,1.0,0.0,0.0,0.0,1.0,0.201112939453,-0.110133276367,10.2567599121,1.0,0.0,0.0,0.0,1.0,0.0,0.0,0.0,1.0
1481887172491989311,552,1481887172489862550,,2.52698874474,1.59859931469,109.008789062,0.00101600005291,1.0,0.0,0.0,0.0,1.0,0.0,0.0,0.0,1.0,-0.12195122242,2.86585378647,-0.365853667259,1.0,0.0,0.0,0.0,1.0,0.0,0.0,0.0,1.0,0.325611425781,-0.0191536132812,10.180145459,1.0,0.0,0.0,0.0,1.0,0.0,0.0,0.0,1.0
1481887172512838381,553,1481887172510719640,,2.52895188332,1.59867370129,109.010925293,0.00108399998862,1.0,0.0,0.0,0.0,1.0,0.0,0.0,0.0,1.0,-0.426829278469,2.68292689323,-0.426829278469,1.0,0.0,0.0,0.0,1.0,0.0,0.0,0.0,1.0,0.325611425781,-0.105344873047,10.1992990723,1.0,0.0,0.0,0.0,1.0,0.0,0.0,0.0,1.0
1481887172533134224,554,1481887172531138139,,2.53279924393,1.59912061691,109.014297485,0.0010229999898,1.0,0.0,0.0,0.0,1.0,0.0,0.0,0.0,1.0,-0.0609756112099,2.74390244484,-0.487804889679,1.0,0.0,0.0,0.0,1.0,0.0,0.0,0.0,1.0,0.253785375977,-0.167594116211,10.2280294922,1.0,0.0,0.0,0.0,1.0,0.0,0.0,0.0,1.0
1481887172554079074,555,1481887172552018979,,2.53783774376,1.5998262167,109.017868042,0.00105500000063,1.0,0.0,0.0,0.0,1.0,0.0,0.0,0.0,1.0,-0.243902444839,2.68292689323,-0.18292683363,1.0,0.0,0.0,0.0,1.0,0.0,0.0,0.0,1.0,0.287304199219,-0.0335188255255,10.2519715088,1.0,0.0,0.0,0.0,1.0,0.0,0.0,0.0,1.0
1481887172574668093,556,1481887172572458936,,2.54291963577,1.59924542904,109.020278931,0.00102900003549,1.0,0.0,0.0,0.0,1.0,0.0,0.0,0.0,1.0,-0.12195122242,2.74390244484,-0.365853667259,1.0,0.0,0.0,0.0,1.0,0.0,0.0,0.0,1.0,0.344765039063,-0.15322890625,10.180145459,1.0,0.0,0.0,0.0,1.0,0.0,0.0,0.0,1.0
1481887172595384976,557,1481887172593389829,,2.55013132095,1.59746408463,109.022354126,0.0010229999898,1.0,0.0,0.0,0.0,1.0,0.0,0.0,0.0,1.0,0.12195122242,2.74390244484,-0.487804889679,1.0,0.0,0.0,0.0,1.0,0.0,0.0,0.0,1.0,0.248996972656,-0.15322890625,10.1992990723,1.0,0.0,0.0,0.0,1.0,0.0,0.0,0.0,1.0
1481887172616922167,558,1481887172614646657,,2.55815172195,1.59890401363,109.025382996,0.00104300002567,1.0,0.0,0.0,0.0,1.0,0.0,0.0,0.0,1.0,-0.12195122242,2.74390244484,-0.548780500889,1.0,0.0,0.0,0.0,1.0,0.0,0.0,0.0,1.0,0.225054956055,-0.0143652099609,10.3190091553,1.0,0.0,0.0,0.0,1.0,0.0,0.0,0.0,1.0
1481887172637691497,559,1481887172635638174,,2.56381940842,1.59944939613,109.029266357,0.00103899999522,1.0,0.0,0.0,0.0,1.0,0.0,0.0,0.0,1.0,0.0,2.80487799644,-0.243902444839,1.0,0.0,0.0,0.0,1.0,0.0,0.0,0.0,1.0,0.244208569336,-0.0526724365234,10.1083194092,1.0,0.0,0.0,0.0,1.0,0.0,0.0,0.0,1.0
1481887172658651660,560,1481887172656559951,,2.57028365135,1.59886705875,109.03213501,0.0010450000409,1.0,0.0,0.0,0.0,1.0,0.0,0.0,0.0,1.0,0.12195122242,2.62195134163,-0.304878056049,1.0,0.0,0.0,0.0,1.0,0.0,0.0,0.0,1.0,0.282515795898,-0.138863696289,10.2328178955,1.0,0.0,0.0,0.0,1.0,0.0,0.0,0.0,1.0
1481887172682717173,561,1481887172677056679,,2.57900691032,1.60004794598,109.036361694,0.00110500003211,1.0,0.0,0.0,0.0,1.0,0.0,0.0,0.0,1.0,0.0609756112099,2.68292689323,0.0,1.0,0.0,0.0,0.0,1.0,0.0,0.0,0.0,1.0,0.258573779297,-0.0574608398438,10.2184526855,1.0,0.0,0.0,0.0,1.0,0.0,0.0,0.0,1.0
1481887172701160108,562,1481887172697885488,,2.5850417614,1.59963059425,109.038719177,0.00114099995699,1.0,0.0,0.0,0.0,1.0,0.0,0.0,0.0,1.0,0.12195122242,2.86585378647,-0.548780500889,1.0,0.0,0.0,0.0,1.0,0.0,0.0,0.0,1.0,0.244208569336,-0.110133276367,10.2376062988,1.0,0.0,0.0,0.0,1.0,0.0,0.0,0.0,1.0
1481887172721545743,563,1481887172719087473,,2.58720612526,1.59882950783,109.042060852,0.00104600004852,1.0,0.0,0.0,0.0,1.0,0.0,0.0,0.0,1.0,0.0,2.25609779358,-0.304878056049,1.0,0.0,0.0,0.0,1.0,0.0,0.0,0.0,1.0,0.268150604204,-0.124498486328,10.1418382324,1.0,0.0,0.0,0.0,1.0,0.0,0.0,0.0,1.0
1481887172743537619,564,1481887172741333932,,2.58964371681,1.60064566135,109.044067383,0.00105099997018,1.0,0.0,0.0,0.0,1.0,0.0,0.0,0.0,1.0,0.0609756112099,2.31707310677,-0.487804889679,1.0,0.0,0.0,0.0,1.0,0.0,0.0,0.0,1.0,0.181959326172,-0.067037651051,10.285490332,1.0,0.0,0.0,0.0,1.0,0.0,0.0,0.0,1.0
1481887172764486949,565,1481887172762521333,,2.59085440636,1.60157752037,109.048774719,0.00110300001688,1.0,0.0,0.0,0.0,1.0,0.0,0.0,0.0,1.0,-0.18292683363,2.31707310677,-0.426829278469,1.0,0.0,0.0,0.0,1.0,0.0,0.0,0.0,1.0,0.225054956055,-0.129286889648,10.2088758789,1.0,0.0,0.0,0.0,1.0,0.0,0.0,0.0,1.0
1481887172799473192,566,1481887172788275380,,2.59232759476,1.60253703594,109.053611755,0.00797099992633,1.0,0.0,0.0,0.0,1.0,0.0,0.0,0.0,1.0,0.12195122242,2.25609779358,-0.18292683363,1.0,0.0,0.0,0.0,1.0,0.0,0.0,0.0,1.0,0.215478149414,-0.138863696289,10.2280294922,1.0,0.0,0.0,0.0,1.0,0.0,0.0,0.0,1.0
1481887172812300216,567,1481887172808812472,,2.58567047119,1.59964585304,109.056907654,0.00104999996256,1.0,0.0,0.0,0.0,1.0,0.0,0.0,0.0,1.0,-0.18292683363,1.8902438879,-0.365853667259,1.0,0.0,0.0,0.0,1.0,0.0,0.0,0.0,1.0,0.301669427446,-0.129286889648,10.2519715088,1.0,0.0,0.0,0.0,1.0,0.0,0.0,0.0,1.0
1481887172832119967,568,1481887172829267793,,2.57994103432,1.59969830513,109.060722351,0.00101899995934,1.0,0.0,0.0,0.0,1.0,0.0,0.0,0.0,1.0,-0.18292683363,2.19512200356,-0.243902444839,1.0,0.0,0.0,0.0,1.0,0.0,0.0,0.0,1.0,0.339976635742,-0.134075302102,10.1562034424,1.0,0.0,0.0,0.0,1.0,0.0,0.0,0.0,1.0
1481887172853598670,569,1481887172850466184,,2.57439422607,1.60061275959,109.065948486,0.000972000008915,1.0,0.0,0.0,0.0,1.0,0.0,0.0,0.0,1.0,0.12195122242,2.19512200356,-0.426829278469,1.0,0.0,0.0,0.0,1.0,0.0,0.0,0.0,1.0,0.177170922852,-0.134075302102,10.314220752,1.0,0.0,0.0,0.0,1.0,0.0,0.0,0.0,1.0
1481887172874261907,570,1481887172871526711,,2.57158207893,1.60166954994,109.069793701,0.000986999948509,1.0,0.0,0.0,0.0,1.0,0.0,0.0,0.0,1.0,0.0609756112099,2.31707310677,-0.365853667259,1.0,0.0,0.0,0.0,1.0,0.0,0.0,0.0,1.0,0.15801730957,-0.124498486328,10.1322614258,1.0,0.0,0.0,0.0,1.0,0.0,0.0,0.0,1.0
1481887172895140976,571,1481887172892349323,,2.56458306313,1.60141324997,109.073371887,0.00096700002905,1.0,0.0,0.0,0.0,1.0,0.0,0.0,0.0,1.0,-0.12195122242,2.25609779358,-0.365853667259,1.0,0.0,0.0,0.0,1.0,0.0,0.0,0.0,1.0,0.248996972656,-0.124498486328,10.3333743652,1.0,0.0,0.0,0.0,1.0,0.0,0.0,0.0,1.0
1481887172915238122,572,1481887172912947300,,2.55965995789,1.59927880764,109.075958252,0.00100399996154,1.0,0.0,0.0,0.0,1.0,0.0,0.0,0.0,1.0,-0.0609756112099,2.31707310677,-0.426829278469,1.0,0.0,0.0,0.0,1.0,0.0,0.0,0.0,1.0,0.248996972656,-0.148440512063,10.3668931885,1.0,0.0,0.0,0.0,1.0,0.0,0.0,0.0,1.0
1481887172938297702,573,1481887172934233607,,2.55221676826,1.5978038311,109.078384399,0.000967999978457,1.0,0.0,0.0,0.0,1.0,0.0,0.0,0.0,1.0,0.0,2.31707310677,-0.304878056049,1.0,0.0,0.0,0.0,1.0,0.0,0.0,0.0,1.0,0.181959326172,-0.0622492431641,10.1418382324,1.0,0.0,0.0,0.0,1.0,0.0,0.0,0.0,1.0
1481887172958688701,574,1481887172955364706,,2.54676556587,1.5973020792,109.081481934,0.0010529999854,1.0,0.0,0.0,0.0,1.0,0.0,0.0,0.0,1.0,0.0609756112099,2.37804889679,-0.243902444839,1.0,0.0,0.0,0.0,1.0,0.0,0.0,0.0,1.0,0.244208569336,-0.0574608398438,10.1897222656,1.0,0.0,0.0,0.0,1.0,0.0,0.0,0.0,1.0
1481887172980310007,575,1481887172975907632,,2.54166507721,1.5990793705,109.085395813,0.000990999978967,1.0,0.0,0.0,0.0,1.0,0.0,0.0,0.0,1.0,-0.12195122242,2.19512200356,-0.304878056049,1.0,0.0,0.0,0.0,1.0,0.0,0.0,0.0,1.0,0.292092584273,-0.162805712891,10.2807019287,1.0,0.0,0.0,0.0,1.0,0.0,0.0,0.0,1.0
1481887173003085786,576,1481887172996483057,,2.53815746307,1.59927451611,109.089050293,0.000974000024144,1.0,0.0,0.0,0.0,1.0,0.0,0.0,0.0,1.0,0.12195122242,2.43902444839,-0.487804889679,1.0,0.0,0.0,0.0,1.0,0.0,0.0,0.0,1.0,0.253785375977,-0.0957680664062,10.299855542,1.0,0.0,0.0,0.0,1.0,0.0,0.0,0.0,1.0
1481887173020311123,577,1481887173017143169,,2.53718924522,1.59660351276,109.092300415,0.0010150000453,1.0,0.0,0.0,0.0,1.0,0.0,0.0,0.0,1.0,-0.12195122242,2.62195134163,-0.18292683363,1.0,0.0,0.0,0.0,1.0,0.0,0.0,0.0,1.0,0.330399829102,-0.0430956298828,10.1992990723,1.0,0.0,0.0,0.0,1.0,0.0,0.0,0.0,1.0
1481887173041153578,578,1481887173038246352,,2.53981351852,1.59741961956,109.09588623,0.00105399999302,1.0,0.0,0.0,0.0,1.0,0.0,0.0,0.0,1.0,0.12195122242,2.62195134163,-0.365853667259,1.0,0.0,0.0,0.0,1.0,0.0,0.0,0.0,1.0,0.263362164351,-0.110133276367,10.165780249,1.0,0.0,0.0,0.0,1.0,0.0,0.0,0.0,1.0
1481887173064483313,579,1481887173059118911,,2.54331421852,1.59810221195,109.098587036,0.00100299995393,1.0,0.0,0.0,0.0,1.0,0.0,0.0,0.0,1.0,0.0,2.62195134163,-0.426829278469,1.0,0.0,0.0,0.0,1.0,0.0,0.0,0.0,1.0,0.229843359375,-0.0909796630859,10.2136642822,1.0,0.0,0.0,0.0,1.0,0.0,0.0,0.0,1.0
1481887173084846239,580,1481887173082418125,,2.54859542847,1.59582173824,109.102996826,0.00287800002843,1.0,0.0,0.0,0.0,1.0,0.0,0.0,0.0,1.0,-0.18292683363,2.62195134163,0.0,1.0,0.0,0.0,0.0,1.0,0.0,0.0,0.0,1.0,0.244208569336,-0.15322890625,10.3668931885,1.0,0.0,0.0,0.0,1.0,0.0,0.0,0.0,1.0
1481887173105855100,581,1481887173103247091,,2.55190086365,1.59685671329,109.105728149,0.00358400004916,1.0,0.0,0.0,0.0,1.0,0.0,0.0,0.0,1.0,0.0,2.74390244484,-0.426829278469,1.0,0.0,0.0,0.0,1.0,0.0,0.0,0.0,1.0,0.287304199219,-0.114921679688,10.1609918457,1.0,0.0,0.0,0.0,1.0,0.0,0.0,0.0,1.0
1481887173126489639,582,1481887173123937984,,2.55757451057,1.5952078104,109.109062195,0.00109200004954,1.0,0.0,0.0,0.0,1.0,0.0,0.0,0.0,1.0,0.0609756112099,2.86585378647,-0.487804889679,1.0,0.0,0.0,0.0,1.0,0.0,0.0,0.0,1.0,0.244208569336,-0.0957680664062,10.1609918457,1.0,0.0,0.0,0.0,1.0,0.0,0.0,0.0,1.0
1481887173147970268,583,1481887173145299656,,2.56447291374,1.59326457977,109.112571716,0.00112799997441,1.0,0.0,0.0,0.0,1.0,0.0,0.0,0.0,1.0,0.18292683363,2.62195134163,-0.487804889679,1.0,0.0,0.0,0.0,1.0,0.0,0.0,0.0,1.0,0.31124621582,-0.143652099609,10.2136642822,1.0,0.0,0.0,0.0,1.0,0.0,0.0,0.0,1.0
1481887173169156888,584,1481887173166603619,,2.57191848755,1.59494626522,109.114936829,0.000998000032268,1.0,0.0,0.0,0.0,1.0,0.0,0.0,0.0,1.0,-0.0609756112099,2.62195134163,-0.304878056049,1.0,0.0,0.0,0.0,1.0,0.0,0.0,0.0,1.0,0.191536132812,-0.0909796630859,10.0795889893,1.0,0.0,0.0,0.0,1.0,0.0,0.0,0.0,1.0
1481887173189683251,585,1481887173187400397,,2.57692623138,1.59829092026,109.117362976,0.00130200001877,1.0,0.0,0.0,0.0,1.0,0.0,0.0,0.0,1.0,0.0,2.80487799644,-0.548780500889,1.0,0.0,0.0,0.0,1.0,0.0,0.0,0.0,1.0,0.225054956055,-0.0526724365234,10.2759135254,1.0,0.0,0.0,0.0,1.0,0.0,0.0,0.0,1.0
1481887173210549456,586,1481887173207927333,,2.58014082909,1.5987559557,109.121315002,0.00117699999828,1.0,0.0,0.0,0.0,1.0,0.0,0.0,0.0,1.0,-0.12195122242,2.56097555161,-0.426829278469,1.0,0.0,0.0,0.0,1.0,0.0,0.0,0.0,1.0,0.225054956055,-0.0814028564453,10.2040874756,1.0,0.0,0.0,0.0,1.0,0.0,0.0,0.0,1.0
1481887173231229776,587,1481887173228678851,,2.5842564106,1.6022797823,109.125297546,0.00101000000723,1.0,0.0,0.0,0.0,1.0,0.0,0.0,0.0,1.0,-0.0609756112099,2.37804889679,-0.426829278469,1.0,0.0,0.0,0.0,1.0,0.0,0.0,0.0,1.0,0.253785375977,-0.0909796630859,10.1705686523,1.0,0.0,0.0,0.0,1.0,0.0,0.0,0.0,1.0
1481887173252203898,588,1481887173249832971,,2.58692550659,1.60102176666,109.12802124,0.000979000004008,1.0,0.0,0.0,0.0,1.0,0.0,0.0,0.0,1.0,-0.12195122242,2.74390244484,-0.365853667259,1.0,0.0,0.0,0.0,1.0,0.0,0.0,0.0,1.0,0.201112939453,-0.0622492431641,10.1514150391,1.0,0.0,0.0,0.0,1.0,0.0,0.0,0.0,1.0
1481887173273532080,589,1481887173270996050,,2.58973693848,1.59825730324,109.130531311,0.000990999978967,1.0,0.0,0.0,0.0,1.0,0.0,0.0,0.0,1.0,0.18292683363,2.62195134163,-0.243902444839,1.0,0.0,0.0,0.0,1.0,0.0,0.0,0.0,1.0,0.277727392578,-0.124498486328,10.0795889893,1.0,0.0,0.0,0.0,1.0,0.0,0.0,0.0,1.0
1481887173294480367,590,1481887173291988087,,2.58988499641,1.60040390491,109.133590698,0.000981000019237,1.0,0.0,0.0,0.0,1.0,0.0,0.0,0.0,1.0,0.18292683363,2.5,-0.365853667259,1.0,0.0,0.0,0.0,1.0,0.0,0.0,0.0,1.0,0.220266552734,-0.0909796630859,10.2232410889,1.0,0.0,0.0,0.0,1.0,0.0,0.0,0.0,1.0
1481887173316188183,591,1481887173313318509,,2.58979678154,1.60064518452,109.137840271,0.00136200000998,1.0,0.0,0.0,0.0,1.0,0.0,0.0,0.0,1.0,0.0609756112099,2.5,-0.426829278469,1.0,0.0,0.0,0.0,1.0,0.0,0.0,0.0,1.0,0.225054956055,-0.0383072265625,10.3046439453,1.0,0.0,0.0,0.0,1.0,0.0,0.0,0.0,1.0
1481887173336266892,592,1481887173333723831,,2.58951687813,1.59900557995,109.140014648,0.000968999986071,1.0,0.0,0.0,0.0,1.0,0.0,0.0,0.0,1.0,-0.12195122242,2.5,-0.304878056049,1.0,0.0,0.0,0.0,1.0,0.0,0.0,0.0,1.0,0.268150604204,-0.0718260498047,10.2950671387,1.0,0.0,0.0,0.0,1.0,0.0,0.0,0.0,1.0
1481887173356743463,593,1481887173354188735,,2.58973503113,1.60234224796,109.144515991,0.000981000019237,1.0,0.0,0.0,0.0,1.0,0.0,0.0,0.0,1.0,0.0,2.68292689323,-0.304878056049,1.0,0.0,0.0,0.0,1.0,0.0,0.0,0.0,1.0,0.287304199219,-0.076614453125,10.2902787354,1.0,0.0,0.0,0.0,1.0,0.0,0.0,0.0,1.0
1481887173377489148,594,1481887173374994889,,2.58884739876,1.60346245766,109.146911621,0.000986999948509,1.0,0.0,0.0,0.0,1.0,0.0,0.0,0.0,1.0,0.0609756112099,2.43902444839,-0.365853667259,1.0,0.0,0.0,0.0,1.0,0.0,0.0,0.0,1.0,0.359130249023,-0.105344873047,10.180145459,1.0,0.0,0.0,0.0,1.0,0.0,0.0,0.0,1.0
1481887173402023357,595,1481887173396534476,,2.5869717598,1.60414433479,109.149971008,0.000986999948509,1.0,0.0,0.0,0.0,1.0,0.0,0.0,0.0,1.0,0.12195122242,2.43902444839,-0.365853667259,1.0,0.0,0.0,0.0,1.0,0.0,0.0,0.0,1.0,0.229843359375,-0.119710083008,10.2376062988,1.0,0.0,0.0,0.0,1.0,0.0,0.0,0.0,1.0
1481887173419633118,596,1481887173417035839,,2.58612680435,1.6025916338,109.154136658,0.00107400002889,1.0,0.0,0.0,0.0,1.0,0.0,0.0,0.0,1.0,-0.18292683363,2.56097555161,-0.487804889679,1.0,0.0,0.0,0.0,1.0,0.0,0.0,0.0,1.0,0.287304199219,-0.119710083008,10.2280294922,1.0,0.0,0.0,0.0,1.0,0.0,0.0,0.0,1.0
1481887173444138473,597,1481887173437781419,,2.5843770504,1.60210800171,109.15687561,0.00113099999726,1.0,0.0,0.0,0.0,1.0,0.0,0.0,0.0,1.0,0.0,2.19512200356,-0.365853667259,1.0,0.0,0.0,0.0,1.0,0.0,0.0,0.0,1.0,0.263362164351,-0.0861912597656,10.2040874756,1.0,0.0,0.0,0.0,1.0,0.0,0.0,0.0,1.0
1481887173463749944,598,1481887173461203810,,2.58285903931,1.60348689556,109.162124634,0.00101899995934,1.0,0.0,0.0,0.0,1.0,0.0,0.0,0.0,1.0,-0.12195122242,2.68292689323,-0.0609756112099,1.0,0.0,0.0,0.0,1.0,0.0,0.0,0.0,1.0,0.378283862305,-0.110133276367,10.1322614258,1.0,0.0,0.0,0.0,1.0,0.0,0.0,0.0,1.0
1481887173483958756,599,1481887173481400435,,2.58160948753,1.60236251354,109.166404724,0.00268799997866,1.0,0.0,0.0,0.0,1.0,0.0,0.0,0.0,1.0,-0.243902444839,2.5,-0.365853667259,1.0,0.0,0.0,0.0,1.0,0.0,0.0,0.0,1.0,0.258573779297,-0.177170922852,10.2040874756,1.0,0.0,0.0,0.0,1.0,0.0,0.0,0.0,1.0
1481887173504975898,600,1481887173502828669,,2.58129072189,1.60209000111,109.170059204,0.0014230000088,1.0,0.0,0.0,0.0,1.0,0.0,0.0,0.0,1.0,-0.18292683363,2.19512200356,-0.0609756112099,1.0,0.0,0.0,0.0,1.0,0.0,0.0,0.0,1.0,0.201112939453,-0.110133276367,10.1466266357,1.0,0.0,0.0,0.0,1.0,0.0,0.0,0.0,1.0
1481887173526367465,601,1481887173523804508,,2.58094215393,1.60156369209,109.172927856,0.00107300002128,1.0,0.0,0.0,0.0,1.0,0.0,0.0,0.0,1.0,-0.12195122242,2.68292689323,-0.304878056049,1.0,0.0,0.0,0.0,1.0,0.0,0.0,0.0,1.0,0.292092584273,-0.076614453125,10.2088758789,1.0,0.0,0.0,0.0,1.0,0.0,0.0,0.0,1.0
1481887173547938563,602,1481887173545339252,,2.58118653297,1.60103964806,109.177330017,0.00117099995259,1.0,0.0,0.0,0.0,1.0,0.0,0.0,0.0,1.0,-0.18292683363,2.56097555161,-0.365853667259,1.0,0.0,0.0,0.0,1.0,0.0,0.0,0.0,1.0,0.31124621582,-0.0383072265625,10.2376062988,1.0,0.0,0.0,0.0,1.0,0.0,0.0,0.0,1.0
1481887173568852893,603,1481887173566206082,,2.58000802994,1.60363924503,109.181114197,0.0010150000453,1.0,0.0,0.0,0.0,1.0,0.0,0.0,0.0,1.0,0.0609756112099,2.5,-0.304878056049,1.0,0.0,0.0,0.0,1.0,0.0,0.0,0.0,1.0,0.225054956055,-0.129286889648,10.2136642822,1.0,0.0,0.0,0.0,1.0,0.0,0.0,0.0,1.0
1481887173589047486,604,1481887173586902027,,2.58339715004,1.60387694836,109.185562134,0.000981000019237,1.0,0.0,0.0,0.0,1.0,0.0,0.0,0.0,1.0,-0.243902444839,2.43902444839,-0.243902444839,1.0,0.0,0.0,0.0,1.0,0.0,0.0,0.0,1.0,0.330399829102,-0.0957680664062,10.1274730225,1.0,0.0,0.0,0.0,1.0,0.0,0.0,0.0,1.0
1481887173610000461,605,1481887173607386255,,2.58727121353,1.60468924046,109.18825531,0.00112399994396,1.0,0.0,0.0,0.0,1.0,0.0,0.0,0.0,1.0,-0.0609756112099,2.80487799644,-0.12195122242,1.0,0.0,0.0,0.0,1.0,0.0,0.0,0.0,1.0,0.287304199219,-0.0143652099609,10.2807019287,1.0,0.0,0.0,0.0,1.0,0.0,0.0,0.0,1.0
1481887173632364003,606,1481887173628186835,,2.58985853195,1.60243940353,109.191574097,0.00101400003769,1.0,0.0,0.0,0.0,1.0,0.0,0.0,0.0,1.0,-0.0609756112099,2.62195134163,-0.18292683363,1.0,0.0,0.0,0.0,1.0,0.0,0.0,0.0,1.0,0.263362164351,-0.0526724365234,10.2807019287,1.0,0.0,0.0,0.0,1.0,0.0,0.0,0.0,1.0
1481887173651889121,607,1481887173649529132,,2.59426403046,1.60396981239,109.196250916,0.000969999993686,1.0,0.0,0.0,0.0,1.0,0.0,0.0,0.0,1.0,-0.0609756112099,2.68292689323,-0.0609756112099,1.0,0.0,0.0,0.0,1.0,0.0,0.0,0.0,1.0,0.229843359375,-0.0478840332031,10.285490332,1.0,0.0,0.0,0.0,1.0,0.0,0.0,0.0,1.0
1481887173672969804,608,1481887173670794449,,2.59930634499,1.60326993465,109.199897766,0.000986999948509,1.0,0.0,0.0,0.0,1.0,0.0,0.0,0.0,1.0,0.0,2.74390244484,-0.12195122242,1.0,0.0,0.0,0.0,1.0,0.0,0.0,0.0,1.0,0.248996972656,-0.0861912597656,10.2328178955,1.0,0.0,0.0,0.0,1.0,0.0,0.0,0.0,1.0
1481887173694541005,609,1481887173692140027,,2.60379433632,1.60146963596,109.203704834,0.00107700005174,1.0,0.0,0.0,0.0,1.0,0.0,0.0,0.0,1.0,0.12195122242,2.86585378647,-0.243902444839,1.0,0.0,0.0,0.0,1.0,0.0,0.0,0.0,1.0,0.234631762695,-0.0814028564453,10.3237975586,1.0,0.0,0.0,0.0,1.0,0.0,0.0,0.0,1.0
1481887173715861740,610,1481887173713474511,,2.60727214813,1.60206019878,109.206993103,0.000972000008915,1.0,0.0,0.0,0.0,1.0,0.0,0.0,0.0,1.0,-0.0609756112099,2.56097555161,-0.365853667259,1.0,0.0,0.0,0.0,1.0,0.0,0.0,0.0,1.0,0.296881024126,-0.076614453125,10.2232410889,1.0,0.0,0.0,0.0,1.0,0.0,0.0,0.0,1.0
1481887173737361796,611,1481887173734609361,,2.60750937462,1.6020488739,109.209480286,0.000980000011623,1.0,0.0,0.0,0.0,1.0,0.0,0.0,0.0,1.0,-0.18292683363,2.56097555161,-0.609756112099,1.0,0.0,0.0,0.0,1.0,0.0,0.0,0.0,1.0,0.359130249023,0.0430956298828,10.2280294922,1.0,0.0,0.0,0.0,1.0,0.0,0.0,0.0,1.0
1481887173758319823,612,1481887173755598898,,2.60832667351,1.60048699379,109.212814331,0.000965000013821,1.0,0.0,0.0,0.0,1.0,0.0,0.0,0.0,1.0,0.12195122242,2.5,-0.548780500889,1.0,0.0,0.0,0.0,1.0,0.0,0.0,0.0,1.0,0.268150604204,-0.0622492431641,10.1609918457,1.0,0.0,0.0,0.0,1.0,0.0,0.0,0.0,1.0
1481887173780924822,613,1481887173777197808,,2.60601139069,1.60001909733,109.21572113,0.00109899998643,1.0,0.0,0.0,0.0,1.0,0.0,0.0,0.0,1.0,-0.18292683363,2.13414645195,-0.18292683363,1.0,0.0,0.0,0.0,1.0,0.0,0.0,0.0,1.0,0.239420166016,-0.148440512063,10.2040874756,1.0,0.0,0.0,0.0,1.0,0.0,0.0,0.0,1.0
1481887173803543311,614,1481887173798185054,,2.60407447815,1.60003376007,109.219581604,0.00108199997339,1.0,0.0,0.0,0.0,1.0,0.0,0.0,0.0,1.0,0.0609756112099,2.31707310677,-0.365853667259,1.0,0.0,0.0,0.0,1.0,0.0,0.0,0.0,1.0,0.268150604204,-0.0383072265625,10.3046439453,1.0,0.0,0.0,0.0,1.0,0.0,0.0,0.0,1.0
1481887173821633747,615,1481887173819273029,,2.59947991371,1.60008049011,109.22354126,0.00149399996735,1.0,0.0,0.0,0.0,1.0,0.0,0.0,0.0,1.0,-0.12195122242,2.25609779358,-0.243902444839,1.0,0.0,0.0,0.0,1.0,0.0,0.0,0.0,1.0,0.263362164351,-0.148440512063,10.1370498291,1.0,0.0,0.0,0.0,1.0,0.0,0.0,0.0,1.0
1481887173844903951,616,1481887173840295535,,2.59627127647,1.601816535,109.226127625,0.00124300003517,1.0,0.0,0.0,0.0,1.0,0.0,0.0,0.0,1.0,-0.243902444839,2.19512200356,-0.365853667259,1.0,0.0,0.0,0.0,1.0,0.0,0.0,0.0,1.0,0.234631762695,-0.134075302102,10.2423947021,1.0,0.0,0.0,0.0,1.0,0.0,0.0,0.0,1.0
1481887173864081518,617,1481887173861279656,,2.58894467354,1.60147082806,109.229377747,0.00121100002434,1.0,0.0,0.0,0.0,1.0,0.0,0.0,0.0,1.0,0.0609756112099,2.43902444839,-0.243902444839,1.0,0.0,0.0,0.0,1.0,0.0,0.0,0.0,1.0,0.344765039063,-0.143652099609,10.2615483154,1.0,0.0,0.0,0.0,1.0,0.0,0.0,0.0,1.0
1481887173884501215,618,1481887173882310704,,2.58610415459,1.60156214237,109.231460571,0.00149499997497,1.0,0.0,0.0,0.0,1.0,0.0,0.0,0.0,1.0,-0.12195122242,2.19512200356,-0.304878056049,1.0,0.0,0.0,0.0,1.0,0.0,0.0,0.0,1.0,0.301669427446,-0.105344873047,10.2950671387,1.0,0.0,0.0,0.0,1.0,0.0,0.0,0.0,1.0
1481887173905970803,619,1481887173903557949,,2.58072471619,1.5997055769,109.235733032,0.00179899996147,1.0,0.0,0.0,0.0,1.0,0.0,0.0,0.0,1.0,-0.12195122242,2.37804889679,-0.365853667259,1.0,0.0,0.0,0.0,1.0,0.0,0.0,0.0,1.0,0.196324536133,-0.076614453125,10.1945106689,1.0,0.0,0.0,0.0,1.0,0.0,0.0,0.0,1.0
1481887173926123417,620,1481887173923699522,,2.57393240929,1.59923291206,109.239349365,0.00150500005111,1.0,0.0,0.0,0.0,1.0,0.0,0.0,0.0,1.0,0.0,2.19512200356,-0.365853667259,1.0,0.0,0.0,0.0,1.0,0.0,0.0,0.0,1.0,0.177170922852,-0.124498486328,10.2423947021,1.0,0.0,0.0,0.0,1.0,0.0,0.0,0.0,1.0
1481887173947418683,621,1481887173944834268,,2.56369519234,1.60069215298,109.244194031,0.00135000003502,1.0,0.0,0.0,0.0,1.0,0.0,0.0,0.0,1.0,-0.18292683363,2.25609779358,-0.304878056049,1.0,0.0,0.0,0.0,1.0,0.0,0.0,0.0,1.0,0.292092584273,-0.119710083008,10.180145459,1.0,0.0,0.0,0.0,1.0,0.0,0.0,0.0,1.0
1481887173967946764,622,1481887173965398651,,2.55788898468,1.59856271744,109.247459412,0.00130600004923,1.0,0.0,0.0,0.0,1.0,0.0,0.0,0.0,1.0,0.0609756112099,2.31707310677,-0.426829278469,1.0,0.0,0.0,0.0,1.0,0.0,0.0,0.0,1.0,0.325611425781,-0.114921679688,10.3477395752,1.0,0.0,0.0,0.0,1.0,0.0,0.0,0.0,1.0
1481887173988872344,623,1481887173986536834,,2.55334663391,1.5992538929,109.250144958,0.00127799995244,1.0,0.0,0.0,0.0,1.0,0.0,0.0,0.0,1.0,-0.12195122242,2.31707310677,-0.426829278469,1.0,0.0,0.0,0.0,1.0,0.0,0.0,0.0,1.0,0.296881024126,-0.110133276367,10.285490332,1.0,0.0,0.0,0.0,1.0,0.0,0.0,0.0,1.0
1481887174010067297,624,1481887174007489080,,2.55198597908,1.59931635857,109.253448486,0.00116500002332,1.0,0.0,0.0,0.0,1.0,0.0,0.0,0.0,1.0,0.18292683363,2.43902444839,-0.365853667259,1.0,0.0,0.0,0.0,1.0,0.0,0.0,0.0,1.0,0.31124621582,-0.143652099609,10.2567599121,1.0,0.0,0.0,0.0,1.0,0.0,0.0,0.0,1.0
1481887174030829701,625,1481887174028301848,,2.55336785316,1.59899508953,109.255561829,0.00109899998643,1.0,0.0,0.0,0.0,1.0,0.0,0.0,0.0,1.0,0.12195122242,2.62195134163,-0.487804889679,1.0,0.0,0.0,0.0,1.0,0.0,0.0,0.0,1.0,0.234631762695,-0.134075302102,10.3573163818,1.0,0.0,0.0,0.0,1.0,0.0,0.0,0.0,1.0
1481887174051623250,626,1481887174049089616,,2.55424141884,1.59875631332,109.259750366,0.00134499999695,1.0,0.0,0.0,0.0,1.0,0.0,0.0,0.0,1.0,0.0,2.62195134163,-0.18292683363,1.0,0.0,0.0,0.0,1.0,0.0,0.0,0.0,1.0,0.205901342773,-0.143652099609,10.2807019287,1.0,0.0,0.0,0.0,1.0,0.0,0.0,0.0,1.0
1481887174072256643,627,1481887174069781446,,2.55492854118,1.59937906265,109.263526917,0.00105199997779,1.0,0.0,0.0,0.0,1.0,0.0,0.0,0.0,1.0,-0.0609756112099,2.74390244484,-0.0609756112099,1.0,0.0,0.0,0.0,1.0,0.0,0.0,0.0,1.0,0.225054956055,-0.129286889648,10.1945106689,1.0,0.0,0.0,0.0,1.0,0.0,0.0,0.0,1.0
1481887174093288420,628,1481887174090561193,,2.55605387688,1.59845793247,109.265975952,0.0011190000223,1.0,0.0,0.0,0.0,1.0,0.0,0.0,0.0,1.0,0.0,2.68292689323,-0.426829278469,1.0,0.0,0.0,0.0,1.0,0.0,0.0,0.0,1.0,0.239420166016,-0.167594116211,10.2807019287,1.0,0.0,0.0,0.0,1.0,0.0,0.0,0.0,1.0
1481887174113808325,629,1481887174111306149,,2.55887937546,1.5975522995,109.269752502,0.00108299998101,1.0,0.0,0.0,0.0,1.0,0.0,0.0,0.0,1.0,0.0,2.74390244484,-0.487804889679,1.0,0.0,0.0,0.0,1.0,0.0,0.0,0.0,1.0,0.292092584273,-0.124498486328,10.2136642822,1.0,0.0,0.0,0.0,1.0,0.0,0.0,0.0,1.0
1481887174135023851,630,1481887174132640321,,2.56339430809,1.59807622433,109.273017883,0.00117099995259,1.0,0.0,0.0,0.0,1.0,0.0,0.0,0.0,1.0,-0.0609756112099,2.56097555161,-0.304878056049,1.0,0.0,0.0,0.0,1.0,0.0,0.0,0.0,1.0,0.234631762695,-0.0909796630859,10.1418382324,1.0,0.0,0.0,0.0,1.0,0.0,0.0,0.0,1.0
1481887174159664205,631,1481887174154185949,,2.56555485725,1.59870970249,109.275863647,0.00121300003957,1.0,0.0,0.0,0.0,1.0,0.0,0.0,0.0,1.0,-0.18292683363,2.68292689323,-0.365853667259,1.0,0.0,0.0,0.0,1.0,0.0,0.0,0.0,1.0,0.201112939453,-0.119710083008,10.1753570557,1.0,0.0,0.0,0.0,1.0,0.0,0.0,0.0,1.0
1481887174184985337,632,1481887174180300984,,2.56631112099,1.59692311287,109.279335022,0.00120399997104,1.0,0.0,0.0,0.0,1.0,0.0,0.0,0.0,1.0,-0.304878056049,2.56097555161,-0.365853667259,1.0,0.0,0.0,0.0,1.0,0.0,0.0,0.0,1.0,0.191536132812,-0.15801730957,10.3046439453,1.0,0.0,0.0,0.0,1.0,0.0,0.0,0.0,1.0
1481887174200621827,633,1481887174196367784,,2.56558394432,1.60001146793,109.283348083,0.000998000032268,1.0,0.0,0.0,0.0,1.0,0.0,0.0,0.0,1.0,-0.12195122242,2.43902444839,-0.426829278469,1.0,0.0,0.0,0.0,1.0,0.0,0.0,0.0,1.0,0.292092584273,-0.110133276367,10.1466266357,1.0,0.0,0.0,0.0,1.0,0.0,0.0,0.0,1.0
1481887174222995317,634,1481887174217592790,,2.56560277939,1.5994925499,109.287322998,0.00109999999404,1.0,0.0,0.0,0.0,1.0,0.0,0.0,0.0,1.0,0.0,2.56097555161,-0.304878056049,1.0,0.0,0.0,0.0,1.0,0.0,0.0,0.0,1.0,0.244208569336,-0.0574608398438,10.2328178955,1.0,0.0,0.0,0.0,1.0,0.0,0.0,0.0,1.0
1481887174242971057,635,1481887174238506963,,2.56738471985,1.5995824337,109.290092468,0.000995000009425,1.0,0.0,0.0,0.0,1.0,0.0,0.0,0.0,1.0,-0.12195122242,2.56097555161,-0.548780500889,1.0,0.0,0.0,0.0,1.0,0.0,0.0,0.0,1.0,0.234631762695,-0.143652099609,10.2232410889,1.0,0.0,0.0,0.0,1.0,0.0,0.0,0.0,1.0
1481887174264088980,636,1481887174259677958,,2.56713604927,1.6001803875,109.29322052,0.000998000032268,1.0,0.0,0.0,0.0,1.0,0.0,0.0,0.0,1.0,0.18292683363,2.56097555161,-0.0609756112099,1.0,0.0,0.0,0.0,1.0,0.0,0.0,0.0,1.0,0.239420166016,-0.0718260498047,10.2040874756,1.0,0.0,0.0,0.0,1.0,0.0,0.0,0.0,1.0
1481887174285908461,637,1481887174281959573,,2.56684494019,1.59812223911,109.296646118,0.00439100014046,1.0,0.0,0.0,0.0,1.0,0.0,0.0,0.0,1.0,-0.243902444839,2.25609779358,-0.304878056049,1.0,0.0,0.0,0.0,1.0,0.0,0.0,0.0,1.0,0.191536132812,-0.119710083008,10.2184526855,1.0,0.0,0.0,0.0,1.0,0.0,0.0,0.0,1.0
1481887174307625964,638,1481887174304389990,,2.565721035,1.59908628464,109.299751282,0.00321400002576,1.0,0.0,0.0,0.0,1.0,0.0,0.0,0.0,1.0,0.0609756112099,2.19512200356,-0.365853667259,1.0,0.0,0.0,0.0,1.0,0.0,0.0,0.0,1.0,0.287304199219,-0.114921679688,10.1418382324,1.0,0.0,0.0,0.0,1.0,0.0,0.0,0.0,1.0
1481887174327770975,639,1481887174325088591,,2.56027126312,1.60170006752,109.302459717,0.00127899996005,1.0,0.0,0.0,0.0,1.0,0.0,0.0,0.0,1.0,0.12195122242,2.25609779358,-0.365853667259,1.0,0.0,0.0,0.0,1.0,0.0,0.0,0.0,1.0,0.258573779297,-0.076614453125,10.1945106689,1.0,0.0,0.0,0.0,1.0,0.0,0.0,0.0,1.0
1481887174350692222,640,1481887174347335884,,2.56233978271,1.60286569595,109.309020996,0.00117900001351,1.0,0.0,0.0,0.0,1.0,0.0,0.0,0.0,1.0,0.12195122242,2.43902444839,-0.365853667259,1.0,0.0,0.0,0.0,1.0,0.0,0.0,0.0,1.0,0.210689746094,-0.110133276367,10.285490332,1.0,0.0,0.0,0.0,1.0,0.0,0.0,0.0,1.0
1481887174370916920,641,1481887174367320166,,2.55784440041,1.60138368607,109.311904907,0.00146499997936,1.0,0.0,0.0,0.0,1.0,0.0,0.0,0.0,1.0,0.0,2.31707310677,-0.487804889679,1.0,0.0,0.0,0.0,1.0,0.0,0.0,0.0,1.0,0.239420166016,-0.162805712891,10.1897222656,1.0,0.0,0.0,0.0,1.0,0.0,0.0,0.0,1.0
1481887174391195419,642,1481887174388036163,,2.55508589745,1.5991268158,109.315994263,0.00139300001319,1.0,0.0,0.0,0.0,1.0,0.0,0.0,0.0,1.0,0.18292683363,2.31707310677,-0.18292683363,1.0,0.0,0.0,0.0,1.0,0.0,0.0,0.0,1.0,0.229843359375,-0.129286889648,10.2567599121,1.0,0.0,0.0,0.0,1.0,0.0,0.0,0.0,1.0
1481887174412288967,643,1481887174409073878,,2.55238080025,1.6000623703,109.319351196,0.00109100004192,1.0,0.0,0.0,0.0,1.0,0.0,0.0,0.0,1.0,-0.0609756112099,2.5,-0.304878056049,1.0,0.0,0.0,0.0,1.0,0.0,0.0,0.0,1.0,0.215478149414,-0.124498486328,10.2232410889,1.0,0.0,0.0,0.0,1.0,0.0,0.0,0.0,1.0
1481887174432834600,644,1481887174429867843,,2.55225944519,1.60120105743,109.32219696,0.00122199999169,1.0,0.0,0.0,0.0,1.0,0.0,0.0,0.0,1.0,0.0,2.56097555161,-0.487804889679,1.0,0.0,0.0,0.0,1.0,0.0,0.0,0.0,1.0,0.277727392578,-0.15801730957,10.1945106689,1.0,0.0,0.0,0.0,1.0,0.0,0.0,0.0,1.0
1481887174455055330,645,1481887174451360035,,2.5536005497,1.60175549984,109.326408386,0.00104400003329,1.0,0.0,0.0,0.0,1.0,0.0,0.0,0.0,1.0,-0.18292683363,2.56097555161,-0.304878056049,1.0,0.0,0.0,0.0,1.0,0.0,0.0,0.0,1.0,0.181959326172,-0.0957680664062,10.2184526855,1.0,0.0,0.0,0.0,1.0,0.0,0.0,0.0,1.0
1481887174476410335,646,1481887174472629467,,2.55108094215,1.59980714321,109.329483032,0.00129100005142,1.0,0.0,0.0,0.0,1.0,0.0,0.0,0.0,1.0,0.0,2.43902444839,-0.487804889679,1.0,0.0,0.0,0.0,1.0,0.0,0.0,0.0,1.0,0.287304199219,-0.15801730957,10.1945106689,1.0,0.0,0.0,0.0,1.0,0.0,0.0,0.0,1.0
1481887174498713304,647,1481887174493942389,,2.55115652084,1.60072004795,109.332542419,0.00115899997763,1.0,0.0,0.0,0.0,1.0,0.0,0.0,0.0,1.0,0.0,2.43902444839,-0.426829278469,1.0,0.0,0.0,0.0,1.0,0.0,0.0,0.0,1.0,0.282515795898,-0.0718260498047,10.1370498291,1.0,0.0,0.0,0.0,1.0,0.0,0.0,0.0,1.0
1481887174517615091,648,1481887174514685001,,2.55293679237,1.60058701038,109.334945679,0.00112799997441,1.0,0.0,0.0,0.0,1.0,0.0,0.0,0.0,1.0,0.0609756112099,2.62195134163,-0.304878056049,1.0,0.0,0.0,0.0,1.0,0.0,0.0,0.0,1.0,0.205901342773,-0.0909796630859,10.2423947021,1.0,0.0,0.0,0.0,1.0,0.0,0.0,0.0,1.0
1481887174540562589,649,1481887174536495628,,2.55353283882,1.60229575634,109.338478088,0.00123499997426,1.0,0.0,0.0,0.0,1.0,0.0,0.0,0.0,1.0,0.12195122242,2.56097555161,-0.487804889679,1.0,0.0,0.0,0.0,1.0,0.0,0.0,0.0,1.0,0.258573779297,-0.124498486328,10.1897222656,1.0,0.0,0.0,0.0,1.0,0.0,0.0,0.0,1.0
1481887174561661917,650,1481887174557621884,,2.55663633347,1.60591423512,109.342552185,0.0016459999606,1.0,0.0,0.0,0.0,1.0,0.0,0.0,0.0,1.0,0.0,2.68292689323,-0.487804889679,1.0,0.0,0.0,0.0,1.0,0.0,0.0,0.0,1.0,0.225054956055,-0.167594116211,10.2040874756,1.0,0.0,0.0,0.0,1.0,0.0,0.0,0.0,1.0
1481887174582321457,651,1481887174578463714,,2.55672669411,1.60625624657,109.345817566,0.00125400000252,1.0,0.0,0.0,0.0,1.0,0.0,0.0,0.0,1.0,0.0609756112099,2.31707310677,-0.18292683363,1.0,0.0,0.0,0.0,1.0,0.0,0.0,0.0,1.0,0.210689746094,-0.220266552734,10.180145459,1.0,0.0,0.0,0.0,1.0,0.0,0.0,0.0,1.0
1481887174602781778,652,1481887174599169503,,2.55697798729,1.6068508625,109.349601746,0.00139300001319,1.0,0.0,0.0,0.0,1.0,0.0,0.0,0.0,1.0,-0.243902444839,2.25609779358,-0.304878056049,1.0,0.0,0.0,0.0,1.0,0.0,0.0,0.0,1.0,0.248996972656,-0.134075302102,10.2950671387,1.0,0.0,0.0,0.0,1.0,0.0,0.0,0.0,1.0
1481887174623827618,653,1481887174620150864,,2.55856490135,1.60821306705,109.353897095,0.00109999999404,1.0,0.0,0.0,0.0,1.0,0.0,0.0,0.0,1.0,0.0609756112099,2.56097555161,-0.18292683363,1.0,0.0,0.0,0.0,1.0,0.0,0.0,0.0,1.0,0.277727392578,-0.129286889648,10.2088758789,1.0,0.0,0.0,0.0,1.0,0.0,0.0,0.0,1.0
1481887174644038044,654,1481887174641020246,,2.56438827515,1.60705721378,109.356544495,0.00104100001045,1.0,0.0,0.0,0.0,1.0,0.0,0.0,0.0,1.0,0.12195122242,2.74390244484,-0.243902444839,1.0,0.0,0.0,0.0,1.0,0.0,0.0,0.0,1.0,0.205901342773,-0.162805712891,10.2040874756,1.0,0.0,0.0,0.0,1.0,0.0,0.0,0.0,1.0
1481887174664028993,655,1481887174660825518,,2.56755399704,1.60650420189,109.359458923,0.00117199996021,1.0,0.0,0.0,0.0,1.0,0.0,0.0,0.0,1.0,0.0609756112099,2.5,-0.426829278469,1.0,0.0,0.0,0.0,1.0,0.0,0.0,0.0,1.0,0.320823022461,-0.067037651051,10.2136642822,1.0,0.0,0.0,0.0,1.0,0.0,0.0,0.0,1.0
1481887174685402123,656,1481887174682643959,,2.56918025017,1.6065787077,109.364448547,0.00174300000072,1.0,0.0,0.0,0.0,1.0,0.0,0.0,0.0,1.0,0.0609756112099,2.25609779358,-0.18292683363,1.0,0.0,0.0,0.0,1.0,0.0,0.0,0.0,1.0,0.248996972656,-0.220266552734,10.2280294922,1.0,0.0,0.0,0.0,1.0,0.0,0.0,0.0,1.0
1481887174706780200,657,1481887174703909328,,2.56945490837,1.6054867506,109.366821289,0.00110200000927,1.0,0.0,0.0,0.0,1.0,0.0,0.0,0.0,1.0,-0.0609756112099,2.25609779358,-0.18292683363,1.0,0.0,0.0,0.0,1.0,0.0,0.0,0.0,1.0,0.215478149414,-0.0909796630859,10.2376062988,1.0,0.0,0.0,0.0,1.0,0.0,0.0,0.0,1.0
1481887174728287600,658,1481887174724576836,,2.57004237175,1.60509026051,109.369850159,0.00117699999828,1.0,0.0,0.0,0.0,1.0,0.0,0.0,0.0,1.0,-0.0609756112099,2.25609779358,-0.18292683363,1.0,0.0,0.0,0.0,1.0,0.0,0.0,0.0,1.0,0.220266552734,-0.0622492431641,10.1322614258,1.0,0.0,0.0,0.0,1.0,0.0,0.0,0.0,1.0
1481887174747993967,659,1481887174746141840,,2.56946730614,1.6042368412,109.374382019,0.00119800004177,1.0,0.0,0.0,0.0,1.0,0.0,0.0,0.0,1.0,-0.0609756112099,2.25609779358,-0.426829278469,1.0,0.0,0.0,0.0,1.0,0.0,0.0,0.0,1.0,0.162805712891,-0.0814028564453,10.1945106689,1.0,0.0,0.0,0.0,1.0,0.0,0.0,0.0,1.0
1481887174769746522,660,1481887174766815494,,2.57120943069,1.60500729084,109.378211975,0.00107500003651,1.0,0.0,0.0,0.0,1.0,0.0,0.0,0.0,1.0,-0.0609756112099,2.31707310677,-0.487804889679,1.0,0.0,0.0,0.0,1.0,0.0,0.0,0.0,1.0,0.253785375977,-0.067037651051,10.1753570557,1.0,0.0,0.0,0.0,1.0,0.0,0.0,0.0,1.0
1481887174790085698,661,1481887174787431544,,2.56651854515,1.60625243187,109.38155365,0.00154399999883,1.0,0.0,0.0,0.0,1.0,0.0,0.0,0.0,1.0,0.0609756112099,2.31707310677,-0.18292683363,1.0,0.0,0.0,0.0,1.0,0.0,0.0,0.0,1.0,0.244208569336,-0.114921679688,10.2519715088,1.0,0.0,0.0,0.0,1.0,0.0,0.0,0.0,1.0
1481887174812399084,662,1481887174809026443,,2.5621778965,1.60245239735,109.385482788,0.00106200005393,1.0,0.0,0.0,0.0,1.0,0.0,0.0,0.0,1.0,-0.0609756112099,2.31707310677,-0.426829278469,1.0,0.0,0.0,0.0,1.0,0.0,0.0,0.0,1.0,0.292092584273,-0.0287304199219,10.3429511719,1.0,0.0,0.0,0.0,1.0,0.0,0.0,0.0,1.0
1481887174832705916,663,1481887174830181657,,2.55884814262,1.59835755825,109.38924408,0.00136800005566,1.0,0.0,0.0,0.0,1.0,0.0,0.0,0.0,1.0,0.0,2.43902444839,-0.243902444839,1.0,0.0,0.0,0.0,1.0,0.0,0.0,0.0,1.0,0.263362164351,-0.0957680664062,10.1705686523,1.0,0.0,0.0,0.0,1.0,0.0,0.0,0.0,1.0
1481887174853922953,664,1481887174851366923,,2.55469870567,1.59681975842,109.392402649,0.00110800005496,1.0,0.0,0.0,0.0,1.0,0.0,0.0,0.0,1.0,-0.0609756112099,2.43902444839,-0.243902444839,1.0,0.0,0.0,0.0,1.0,0.0,0.0,0.0,1.0,0.268150604204,-0.0526724365234,10.2471831055,1.0,0.0,0.0,0.0,1.0,0.0,0.0,0.0,1.0
1481887174875347957,665,1481887174872809219,,2.55148649216,1.59771263599,109.396400452,0.00106299994513,1.0,0.0,0.0,0.0,1.0,0.0,0.0,0.0,1.0,0.0,2.37804889679,-0.243902444839,1.0,0.0,0.0,0.0,1.0,0.0,0.0,0.0,1.0,0.272938989258,-0.076614453125,10.2088758789,1.0,0.0,0.0,0.0,1.0,0.0,0.0,0.0,1.0
1481887174899861020,666,1481887174894439744,,2.54887247086,1.59682142735,109.399475098,0.00110800005496,1.0,0.0,0.0,0.0,1.0,0.0,0.0,0.0,1.0,0.0,2.19512200356,-0.243902444839,1.0,0.0,0.0,0.0,1.0,0.0,0.0,0.0,1.0,0.268150604204,-0.172382519531,10.2519715088,1.0,0.0,0.0,0.0,1.0,0.0,0.0,0.0,1.0
1481887174918469788,667,1481887174915680634,,2.54493117332,1.59636282921,109.403465271,0.0012009999482,1.0,0.0,0.0,0.0,1.0,0.0,0.0,0.0,1.0,0.0609756112099,2.43902444839,-0.243902444839,1.0,0.0,0.0,0.0,1.0,0.0,0.0,0.0,1.0,0.344765039063,-0.119710083008,10.2328178955,1.0,0.0,0.0,0.0,1.0,0.0,0.0,0.0,1.0
1481887174939598492,668,1481887174937070222,,2.54053711891,1.59413564205,109.405967712,0.00107799994294,1.0,0.0,0.0,0.0,1.0,0.0,0.0,0.0,1.0,-0.304878056049,2.5,-0.365853667259,1.0,0.0,0.0,0.0,1.0,0.0,0.0,0.0,1.0,0.31124621582,-0.0622492431641,10.2711251221,1.0,0.0,0.0,0.0,1.0,0.0,0.0,0.0,1.0
1481887174961622087,669,1481887174957533773,,2.53436303139,1.59703457355,109.41003418,0.00149199995212,1.0,0.0,0.0,0.0,1.0,0.0,0.0,0.0,1.0,-0.18292683363,2.31707310677,-0.365853667259,1.0,0.0,0.0,0.0,1.0,0.0,0.0,0.0,1.0,0.287304199219,-0.0287304199219,10.1370498291,1.0,0.0,0.0,0.0,1.0,0.0,0.0,0.0,1.0
1481887174981956211,670,1481887174978110448,,2.53268456459,1.59814846516,109.41166687,0.001200000057,1.0,0.0,0.0,0.0,1.0,0.0,0.0,0.0,1.0,-0.12195122242,2.5,-0.426829278469,1.0,0.0,0.0,0.0,1.0,0.0,0.0,0.0,1.0,0.253785375977,-0.124498486328,10.1897222656,1.0,0.0,0.0,0.0,1.0,0.0,0.0,0.0,1.0
1481887175003906213,671,1481887174999860867,,2.53155136108,1.5981515646,109.416435242,0.00130000000354,1.0,0.0,0.0,0.0,1.0,0.0,0.0,0.0,1.0,-0.0609756112099,2.62195134163,-0.304878056049,1.0,0.0,0.0,0.0,1.0,0.0,0.0,0.0,1.0,0.220266552734,-0.134075302102,10.2902787354,1.0,0.0,0.0,0.0,1.0,0.0,0.0,0.0,1.0
1481887175022744146,672,1481887175019677911,,2.53106498718,1.60053241253,109.421203613,0.00125600001775,1.0,0.0,0.0,0.0,1.0,0.0,0.0,0.0,1.0,0.0,2.07317066193,-0.365853667259,1.0,0.0,0.0,0.0,1.0,0.0,0.0,0.0,1.0,0.244208569336,-0.134075302102,10.0125513428,1.0,0.0,0.0,0.0,1.0,0.0,0.0,0.0,1.0
1481887175044352952,673,1481887175041352601,,2.52710866928,1.60075449944,109.425209045,0.00126900000032,1.0,0.0,0.0,0.0,1.0,0.0,0.0,0.0,1.0,-0.12195122242,2.43902444839,0.0,1.0,0.0,0.0,0.0,1.0,0.0,0.0,0.0,1.0,0.248996972656,-0.0718260498047,10.2519715088,1.0,0.0,0.0,0.0,1.0,0.0,0.0,0.0,1.0
1481887175065328844,674,1481887175062798022,,2.52425122261,1.59992897511,109.429122925,0.00129100005142,1.0,0.0,0.0,0.0,1.0,0.0,0.0,0.0,1.0,-0.304878056049,2.19512200356,-0.304878056049,1.0,0.0,0.0,0.0,1.0,0.0,0.0,0.0,1.0,0.225054956055,-0.0718260498047,10.2136642822,1.0,0.0,0.0,0.0,1.0,0.0,0.0,0.0,1.0
1481887175087043795,675,1481887175084129538,,2.51941156387,1.60006892681,109.433059692,0.00158999999985,1.0,0.0,0.0,0.0,1.0,0.0,0.0,0.0,1.0,-0.365853667259,2.07317066193,-0.18292683363,1.0,0.0,0.0,0.0,1.0,0.0,0.0,0.0,1.0,0.296881024126,-0.0909796630859,10.1322614258,1.0,0.0,0.0,0.0,1.0,0.0,0.0,0.0,1.0
1481887175107821667,676,1481887175104915274,,2.51521372795,1.6008579731,109.437515259,0.00134499999695,1.0,0.0,0.0,0.0,1.0,0.0,0.0,0.0,1.0,0.0609756112099,2.31707310677,-0.18292683363,1.0,0.0,0.0,0.0,1.0,0.0,0.0,0.0,1.0,0.268150604204,-0.0957680664062,10.180145459,1.0,0.0,0.0,0.0,1.0,0.0,0.0,0.0,1.0
1481887175133064623,677,1481887175126356008,,2.51283025742,1.6028110981,109.440994263,0.00142600003164,1.0,0.0,0.0,0.0,1.0,0.0,0.0,0.0,1.0,-0.0609756112099,2.62195134163,-0.365853667259,1.0,0.0,0.0,0.0,1.0,0.0,0.0,0.0,1.0,0.272938989258,-0.0526724365234,10.2471831055,1.0,0.0,0.0,0.0,1.0,0.0,0.0,0.0,1.0
1481887175149875898,678,1481887175146996328,,2.50917220116,1.60218536854,109.44467926,0.00125099997967,1.0,0.0,0.0,0.0,1.0,0.0,0.0,0.0,1.0,0.0609756112099,2.25609779358,-0.304878056049,1.0,0.0,0.0,0.0,1.0,0.0,0.0,0.0,1.0,0.248996972656,-0.134075302102,10.3285859619,1.0,0.0,0.0,0.0,1.0,0.0,0.0,0.0,1.0
1481887175170551583,679,1481887175167880971,,2.50662279129,1.60015070438,109.449310303,0.00164300005417,1.0,0.0,0.0,0.0,1.0,0.0,0.0,0.0,1.0,0.12195122242,2.31707310677,-0.426829278469,1.0,0.0,0.0,0.0,1.0,0.0,0.0,0.0,1.0,0.325611425781,-0.105344873047,10.1226846191,1.0,0.0,0.0,0.0,1.0,0.0,0.0,0.0,1.0
1481887175193996058,680,1481887175190627323,,2.50494074821,1.60106933117,109.453048706,0.0014609999489,1.0,0.0,0.0,0.0,1.0,0.0,0.0,0.0,1.0,0.243902444839,2.74390244484,-0.365853667259,1.0,0.0,0.0,0.0,1.0,0.0,0.0,0.0,1.0,0.287304199219,-0.0814028564453,10.299855542,1.0,0.0,0.0,0.0,1.0,0.0,0.0,0.0,1.0
1481887175212300816,681,1481887175209839682,,2.50252437592,1.6031011343,109.457366943,0.00122099998407,1.0,0.0,0.0,0.0,1.0,0.0,0.0,0.0,1.0,-0.0609756112099,2.80487799644,-0.426829278469,1.0,0.0,0.0,0.0,1.0,0.0,0.0,0.0,1.0,0.320823022461,-0.15801730957,10.2567599121,1.0,0.0,0.0,0.0,1.0,0.0,0.0,0.0,1.0
1481887175233688946,682,1481887175231043281,,2.50319314003,1.60194516182,109.458488464,0.0011040000245,1.0,0.0,0.0,0.0,1.0,0.0,0.0,0.0,1.0,0.0609756112099,2.68292689323,-0.426829278469,1.0,0.0,0.0,0.0,1.0,0.0,0.0,0.0,1.0,0.282515795898,-0.129286889648,10.2519715088,1.0,0.0,0.0,0.0,1.0,0.0,0.0,0.0,1.0
1481887175255629781,683,1481887175253201147,,2.50551629066,1.60037362576,109.460716248,0.00158999999985,1.0,0.0,0.0,0.0,1.0,0.0,0.0,0.0,1.0,0.0,2.5,-0.243902444839,1.0,0.0,0.0,0.0,1.0,0.0,0.0,0.0,1.0,0.31124621582,-0.0957680664062,10.1945106689,1.0,0.0,0.0,0.0,1.0,0.0,0.0,0.0,1.0
1481887175276728433,684,1481887175274016206,,2.5079934597,1.59767353535,109.463066101,0.00116099999286,1.0,0.0,0.0,0.0,1.0,0.0,0.0,0.0,1.0,-0.18292683363,2.80487799644,-0.548780500889,1.0,0.0,0.0,0.0,1.0,0.0,0.0,0.0,1.0,0.287304199219,-0.134075302102,10.180145459,1.0,0.0,0.0,0.0,1.0,0.0,0.0,0.0,1.0
1481887175299733743,685,1481887175295663032,,2.5132086277,1.59983301163,109.46736908,0.00127600005362,1.0,0.0,0.0,0.0,1.0,0.0,0.0,0.0,1.0,0.0609756112099,2.74390244484,-0.243902444839,1.0,0.0,0.0,0.0,1.0,0.0,0.0,0.0,1.0,0.248996972656,-0.0383072265625,10.1131078125,1.0,0.0,0.0,0.0,1.0,0.0,0.0,0.0,1.0
1481887175320586510,686,1481887175317075329,,2.51845192909,1.60110867023,109.471138,0.00126299995463,1.0,0.0,0.0,0.0,1.0,0.0,0.0,0.0,1.0,-0.304878056049,2.37804889679,-0.304878056049,1.0,0.0,0.0,0.0,1.0,0.0,0.0,0.0,1.0,0.335188232422,-0.15322890625,10.180145459,1.0,0.0,0.0,0.0,1.0,0.0,0.0,0.0,1.0
1481887175342182555,687,1481887175338291949,,2.52335572243,1.60462927818,109.473670959,0.00135899998713,1.0,0.0,0.0,0.0,1.0,0.0,0.0,0.0,1.0,0.18292683363,2.5,-0.304878056049,1.0,0.0,0.0,0.0,1.0,0.0,0.0,0.0,1.0,0.234631762695,-0.0526724365234,10.2136642822,1.0,0.0,0.0,0.0,1.0,0.0,0.0,0.0,1.0
1481887175363626101,688,1481887175359933775,,2.5280020237,1.60623300076,109.477432251,0.00125700002536,1.0,0.0,0.0,0.0,1.0,0.0,0.0,0.0,1.0,-0.18292683363,2.74390244484,-0.304878056049,1.0,0.0,0.0,0.0,1.0,0.0,0.0,0.0,1.0,0.287304199219,-0.0574608398438,10.1562034424,1.0,0.0,0.0,0.0,1.0,0.0,0.0,0.0,1.0
1481887175384097100,689,1481887175380759407,,2.53403520584,1.60467922688,109.481254578,0.00110800005496,1.0,0.0,0.0,0.0,1.0,0.0,0.0,0.0,1.0,-0.304878056049,2.68292689323,-0.243902444839,1.0,0.0,0.0,0.0,1.0,0.0,0.0,0.0,1.0,0.220266552734,-0.0909796630859,10.2471831055,1.0,0.0,0.0,0.0,1.0,0.0,0.0,0.0,1.0
1481887175404430547,690,1481887175401741028,,2.53806018829,1.6059627533,109.484481812,0.00121000001673,1.0,0.0,0.0,0.0,1.0,0.0,0.0,0.0,1.0,-0.12195122242,2.56097555161,-0.426829278469,1.0,0.0,0.0,0.0,1.0,0.0,0.0,0.0,1.0,0.148440512063,-0.0814028564453,10.165780249,1.0,0.0,0.0,0.0,1.0,0.0,0.0,0.0,1.0
1481887175425914770,691,1481887175423001658,,2.54019999504,1.60316205025,109.487762451,0.00121100002434,1.0,0.0,0.0,0.0,1.0,0.0,0.0,0.0,1.0,0.0,2.5,-0.18292683363,1.0,0.0,0.0,0.0,1.0,0.0,0.0,0.0,1.0,0.196324536133,-0.124498486328,10.2423947021,1.0,0.0,0.0,0.0,1.0,0.0,0.0,0.0,1.0
1481887175447630138,692,1481887175444764213,,2.54432988167,1.60327517986,109.491928101,0.00141899997834,1.0,0.0,0.0,0.0,1.0,0.0,0.0,0.0,1.0,0.12195122242,2.74390244484,-0.426829278469,1.0,0.0,0.0,0.0,1.0,0.0,0.0,0.0,1.0,0.210689746094,-0.124498486328,10.3046439453,1.0,0.0,0.0,0.0,1.0,0.0,0.0,0.0,1.0
1481887175469523577,693,1481887175467046558,,2.54316282272,1.60320460796,109.495498657,0.00138300005347,1.0,0.0,0.0,0.0,1.0,0.0,0.0,0.0,1.0,0.12195122242,2.43902444839,-0.12195122242,1.0,0.0,0.0,0.0,1.0,0.0,0.0,0.0,1.0,0.253785375977,-0.0957680664062,10.1897222656,1.0,0.0,0.0,0.0,1.0,0.0,0.0,0.0,1.0
1481887175493259925,694,1481887175488362552,,2.54356956482,1.60444188118,109.498207092,0.00161499995738,1.0,0.0,0.0,0.0,1.0,0.0,0.0,0.0,1.0,0.0,2.37804889679,-0.304878056049,1.0,0.0,0.0,0.0,1.0,0.0,0.0,0.0,1.0,0.191536132812,-0.0861912597656,10.2807019287,1.0,0.0,0.0,0.0,1.0,0.0,0.0,0.0,1.0
1481887175512021765,695,1481887175509521204,,2.54103732109,1.60297989845,109.502998352,0.00134600000456,1.0,0.0,0.0,0.0,1.0,0.0,0.0,0.0,1.0,-0.12195122242,2.01219511032,0.0,1.0,0.0,0.0,0.0,1.0,0.0,0.0,0.0,1.0,0.234631762695,-0.148440512063,10.1609918457,1.0,0.0,0.0,0.0,1.0,0.0,0.0,0.0,1.0
1481887175532902241,696,1481887175530495429,,2.53442215919,1.60253930092,109.507423401,0.00115599995479,1.0,0.0,0.0,0.0,1.0,0.0,0.0,0.0,1.0,-0.12195122242,2.13414645195,-0.12195122242,1.0,0.0,0.0,0.0,1.0,0.0,0.0,0.0,1.0,0.229843359375,-0.0909796630859,10.2902787354,1.0,0.0,0.0,0.0,1.0,0.0,0.0,0.0,1.0
1481887175553701727,697,1481887175551322728,,2.53103637695,1.60319435596,109.511253357,0.00117199996021,1.0,0.0,0.0,0.0,1.0,0.0,0.0,0.0,1.0,-0.0609756112099,2.01219511032,-0.487804889679,1.0,0.0,0.0,0.0,1.0,0.0,0.0,0.0,1.0,0.181959326172,-0.172382519531,10.2328178955,1.0,0.0,0.0,0.0,1.0,0.0,0.0,0.0,1.0
1481887175574365694,698,1481887175571847789,,2.52496218681,1.60290753841,109.513717651,0.00111599999946,1.0,0.0,0.0,0.0,1.0,0.0,0.0,0.0,1.0,-0.18292683363,2.37804889679,-0.426829278469,1.0,0.0,0.0,0.0,1.0,0.0,0.0,0.0,1.0,0.181959326172,-0.143652099609,10.1418382324,1.0,0.0,0.0,0.0,1.0,0.0,0.0,0.0,1.0
1481887175595179503,699,1481887175592735296,,2.5174267292,1.60195815563,109.517776489,0.00128299999051,1.0,0.0,0.0,0.0,1.0,0.0,0.0,0.0,1.0,-0.18292683363,2.25609779358,-0.426829278469,1.0,0.0,0.0,0.0,1.0,0.0,0.0,0.0,1.0,0.253785375977,-0.15322890625,10.1418382324,1.0,0.0,0.0,0.0,1.0,0.0,0.0,0.0,1.0
1481887175615912583,700,1481887175613287387,,2.51056742668,1.60087406635,109.521743774,0.00142700003926,1.0,0.0,0.0,0.0,1.0,0.0,0.0,0.0,1.0,-0.0609756112099,2.07317066193,-0.304878056049,1.0,0.0,0.0,0.0,1.0,0.0,0.0,0.0,1.0,0.248996972656,-0.0861912597656,10.2328178955,1.0,0.0,0.0,0.0,1.0,0.0,0.0,0.0,1.0
1481887175637310244,701,1481887175634713486,,2.50369811058,1.6010119915,109.52532196,0.00103499996476,1.0,0.0,0.0,0.0,1.0,0.0,0.0,0.0,1.0,0.0609756112099,2.07317066193,-0.304878056049,1.0,0.0,0.0,0.0,1.0,0.0,0.0,0.0,1.0,0.263362164351,-0.129286889648,10.1753570557,1.0,0.0,0.0,0.0,1.0,0.0,0.0,0.0,1.0
1481887175657651035,702,1481887175655231932,,2.49730706215,1.60306596756,109.528892517,0.00109999999404,1.0,0.0,0.0,0.0,1.0,0.0,0.0,0.0,1.0,-0.0609756112099,2.37804889679,-0.243902444839,1.0,0.0,0.0,0.0,1.0,0.0,0.0,0.0,1.0,0.272938989258,-0.143652099609,10.0748005859,1.0,0.0,0.0,0.0,1.0,0.0,0.0,0.0,1.0
1481887175681934412,703,1481887175676713290,,2.49062752724,1.60346782207,109.532669067,0.00118100002874,1.0,0.0,0.0,0.0,1.0,0.0,0.0,0.0,1.0,-0.18292683363,2.25609779358,-0.18292683363,1.0,0.0,0.0,0.0,1.0,0.0,0.0,0.0,1.0,0.301669427446,-0.0478840332031,10.3716815918,1.0,0.0,0.0,0.0,1.0,0.0,0.0,0.0,1.0
1481887175700160473,704,1481887175697382829,,2.48790502548,1.60464441776,109.536987305,0.00137900002301,1.0,0.0,0.0,0.0,1.0,0.0,0.0,0.0,1.0,-0.12195122242,2.37804889679,-0.365853667259,1.0,0.0,0.0,0.0,1.0,0.0,0.0,0.0,1.0,0.263362164351,-0.148440512063,10.1322614258,1.0,0.0,0.0,0.0,1.0,0.0,0.0,0.0,1.0
1481887175722909742,705,1481887175718165441,,2.48679828644,1.6061476469,109.541389465,0.0012450000504,1.0,0.0,0.0,0.0,1.0,0.0,0.0,0.0,1.0,0.0609756112099,2.5,-0.243902444839,1.0,0.0,0.0,0.0,1.0,0.0,0.0,0.0,1.0,0.277727392578,-0.143652099609,10.1131078125,1.0,0.0,0.0,0.0,1.0,0.0,0.0,0.0,1.0
1481887175744559224,706,1481887175742279547,,2.48761844635,1.60691940784,109.546348572,0.00106399995275,1.0,0.0,0.0,0.0,1.0,0.0,0.0,0.0,1.0,-0.12195122242,2.56097555161,-0.18292683363,1.0,0.0,0.0,0.0,1.0,0.0,0.0,0.0,1.0,0.272938989258,-0.162805712891,10.2232410889,1.0,0.0,0.0,0.0,1.0,0.0,0.0,0.0,1.0
1481887175763780176,707,1481887175761456906,,2.49201822281,1.60986602306,109.550712585,0.0011490000179,1.0,0.0,0.0,0.0,1.0,0.0,0.0,0.0,1.0,-0.0609756112099,2.68292689323,-0.18292683363,1.0,0.0,0.0,0.0,1.0,0.0,0.0,0.0,1.0,0.225054956055,-0.119710083008,10.1945106689,1.0,0.0,0.0,0.0,1.0,0.0,0.0,0.0,1.0
1481887175788041053,708,1481887175784766589,,2.49105024338,1.60475373268,109.55330658,0.00626800023019,1.0,0.0,0.0,0.0,1.0,0.0,0.0,0.0,1.0,0.0,2.80487799644,-0.487804889679,1.0,0.0,0.0,0.0,1.0,0.0,0.0,0.0,1.0,0.320823022461,-0.177170922852,10.1945106689,1.0,0.0,0.0,0.0,1.0,0.0,0.0,0.0,1.0
1481887175807764295,709,1481887175805422639,,2.49626970291,1.60100078583,109.557434082,0.00118899997324,1.0,0.0,0.0,0.0,1.0,0.0,0.0,0.0,1.0,0.243902444839,2.68292689323,-0.365853667259,1.0,0.0,0.0,0.0,1.0,0.0,0.0,0.0,1.0,0.225054956055,-0.076614453125,10.2807019287,1.0,0.0,0.0,0.0,1.0,0.0,0.0,0.0,1.0
1481887175828575031,710,1481887175826649832,,2.49724459648,1.60202050209,109.560424805,0.000985000049695,1.0,0.0,0.0,0.0,1.0,0.0,0.0,0.0,1.0,0.0609756112099,2.43902444839,-0.548780500889,1.0,0.0,0.0,0.0,1.0,0.0,0.0,0.0,1.0,0.320823022461,-0.0718260498047,10.1753570557,1.0,0.0,0.0,0.0,1.0,0.0,0.0,0.0,1.0
1481887175849261341,711,1481887175847355881,,2.50016117096,1.60159564018,109.566726685,0.00142400001641,1.0,0.0,0.0,0.0,1.0,0.0,0.0,0.0,1.0,0.243902444839,2.80487799644,-0.304878056049,1.0,0.0,0.0,0.0,1.0,0.0,0.0,0.0,1.0,0.220266552734,-0.143652099609,10.285490332,1.0,0.0,0.0,0.0,1.0,0.0,0.0,0.0,1.0
1481887175870245202,712,1481887175868482866,,2.50285434723,1.60087716579,109.570129395,0.00115599995479,1.0,0.0,0.0,0.0,1.0,0.0,0.0,0.0,1.0,0.18292683363,2.56097555161,-0.243902444839,1.0,0.0,0.0,0.0,1.0,0.0,0.0,0.0,1.0,0.248996972656,-0.0861912597656,10.1609918457,1.0,0.0,0.0,0.0,1.0,0.0,0.0,0.0,1.0
1481887175891068855,713,1481887175889356727,,2.5048289299,1.60264134407,109.573204041,0.0011040000245,1.0,0.0,0.0,0.0,1.0,0.0,0.0,0.0,1.0,-0.0609756112099,2.5,-0.426829278469,1.0,0.0,0.0,0.0,1.0,0.0,0.0,0.0,1.0,0.320823022461,-0.177170922852,10.1418382324,1.0,0.0,0.0,0.0,1.0,0.0,0.0,0.0,1.0
1481887175911975945,714,1481887175910267151,,2.50568389893,1.60060191154,109.575515747,0.00109200004954,1.0,0.0,0.0,0.0,1.0,0.0,0.0,0.0,1.0,0.0,2.62195134163,-0.365853667259,1.0,0.0,0.0,0.0,1.0,0.0,0.0,0.0,1.0,0.277727392578,-0.129286889648,10.2807019287,1.0,0.0,0.0,0.0,1.0,0.0,0.0,0.0,1.0
1481887175932557256,715,1481887175930762472,,2.50665473938,1.6004832983,109.578071594,0.00103599997237,1.0,0.0,0.0,0.0,1.0,0.0,0.0,0.0,1.0,0.0,2.5,-0.487804889679,1.0,0.0,0.0,0.0,1.0,0.0,0.0,0.0,1.0,0.248996972656,-0.067037651051,10.285490332,1.0,0.0,0.0,0.0,1.0,0.0,0.0,0.0,1.0
1481887175953295857,716,1481887175951588886,,2.50450229645,1.60188937187,109.581115723,0.00102099997457,1.0,0.0,0.0,0.0,1.0,0.0,0.0,0.0,1.0,-0.243902444839,2.31707310677,-0.243902444839,1.0,0.0,0.0,0.0,1.0,0.0,0.0,0.0,1.0,0.301669427446,-0.0861912597656,10.1418382324,1.0,0.0,0.0,0.0,1.0,0.0,0.0,0.0,1.0
1481887175974507737,717,1481887175972691444,,2.50225019455,1.59955108166,109.584579468,0.00102600001264,1.0,0.0,0.0,0.0,1.0,0.0,0.0,0.0,1.0,0.0,2.37804889679,-0.18292683363,1.0,0.0,0.0,0.0,1.0,0.0,0.0,0.0,1.0,0.215478149414,-0.124498486328,10.3046439453,1.0,0.0,0.0,0.0,1.0,0.0,0.0,0.0,1.0
1481887175995296495,718,1481887175993606711,,2.49984288216,1.60012090206,109.58870697,0.00101400003769,1.0,0.0,0.0,0.0,1.0,0.0,0.0,0.0,1.0,-0.365853667259,2.31707310677,-0.18292683363,1.0,0.0,0.0,0.0,1.0,0.0,0.0,0.0,1.0,0.292092584273,-0.076614453125,10.2184526855,1.0,0.0,0.0,0.0,1.0,0.0,0.0,0.0,1.0
1481887176022846210,719,1481887176014659686,,2.49769377708,1.60126626492,109.592155457,0.00104799994733,1.0,0.0,0.0,0.0,1.0,0.0,0.0,0.0,1.0,0.304878056049,2.31707310677,-0.12195122242,1.0,0.0,0.0,0.0,1.0,0.0,0.0,0.0,1.0,0.325611425781,-0.0814028564453,10.1418382324,1.0,0.0,0.0,0.0,1.0,0.0,0.0,0.0,1.0
1481887176037476976,720,1481887176035085164,,2.49665927887,1.59866464138,109.595848083,0.00110500003211,1.0,0.0,0.0,0.0,1.0,0.0,0.0,0.0,1.0,-0.12195122242,2.37804889679,-0.243902444839,1.0,0.0,0.0,0.0,1.0,0.0,0.0,0.0,1.0,0.296881024126,-0.0861912597656,10.1945106689,1.0,0.0,0.0,0.0,1.0,0.0,0.0,0.0,1.0
1481887176058317035,721,1481887176056222305,,2.49237680435,1.59673964977,109.599723816,0.00101200002246,1.0,0.0,0.0,0.0,1.0,0.0,0.0,0.0,1.0,-0.0609756112099,2.43902444839,-0.365853667259,1.0,0.0,0.0,0.0,1.0,0.0,0.0,0.0,1.0,0.210689746094,-0.167594116211,10.2759135254,1.0,0.0,0.0,0.0,1.0,0.0,0.0,0.0,1.0
1481887176082685984,722,1481887176077759913,,2.48765039444,1.59666609764,109.604537964,0.00127999996766,1.0,0.0,0.0,0.0,1.0,0.0,0.0,0.0,1.0,0.12195122242,2.07317066193,-0.12195122242,1.0,0.0,0.0,0.0,1.0,0.0,0.0,0.0,1.0,0.263362164351,-0.181959326172,10.1418382324,1.0,0.0,0.0,0.0,1.0,0.0,0.0,0.0,1.0
1481887176103770677,723,1481887176100684025,,2.48010516167,1.59704959393,109.606933594,0.00119800004177,1.0,0.0,0.0,0.0,1.0,0.0,0.0,0.0,1.0,0.0,2.37804889679,-0.365853667259,1.0,0.0,0.0,0.0,1.0,0.0,0.0,0.0,1.0,0.282515795898,-0.114921679688,10.2759135254,1.0,0.0,0.0,0.0,1.0,0.0,0.0,0.0,1.0
1481887176124298707,724,1481887176123006317,,2.47560477257,1.59657776356,109.610115051,0.00163399998564,1.0,0.0,0.0,0.0,1.0,0.0,0.0,0.0,1.0,0.0609756112099,2.19512200356,-0.426829278469,1.0,0.0,0.0,0.0,1.0,0.0,0.0,0.0,1.0,0.282515795898,-0.114921679688,10.1466266357,1.0,0.0,0.0,0.0,1.0,0.0,0.0,0.0,1.0
1481887176144722101,725,1481887176142707788,,2.47233867645,1.59499776363,109.614204407,0.00346400006674,1.0,0.0,0.0,0.0,1.0,0.0,0.0,0.0,1.0,-0.243902444839,2.5,-0.243902444839,1.0,0.0,0.0,0.0,1.0,0.0,0.0,0.0,1.0,0.316034619141,-0.134075302102,10.2423947021,1.0,0.0,0.0,0.0,1.0,0.0,0.0,0.0,1.0
1481887176166518719,726,1481887176164249406,,2.46851086617,1.59418356419,109.618438721,0.0011930000037,1.0,0.0,0.0,0.0,1.0,0.0,0.0,0.0,1.0,-0.0609756112099,2.19512200356,-0.304878056049,1.0,0.0,0.0,0.0,1.0,0.0,0.0,0.0,1.0,0.268150604204,-0.067037651051,10.2902787354,1.0,0.0,0.0,0.0,1.0,0.0,0.0,0.0,1.0
1481887176187555287,727,1481887176184814467,,2.46719074249,1.5924050808,109.622276306,0.00112899998203,1.0,0.0,0.0,0.0,1.0,0.0,0.0,0.0,1.0,0.0,2.43902444839,-0.304878056049,1.0,0.0,0.0,0.0,1.0,0.0,0.0,0.0,1.0,0.268150604204,-0.114921679688,10.2711251221,1.0,0.0,0.0,0.0,1.0,0.0,0.0,0.0,1.0
1481887176211174657,728,1481887176208143942,,2.48640012741,1.60332489014,109.62298584,0.0011040000245,1.0,0.0,0.0,0.0,1.0,0.0,0.0,0.0,1.0,-0.426829278469,2.01219511032,-1.15853655338,1.0,0.0,0.0,0.0,1.0,0.0,0.0,0.0,1.0,0.15801730957,-0.277727392578,9.77313117676,1.0,0.0,0.0,0.0,1.0,0.0,0.0,0.0,1.0
1481887176227931714,729,1481887176226239743,,2.46352601051,1.61161935329,109.627357483,0.00110700004734,1.0,0.0,0.0,0.0,1.0,0.0,0.0,0.0,1.0,-0.12195122242,0.365853667259,-0.18292683363,1.0,0.0,0.0,0.0,1.0,0.0,0.0,0.0,1.0,0.0287304199219,0.0335188255255,10.1178962158,1.0,0.0,0.0,0.0,1.0,0.0,0.0,0.0,1.0
1481887176250053382,730,1481887176247657924,,2.41616296768,1.60870707035,109.6352005,0.00127400003839,1.0,0.0,0.0,0.0,1.0,0.0,0.0,0.0,1.0,0.365853667259,-0.365853667259,0.18292683363,1.0,0.0,0.0,0.0,1.0,0.0,0.0,0.0,1.0,0.335188232422,-0.0622492431641,10.2088758789,1.0,0.0,0.0,0.0,1.0,0.0,0.0,0.0,1.0
1481887176270712192,731,1481887176268743764,,2.35212922096,1.59936487675,109.644607544,0.00103399995714,1.0,0.0,0.0,0.0,1.0,0.0,0.0,0.0,1.0,-0.18292683363,0.243902444839,-0.548780500889,1.0,0.0,0.0,0.0,1.0,0.0,0.0,0.0,1.0,0.359130249023,0.0,10.2280294922,1.0,0.0,0.0,0.0,1.0,0.0,0.0,0.0,1.0
1481887176291352669,732,1481887176289397053,,2.29233026505,1.59959828854,109.649375916,0.00104200001806,1.0,0.0,0.0,0.0,1.0,0.0,0.0,0.0,1.0,0.0609756112099,0.18292683363,-0.426829278469,1.0,0.0,0.0,0.0,1.0,0.0,0.0,0.0,1.0,0.45489831543,-0.0909796630859,10.2423947021,1.0,0.0,0.0,0.0,1.0,0.0,0.0,0.0,1.0
1481887176312687830,733,1481887176310639246,,2.25136590004,1.59183728695,109.650482178,0.00104799994733,1.0,0.0,0.0,0.0,1.0,0.0,0.0,0.0,1.0,0.12195122242,0.914634168148,-0.18292683363,1.0,0.0,0.0,0.0,1.0,0.0,0.0,0.0,1.0,0.335188232422,-0.186747729492,10.2088758789,1.0,0.0,0.0,0.0,1.0,0.0,0.0,0.0,1.0
1481887176333951846,734,1481887176331930605,,2.20899200439,1.5846709013,109.65763092,0.00155299995095,1.0,0.0,0.0,0.0,1.0,0.0,0.0,0.0,1.0,-0.243902444839,1.2804877758,-0.487804889679,1.0,0.0,0.0,0.0,1.0,0.0,0.0,0.0,1.0,0.469263525391,-0.119710083008,10.1226846191,1.0,0.0,0.0,0.0,1.0,0.0,0.0,0.0,1.0
1481887176354657322,735,1481887176352946080,,2.18258690834,1.5861312151,109.664909363,0.00118100002874,1.0,0.0,0.0,0.0,1.0,0.0,0.0,0.0,1.0,0.0609756112099,1.76829278469,0.18292683363,1.0,0.0,0.0,0.0,1.0,0.0,0.0,0.0,1.0,0.411802685547,-0.076614453125,10.1562034424,1.0,0.0,0.0,0.0,1.0,0.0,0.0,0.0,1.0
1481887176375964254,736,1481887176373903222,,2.16517138481,1.58093297482,109.667503357,0.00111599999946,1.0,0.0,0.0,0.0,1.0,0.0,0.0,0.0,1.0,-0.18292683363,2.19512200356,-0.365853667259,1.0,0.0,0.0,0.0,1.0,0.0,0.0,0.0,1.0,0.31124621582,-0.162805712891,10.3333743652,1.0,0.0,0.0,0.0,1.0,0.0,0.0,0.0,1.0
1481887176396588533,737,1481887176394747865,,2.15565872192,1.57907748222,109.676856995,0.0010300000431,1.0,0.0,0.0,0.0,1.0,0.0,0.0,0.0,1.0,0.18292683363,3.90243911743,-0.12195122242,1.0,0.0,0.0,0.0,1.0,0.0,0.0,0.0,1.0,0.469263525391,-0.181959326172,10.2615483154,1.0,0.0,0.0,0.0,1.0,0.0,0.0,0.0,1.0
1481887176418898534,738,1481887176417138073,,2.17075514793,1.58166468143,109.681678772,0.00123299995903,1.0,0.0,0.0,0.0,1.0,0.0,0.0,0.0,1.0,-0.0609756112099,4.20731735229,-0.365853667259,1.0,0.0,0.0,0.0,1.0,0.0,0.0,0.0,1.0,0.383072265625,-0.076614453125,10.2040874756,1.0,0.0,0.0,0.0,1.0,0.0,0.0,0.0,1.0
1481887176440574370,739,1481887176437530061,,2.19961929321,1.58531188965,109.676315308,0.00125900004059,1.0,0.0,0.0,0.0,1.0,0.0,0.0,0.0,1.0,0.365853667259,4.81707286835,-0.914634168148,1.0,0.0,0.0,0.0,1.0,0.0,0.0,0.0,1.0,0.407014282227,-0.129286889648,10.2759135254,1.0,0.0,0.0,0.0,1.0,0.0,0.0,0.0,1.0
1481887176460278237,740,1481887176457626739,,2.25619125366,1.58050572872,109.672798157,0.00115200004075,1.0,0.0,0.0,0.0,1.0,0.0,0.0,0.0,1.0,-0.0609756112099,5.24390268326,-0.670731723309,1.0,0.0,0.0,0.0,1.0,0.0,0.0,0.0,1.0,0.234631762695,-0.138863696289,10.1226846191,1.0,0.0,0.0,0.0,1.0,0.0,0.0,0.0,1.0
1481887176484177553,741,1481887176480961109,,2.32044100761,1.58266758919,109.675697327,0.00155499996617,1.0,0.0,0.0,0.0,1.0,0.0,0.0,0.0,1.0,-0.12195122242,5.24390268326,-0.18292683363,1.0,0.0,0.0,0.0,1.0,0.0,0.0,0.0,1.0,0.287304199219,-0.0574608398438,10.2807019287,1.0,0.0,0.0,0.0,1.0,0.0,0.0,0.0,1.0
1481887176505686359,742,1481887176499753366,,2.38263106346,1.58342623711,109.680931091,0.00111800001469,1.0,0.0,0.0,0.0,1.0,0.0,0.0,0.0,1.0,0.12195122242,5.06097555161,0.0,1.0,0.0,0.0,0.0,1.0,0.0,0.0,0.0,1.0,0.277727392578,-0.162805712891,10.2376062988,1.0,0.0,0.0,0.0,1.0,0.0,0.0,0.0,1.0
1481887176525629443,743,1481887176520330041,,2.44014978409,1.59570896626,109.689422607,0.00127200002316,1.0,0.0,0.0,0.0,1.0,0.0,0.0,0.0,1.0,0.12195122242,5.30487823486,-0.487804889679,1.0,0.0,0.0,0.0,1.0,0.0,0.0,0.0,1.0,0.234631762695,0.0861912597656,10.1466266357,1.0,0.0,0.0,0.0,1.0,0.0,0.0,0.0,1.0
1481887176544318887,744,1481887176541259318,,2.48807024956,1.60411453247,109.68787384,0.00115999998525,1.0,0.0,0.0,0.0,1.0,0.0,0.0,0.0,1.0,0.0609756112099,4.81707286835,-0.487804889679,1.0,0.0,0.0,0.0,1.0,0.0,0.0,0.0,1.0,0.435744702148,-0.138863696289,10.3094323486,1.0,0.0,0.0,0.0,1.0,0.0,0.0,0.0,1.0
1481887176564608272,745,1481887176562314637,,2.54620337486,1.60104680061,109.695365906,0.00122400000691,1.0,0.0,0.0,0.0,1.0,0.0,0.0,0.0,1.0,0.304878056049,6.64634132385,0.0609756112099,1.0,0.0,0.0,0.0,1.0,0.0,0.0,0.0,1.0,0.344765039063,-0.234631762695,10.1609918457,1.0,0.0,0.0,0.0,1.0,0.0,0.0,0.0,1.0
1481887176585476717,746,1481887176583480215,,2.61492013931,1.60444498062,109.699546814,0.00117699999828,1.0,0.0,0.0,0.0,1.0,0.0,0.0,0.0,1.0,0.304878056049,6.7682929039,-0.792682945728,1.0,0.0,0.0,0.0,1.0,0.0,0.0,0.0,1.0,0.387860668945,-0.0814028564453,10.1897222656,1.0,0.0,0.0,0.0,1.0,0.0,0.0,0.0,1.0
1481887176605986621,747,1481887176603719027,,2.70245265961,1.62194764614,109.683670044,0.00155100005213,1.0,0.0,0.0,0.0,1.0,0.0,0.0,0.0,1.0,0.487804889679,6.64634132385,-1.09756100178,1.0,0.0,0.0,0.0,1.0,0.0,0.0,0.0,1.0,0.162805712891,-0.0287304199219,10.1131078125,1.0,0.0,0.0,0.0,1.0,0.0,0.0,0.0,1.0
1481887176626936211,748,1481887176624824763,,2.79745316505,1.64007747173,109.669692993,0.00101200002246,1.0,0.0,0.0,0.0,1.0,0.0,0.0,0.0,1.0,0.975609779358,5.85365867615,-0.975609779358,1.0,0.0,0.0,0.0,1.0,0.0,0.0,0.0,1.0,-0.00957680664062,-0.210689746094,10.0412817627,1.0,0.0,0.0,0.0,1.0,0.0,0.0,0.0,1.0
1481887176647292418,749,1481887176645443573,,2.88736391068,1.65740168095,109.663368225,0.00114700000267,1.0,0.0,0.0,0.0,1.0,0.0,0.0,0.0,1.0,0.0609756112099,3.41463422775,-0.304878056049,1.0,0.0,0.0,0.0,1.0,0.0,0.0,0.0,1.0,-0.0957680664062,0.0478840332031,10.1083194092,1.0,0.0,0.0,0.0,1.0,0.0,0.0,0.0,1.0
1481887176668058363,750,1481887176666313007,,2.9179315567,1.66141474247,109.684257507,0.00101300003007,1.0,0.0,0.0,0.0,1.0,0.0,0.0,0.0,1.0,0.548780500889,4.81707286835,0.914634168148,1.0,0.0,0.0,0.0,1.0,0.0,0.0,0.0,1.0,0.383072265625,-0.076614453125,10.2711251221,1.0,0.0,0.0,0.0,1.0,0.0,0.0,0.0,1.0
1481887176689673523,751,1481887176687255774,,2.95368266106,1.67142152786,109.712905884,0.0010300000431,1.0,0.0,0.0,0.0,1.0,0.0,0.0,0.0,1.0,-0.365853667259,5.48780488968,0.0609756112099,1.0,0.0,0.0,0.0,1.0,0.0,0.0,0.0,1.0,0.469263525391,-0.0287304199219,10.2471831055,1.0,0.0,0.0,0.0,1.0,0.0,0.0,0.0,1.0
1481887176710024106,752,1481887176708318801,,2.985257864,1.67473351955,109.703941345,0.000997000024654,1.0,0.0,0.0,0.0,1.0,0.0,0.0,0.0,1.0,-0.12195122242,6.82926845551,-1.40243899822,1.0,0.0,0.0,0.0,1.0,0.0,0.0,0.0,1.0,0.383072265625,-0.134075302102,10.1418382324,1.0,0.0,0.0,0.0,1.0,0.0,0.0,0.0,1.0
1481887176730755728,753,1481887176728759956,,3.07374382019,1.6792088747,109.688270569,0.00102800002787,1.0,0.0,0.0,0.0,1.0,0.0,0.0,0.0,1.0,0.12195122242,7.74390268326,-1.46341466904,1.0,0.0,0.0,0.0,1.0,0.0,0.0,0.0,1.0,0.114921679688,0.00478840332031,10.285490332,1.0,0.0,0.0,0.0,1.0,0.0,0.0,0.0,1.0
1481887176752028389,754,1481887176750027878,,3.20273590088,1.68572878838,109.675964355,0.000974000024144,1.0,0.0,0.0,0.0,1.0,0.0,0.0,0.0,1.0,0.0609756112099,6.82926845551,-0.670731723309,1.0,0.0,0.0,0.0,1.0,0.0,0.0,0.0,1.0,-0.134075302102,-0.0191536132812,10.3190091553,1.0,0.0,0.0,0.0,1.0,0.0,0.0,0.0,1.0
1481887176773133864,755,1481887176771172571,,3.30538606644,1.69169342518,109.682342529,0.000968999986071,1.0,0.0,0.0,0.0,1.0,0.0,0.0,0.0,1.0,0.12195122242,6.82926845551,-0.12195122242,1.0,0.0,0.0,0.0,1.0,0.0,0.0,0.0,1.0,0.134075302102,-0.0957680664062,10.2423947021,1.0,0.0,0.0,0.0,1.0,0.0,0.0,0.0,1.0
1481887176793653091,756,1481887176791947214,,3.392608881,1.69543612003,109.699501038,0.000977999996394,1.0,0.0,0.0,0.0,1.0,0.0,0.0,0.0,1.0,-0.18292683363,7.43902492523,0.365853667259,1.0,0.0,0.0,0.0,1.0,0.0,0.0,0.0,1.0,0.205901342773,-0.0143652099609,10.2567599121,1.0,0.0,0.0,0.0,1.0,0.0,0.0,0.0,1.0
1481887176814902055,757,1481887176812844773,,3.48269248009,1.70176696777,109.713943481,0.000982000026852,1.0,0.0,0.0,0.0,1.0,0.0,0.0,0.0,1.0,0.243902444839,8.59756088257,-0.609756112099,1.0,0.0,0.0,0.0,1.0,0.0,0.0,0.0,1.0,0.368707055664,-0.177170922852,10.180145459,1.0,0.0,0.0,0.0,1.0,0.0,0.0,0.0,1.0
1481887176836407632,758,1481887176834098893,,3.59855055809,1.69649422169,109.708229065,0.00116300000809,1.0,0.0,0.0,0.0,1.0,0.0,0.0,0.0,1.0,-0.0609756112099,8.96341514587,-1.2804877758,1.0,0.0,0.0,0.0,1.0,0.0,0.0,0.0,1.0,0.15322890625,-0.225054956055,10.2136642822,1.0,0.0,0.0,0.0,1.0,0.0,0.0,0.0,1.0
1481887176856301602,759,1481887176854264893,,3.74212360382,1.68605542183,109.697753906,0.00138499995228,1.0,0.0,0.0,0.0,1.0,0.0,0.0,0.0,1.0,0.0,9.93902492523,-1.15853655338,1.0,0.0,0.0,0.0,1.0,0.0,0.0,0.0,1.0,-0.0143652099609,-0.186747729492,10.3477395752,1.0,0.0,0.0,0.0,1.0,0.0,0.0,0.0,1.0
1481887176877840564,760,1481887176875603283,,3.90024995804,1.68219292164,109.702682495,0.00104300002567,1.0,0.0,0.0,0.0,1.0,0.0,0.0,0.0,1.0,0.18292683363,10.0609760284,-0.0609756112099,1.0,0.0,0.0,0.0,1.0,0.0,0.0,0.0,1.0,0.0143652099609,-0.129286889648,10.3429511719,1.0,0.0,0.0,0.0,1.0,0.0,0.0,0.0,1.0
1481887176901351861,761,1481887176896153239,,4.05159044266,1.69215595722,109.70891571,0.00108099996578,1.0,0.0,0.0,0.0,1.0,0.0,0.0,0.0,1.0,0.18292683363,10.4268293381,-0.548780500889,1.0,0.0,0.0,0.0,1.0,0.0,0.0,0.0,1.0,-0.124498486328,-0.0574608398438,10.2136642822,1.0,0.0,0.0,0.0,1.0,0.0,0.0,0.0,1.0
1481887176919752817,762,1481887176917403922,,4.20675706863,1.70100975037,109.698944092,0.00120599998627,1.0,0.0,0.0,0.0,1.0,0.0,0.0,0.0,1.0,-0.243902444839,9.63414573669,-0.975609779358,1.0,0.0,0.0,0.0,1.0,0.0,0.0,0.0,1.0,-0.00957680664062,0.0,10.1322614258,1.0,0.0,0.0,0.0,1.0,0.0,0.0,0.0,1.0
1481887176940879698,763,1481887176938317053,,4.35819625854,1.70501863956,109.684005737,0.00102700002026,1.0,0.0,0.0,0.0,1.0,0.0,0.0,0.0,1.0,-0.0609756112099,9.69512176514,-1.46341466904,1.0,0.0,0.0,0.0,1.0,0.0,0.0,0.0,1.0,-0.258573779297,0.0718260498047,10.180145459,1.0,0.0,0.0,0.0,1.0,0.0,0.0,0.0,1.0
1481887176963962924,764,1481887176961538560,,4.50768089294,1.70836317539,109.655029297,0.00115499994718,1.0,0.0,0.0,0.0,1.0,0.0,0.0,0.0,1.0,0.548780500889,7.80487823486,-2.25609779358,1.0,0.0,0.0,0.0,1.0,0.0,0.0,0.0,1.0,-0.0191536132812,-0.167594116211,10.4482960449,1.0,0.0,0.0,0.0,1.0,0.0,0.0,0.0,1.0
1481887176988576090,765,1481887176984822306,,4.64380121231,1.69120383263,109.611686707,0.0044100000523,1.0,0.0,0.0,0.0,1.0,0.0,0.0,0.0,1.0,-0.18292683363,7.86585378647,-2.01219511032,1.0,0.0,0.0,0.0,1.0,0.0,0.0,0.0,1.0,-0.181959326172,-0.234631762695,10.1514150391,1.0,0.0,0.0,0.0,1.0,0.0,0.0,0.0,1.0
1481887177006996994,766,1481887177004846848,,4.77099084854,1.675588727,109.601631165,0.00158799998462,1.0,0.0,0.0,0.0,1.0,0.0,0.0,0.0,1.0,0.0,8.90243911743,-0.426829278469,1.0,0.0,0.0,0.0,1.0,0.0,0.0,0.0,1.0,-0.148440512063,-0.325611425781,10.1322614258,1.0,0.0,0.0,0.0,1.0,0.0,0.0,0.0,1.0
1481887177028112521,767,1481887177026130134,,4.9172000885,1.66850101948,109.608932495,0.00104899995495,1.0,0.0,0.0,0.0,1.0,0.0,0.0,0.0,1.0,-0.12195122242,8.65853691101,-0.365853667259,1.0,0.0,0.0,0.0,1.0,0.0,0.0,0.0,1.0,-0.258573779297,-0.129286889648,10.2232410889,1.0,0.0,0.0,0.0,1.0,0.0,0.0,0.0,1.0
1481887177048958414,768,1481887177046951808,,5.04527044296,1.66977345943,109.60710907,0.00108399998862,1.0,0.0,0.0,0.0,1.0,0.0,0.0,0.0,1.0,0.243902444839,6.15853643417,-1.09756100178,1.0,0.0,0.0,0.0,1.0,0.0,0.0,0.0,1.0,-0.354341845703,-0.0143652099609,10.2088758789,1.0,0.0,0.0,0.0,1.0,0.0,0.0,0.0,1.0
1481887177069766806,769,1481887177067768847,,5.12023162842,1.68463861942,109.59526825,0.00137800001539,1.0,0.0,0.0,0.0,1.0,0.0,0.0,0.0,1.0,0.12195122242,5.73170757294,-1.03658533096,1.0,0.0,0.0,0.0,1.0,0.0,0.0,0.0,1.0,0.0574608398438,0.0383072265625,10.2567599121,1.0,0.0,0.0,0.0,1.0,0.0,0.0,0.0,1.0
1481887177091619621,770,1481887177089322184,,5.19711446762,1.70679843426,109.59854126,0.00119400001131,1.0,0.0,0.0,0.0,1.0,0.0,0.0,0.0,1.0,-0.304878056049,7.98780536652,0.0609756112099,1.0,0.0,0.0,0.0,1.0,0.0,0.0,0.0,1.0,0.100556469727,0.100556469727,10.1370498291,1.0,0.0,0.0,0.0,1.0,0.0,0.0,0.0,1.0
1481887177111741298,771,1481887177109432715,,5.30836439133,1.71940469742,109.607246399,0.00102399999741,1.0,0.0,0.0,0.0,1.0,0.0,0.0,0.0,1.0,-0.12195122242,8.5365858078,-0.365853667259,1.0,0.0,0.0,0.0,1.0,0.0,0.0,0.0,1.0,-0.277727392578,0.0335188255255,10.0077629395,1.0,0.0,0.0,0.0,1.0,0.0,0.0,0.0,1.0
1481887177132465056,772,1481887177130377670,,5.42074584961,1.71237039566,109.59462738,0.00101699994411,1.0,0.0,0.0,0.0,1.0,0.0,0.0,0.0,1.0,0.12195122242,7.80487823486,-1.95121955872,1.0,0.0,0.0,0.0,1.0,0.0,0.0,0.0,1.0,-0.244208569336,-0.0478840332031,10.2759135254,1.0,0.0,0.0,0.0,1.0,0.0,0.0,0.0,1.0
1481887177154047664,773,1481887177151885174,,5.52037525177,1.70638787746,109.557495117,0.001215999946,1.0,0.0,0.0,0.0,1.0,0.0,0.0,0.0,1.0,-0.12195122242,5.79268312454,-2.62195134163,1.0,0.0,0.0,0.0,1.0,0.0,0.0,0.0,1.0,-0.292092584273,-0.162805712891,10.1992990723,1.0,0.0,0.0,0.0,1.0,0.0,0.0,0.0,1.0
1481887177174873244,774,1481887177172880962,,5.61499357224,1.6931245327,109.514823914,0.00116800004616,1.0,0.0,0.0,0.0,1.0,0.0,0.0,0.0,1.0,0.12195122242,7.07317113876,-2.07317066193,1.0,0.0,0.0,0.0,1.0,0.0,0.0,0.0,1.0,-0.368707055664,-0.105344873047,10.2040874756,1.0,0.0,0.0,0.0,1.0,0.0,0.0,0.0,1.0
1481887177198054647,775,1481887177196086583,,5.71617937088,1.68308973312,109.502731323,0.00139700004365,1.0,0.0,0.0,0.0,1.0,0.0,0.0,0.0,1.0,-0.426829278469,7.56097555161,-0.609756112099,1.0,0.0,0.0,0.0,1.0,0.0,0.0,0.0,1.0,-0.263362164351,-0.181959326172,10.1609918457,1.0,0.0,0.0,0.0,1.0,0.0,0.0,0.0,1.0
1481887177217879034,776,1481887177215862168,,5.82427597046,1.6873550415,109.503143311,0.00116700003855,1.0,0.0,0.0,0.0,1.0,0.0,0.0,0.0,1.0,-0.12195122242,6.89024400711,-0.975609779358,1.0,0.0,0.0,0.0,1.0,0.0,0.0,0.0,1.0,-0.569819995117,-0.0861912597656,10.180145459,1.0,0.0,0.0,0.0,1.0,0.0,0.0,0.0,1.0
1481887177242028244,777,1481887177237943003,,5.90378904343,1.69895088673,109.485534668,0.0016530000139,1.0,0.0,0.0,0.0,1.0,0.0,0.0,0.0,1.0,0.0609756112099,4.2682929039,-1.58536589146,1.0,0.0,0.0,0.0,1.0,0.0,0.0,0.0,1.0,-0.76614453125,-0.076614453125,10.1083194092,1.0,0.0,0.0,0.0,1.0,0.0,0.0,0.0,1.0
1481887177263814236,778,1481887177258837905,,5.91884851456,1.70070755482,109.438606262,0.00112499995157,1.0,0.0,0.0,0.0,1.0,0.0,0.0,0.0,1.0,-0.365853667259,1.70731711388,-2.68292689323,1.0,0.0,0.0,0.0,1.0,0.0,0.0,0.0,1.0,-0.814028564453,-0.0239420166016,10.1035310059,1.0,0.0,0.0,0.0,1.0,0.0,0.0,0.0,1.0
1481887177284158985,779,1481887177281477175,,5.90473413467,1.69299685955,109.403404236,0.00125700002536,1.0,0.0,0.0,0.0,1.0,0.0,0.0,0.0,1.0,0.243902444839,2.25609779358,-1.09756100178,1.0,0.0,0.0,0.0,1.0,0.0,0.0,0.0,1.0,-0.478840332031,-0.143652099609,10.3621047852,1.0,0.0,0.0,0.0,1.0,0.0,0.0,0.0,1.0
1481887177305667844,780,1481887177303505666,,5.92380905151,1.69446766376,109.413131714,0.00324200000614,1.0,0.0,0.0,0.0,1.0,0.0,0.0,0.0,1.0,0.0,1.40243899822,0.243902444839,1.0,0.0,0.0,0.0,1.0,0.0,0.0,0.0,1.0,-0.593762048251,0.0383072265625,10.3094323486,1.0,0.0,0.0,0.0,1.0,0.0,0.0,0.0,1.0
1481887177327137588,781,1481887177324785619,,5.90224409103,1.6962031126,109.404716492,0.00136300001759,1.0,0.0,0.0,0.0,1.0,0.0,0.0,0.0,1.0,0.243902444839,-1.76829278469,-1.09756100178,1.0,0.0,0.0,0.0,1.0,0.0,0.0,0.0,1.0,-0.593762048251,-0.119710083008,10.046070166,1.0,0.0,0.0,0.0,1.0,0.0,0.0,0.0,1.0
1481887177348352228,782,1481887177346015260,,5.83020782471,1.69493162632,109.398986816,0.00112799997441,1.0,0.0,0.0,0.0,1.0,0.0,0.0,0.0,1.0,-0.12195122242,-1.58536589146,0.0609756112099,1.0,0.0,0.0,0.0,1.0,0.0,0.0,0.0,1.0,-0.46447512207,-0.0287304199219,10.3094323486,1.0,0.0,0.0,0.0,1.0,0.0,0.0,0.0,1.0
1481887177369225777,783,1481887177366976933,,5.75272083282,1.69845569134,109.409461975,0.00121799996123,1.0,0.0,0.0,0.0,1.0,0.0,0.0,0.0,1.0,-0.365853667259,-3.41463422775,0.18292683363,1.0,0.0,0.0,0.0,1.0,0.0,0.0,0.0,1.0,-0.488417138672,-0.0574608398438,10.2184526855,1.0,0.0,0.0,0.0,1.0,0.0,0.0,0.0,1.0
1481887177390646250,784,1481887177388490427,,5.61660909653,1.70889317989,109.397911072,0.00173000001814,1.0,0.0,0.0,0.0,1.0,0.0,0.0,0.0,1.0,0.0,-4.08536577225,-0.914634168148,1.0,0.0,0.0,0.0,1.0,0.0,0.0,0.0,1.0,-0.205901342773,-0.0814028564453,10.1609918457,1.0,0.0,0.0,0.0,1.0,0.0,0.0,0.0,1.0
1481887177411838131,785,1481887177409797880,,5.47388505936,1.71501123905,109.410667419,0.00137900002301,1.0,0.0,0.0,0.0,1.0,0.0,0.0,0.0,1.0,-0.304878056049,-2.43902444839,0.975609779358,1.0,0.0,0.0,0.0,1.0,0.0,0.0,0.0,1.0,-0.0478840332031,-0.0335188255255,10.2232410889,1.0,0.0,0.0,0.0,1.0,0.0,0.0,0.0,1.0
1481887177432095901,786,1481887177430097733,,5.36524391174,1.72200608253,109.427108765,0.00160399999004,1.0,0.0,0.0,0.0,1.0,0.0,0.0,0.0,1.0,0.0,-2.25609779358,0.18292683363,1.0,0.0,0.0,0.0,1.0,0.0,0.0,0.0,1.0,-0.15801730957,-0.0430956298828,10.1514150391,1.0,0.0,0.0,0.0,1.0,0.0,0.0,0.0,1.0
1481887177453901008,787,1481887177451840236,,5.24366283417,1.72584700584,109.421768188,0.00139400002081,1.0,0.0,0.0,0.0,1.0,0.0,0.0,0.0,1.0,-0.18292683363,-2.31707310677,-0.731707334518,1.0,0.0,0.0,0.0,1.0,0.0,0.0,0.0,1.0,-0.110133276367,-0.076614453125,10.2040874756,1.0,0.0,0.0,0.0,1.0,0.0,0.0,0.0,1.0
1481887177475265700,788,1481887177473322115,,5.13466024399,1.72505140305,109.410980225,0.00110999995377,1.0,0.0,0.0,0.0,1.0,0.0,0.0,0.0,1.0,0.0,-1.2804877758,-0.426829278469,1.0,0.0,0.0,0.0,1.0,0.0,0.0,0.0,1.0,-0.105344873047,-0.0335188255255,10.1992990723,1.0,0.0,0.0,0.0,1.0,0.0,0.0,0.0,1.0
1481887177495638834,789,1481887177493568792,,5.05795574188,1.72117459774,109.411514282,0.00111499999184,1.0,0.0,0.0,0.0,1.0,0.0,0.0,0.0,1.0,-0.365853667259,-0.975609779358,-0.487804889679,1.0,0.0,0.0,0.0,1.0,0.0,0.0,0.0,1.0,-0.244208569336,-0.0622492431641,10.2376062988,1.0,0.0,0.0,0.0,1.0,0.0,0.0,0.0,1.0
1481887177516522539,790,1481887177514413383,,4.9790430069,1.72002124786,109.396980286,0.00108800001908,1.0,0.0,0.0,0.0,1.0,0.0,0.0,0.0,1.0,-0.18292683363,-2.98780488968,-1.58536589146,1.0,0.0,0.0,0.0,1.0,0.0,0.0,0.0,1.0,-0.282515795898,-0.0718260498047,10.1705686523,1.0,0.0,0.0,0.0,1.0,0.0,0.0,0.0,1.0
1481887177538047491,791,1481887177535977865,,4.86067771912,1.71541190147,109.369934082,0.00103399995714,1.0,0.0,0.0,0.0,1.0,0.0,0.0,0.0,1.0,-0.0609756112099,-3.23170733452,-1.2195122242,1.0,0.0,0.0,0.0,1.0,0.0,0.0,0.0,1.0,-0.268150604204,-0.0909796630859,10.1226846191,1.0,0.0,0.0,0.0,1.0,0.0,0.0,0.0,1.0
1481887177561187904,792,1481887177557092611,,4.75485610962,1.71980619431,109.377220154,0.00105900003109,1.0,0.0,0.0,0.0,1.0,0.0,0.0,0.0,1.0,0.0609756112099,-2.31707310677,0.792682945728,1.0,0.0,0.0,0.0,1.0,0.0,0.0,0.0,1.0,-0.229843359375,-0.330399829102,10.2471831055,1.0,0.0,0.0,0.0,1.0,0.0,0.0,0.0,1.0
1481887177581265363,793,1481887177577186580,,4.65420293808,1.72570109367,109.394775391,0.00104999996256,1.0,0.0,0.0,0.0,1.0,0.0,0.0,0.0,1.0,-0.243902444839,-2.74390244484,-0.0609756112099,1.0,0.0,0.0,0.0,1.0,0.0,0.0,0.0,1.0,-0.0814028564453,-0.167594116211,9.93593688965,1.0,0.0,0.0,0.0,1.0,0.0,0.0,0.0,1.0
1481887177601421675,794,1481887177597879348,,4.52847719193,1.72420477867,109.387634277,0.00121699995361,1.0,0.0,0.0,0.0,1.0,0.0,0.0,0.0,1.0,0.0,-3.96341490746,-0.670731723309,1.0,0.0,0.0,0.0,1.0,0.0,0.0,0.0,1.0,-0.105344873047,-0.0383072265625,10.1514150391,1.0,0.0,0.0,0.0,1.0,0.0,0.0,0.0,1.0
1481887177628380300,795,1481887177626309164,,4.38750267029,1.71776688099,109.386161804,0.002623999957,1.0,0.0,0.0,0.0,1.0,0.0,0.0,0.0,1.0,-0.243902444839,-2.37804889679,1.2195122242,1.0,0.0,0.0,0.0,1.0,0.0,0.0,0.0,1.0,0.00478840332031,-0.076614453125,10.299855542,1.0,0.0,0.0,0.0,1.0,0.0,0.0,0.0,1.0
1481887177645133087,796,1481887177643096794,,4.27309846878,1.71497106552,109.423347473,0.00433799996972,1.0,0.0,0.0,0.0,1.0,0.0,0.0,0.0,1.0,-0.365853667259,-0.914634168148,0.548780500889,1.0,0.0,0.0,0.0,1.0,0.0,0.0,0.0,1.0,0.0574608398438,-0.105344873047,10.2567599121,1.0,0.0,0.0,0.0,1.0,0.0,0.0,0.0,1.0
1481887177665857365,797,1481887177663757844,,4.19283628464,1.71163403988,109.437034607,0.00290199997835,1.0,0.0,0.0,0.0,1.0,0.0,0.0,0.0,1.0,-0.0609756112099,-3.04878044128,0.0609756112099,1.0,0.0,0.0,0.0,1.0,0.0,0.0,0.0,1.0,-0.129286889648,-0.0909796630859,10.1466266357,1.0,0.0,0.0,0.0,1.0,0.0,0.0,0.0,1.0
1481887177687209141,798,1481887177684941808,,4.06813097,1.71271312237,109.432319641,0.00107400002889,1.0,0.0,0.0,0.0,1.0,0.0,0.0,0.0,1.0,-0.0609756112099,-3.23170733452,-0.975609779358,1.0,0.0,0.0,0.0,1.0,0.0,0.0,0.0,1.0,-0.110133276367,-0.119710083008,10.1705686523,1.0,0.0,0.0,0.0,1.0,0.0,0.0,0.0,1.0
1481887177707912378,799,1481887177705554264,,3.94967556,1.71315181255,109.428001404,0.00128800002858,1.0,0.0,0.0,0.0,1.0,0.0,0.0,0.0,1.0,0.0,-3.29268312454,-0.12195122242,1.0,0.0,0.0,0.0,1.0,0.0,0.0,0.0,1.0,0.0383072265625,-0.0861912597656,10.180145459,1.0,0.0,0.0,0.0,1.0,0.0,0.0,0.0,1.0
1481887177729248372,800,1481887177727245881,,3.83668088913,1.71522080898,109.446647644,0.0017719999887,1.0,0.0,0.0,0.0,1.0,0.0,0.0,0.0,1.0,-0.18292683363,-1.52439022064,0.304878056049,1.0,0.0,0.0,0.0,1.0,0.0,0.0,0.0,1.0,0.229843359375,-0.0957680664062,10.3046439453,1.0,0.0,0.0,0.0,1.0,0.0,0.0,0.0,1.0
1481887177749770047,801,1481887177747768130,,3.74179244041,1.72073221207,109.461158752,0.00112000002991,1.0,0.0,0.0,0.0,1.0,0.0,0.0,0.0,1.0,-0.18292683363,-1.40243899822,0.0609756112099,1.0,0.0,0.0,0.0,1.0,0.0,0.0,0.0,1.0,0.162805712891,-0.134075302102,10.3285859619,1.0,0.0,0.0,0.0,1.0,0.0,0.0,0.0,1.0
1481887177770100109,802,1481887177768145795,,3.65241146088,1.71263837814,109.457954407,0.00106499996036,1.0,0.0,0.0,0.0,1.0,0.0,0.0,0.0,1.0,-0.0609756112099,-1.52439022064,-0.792682945728,1.0,0.0,0.0,0.0,1.0,0.0,0.0,0.0,1.0,0.0191536132812,-0.110133276367,10.3094323486,1.0,0.0,0.0,0.0,1.0,0.0,0.0,0.0,1.0
1481887177790957877,803,1481887177789240072,,3.56500411034,1.71018564701,109.449699402,0.00107400002889,1.0,0.0,0.0,0.0,1.0,0.0,0.0,0.0,1.0,-0.304878056049,-2.07317066193,-0.670731723309,1.0,0.0,0.0,0.0,1.0,0.0,0.0,0.0,1.0,0.0335188255255,-0.0430956298828,10.2376062988,1.0,0.0,0.0,0.0,1.0,0.0,0.0,0.0,1.0
1481887177812138663,804,1481887177810498307,,3.4767563343,1.70844590664,109.446876526,0.000974000024144,1.0,0.0,0.0,0.0,1.0,0.0,0.0,0.0,1.0,-0.12195122242,-2.62195134163,-0.243902444839,1.0,0.0,0.0,0.0,1.0,0.0,0.0,0.0,1.0,0.00478840332031,-0.0718260498047,10.2088758789,1.0,0.0,0.0,0.0,1.0,0.0,0.0,0.0,1.0
1481887177833089764,805,1481887177831414095,,3.37950992584,1.7088675499,109.455230713,0.000975999981165,1.0,0.0,0.0,0.0,1.0,0.0,0.0,0.0,1.0,-0.12195122242,-3.04878044128,0.12195122242,1.0,0.0,0.0,0.0,1.0,0.0,0.0,0.0,1.0,0.0383072265625,-0.0191536132812,10.1466266357,1.0,0.0,0.0,0.0,1.0,0.0,0.0,0.0,1.0
1481887177854135551,806,1481887177852193477,,3.26216888428,1.70969605446,109.473678589,0.00127000000793,1.0,0.0,0.0,0.0,1.0,0.0,0.0,0.0,1.0,-0.365853667259,-2.86585378647,1.2195122242,1.0,0.0,0.0,0.0,1.0,0.0,0.0,0.0,1.0,0.31124621582,-0.110133276367,10.2423947021,1.0,0.0,0.0,0.0,1.0,0.0,0.0,0.0,1.0
1481887177874755299,807,1481887177872929839,,3.14937448502,1.70957255363,109.517425537,0.00100499996915,1.0,0.0,0.0,0.0,1.0,0.0,0.0,0.0,1.0,0.0609756112099,-0.304878056049,1.95121955872,1.0,0.0,0.0,0.0,1.0,0.0,0.0,0.0,1.0,0.46447512207,-0.105344873047,10.2423947021,1.0,0.0,0.0,0.0,1.0,0.0,0.0,0.0,1.0
1481887177895433797,808,1481887177893758336,,3.06248927116,1.71097052097,109.557579041,0.00103599997237,1.0,0.0,0.0,0.0,1.0,0.0,0.0,0.0,1.0,-0.12195122242,0.914634168148,1.09756100178,1.0,0.0,0.0,0.0,1.0,0.0,0.0,0.0,1.0,0.531512805087,-0.0909796630859,10.1705686523,1.0,0.0,0.0,0.0,1.0,0.0,0.0,0.0,1.0
