%time,field.header.seq,field.header.stamp,field.header.frame_id,field.orientation.x,field.orientation.y,field.orientation.z,field.orientation.w,field.orientation_covariance0,field.orientation_covariance1,field.orientation_covariance2,field.orientation_covariance3,field.orientation_covariance4,field.orientation_covariance5,field.orientation_covariance6,field.orientation_covariance7,field.orientation_covariance8,field.angular_velocity.x,field.angular_velocity.y,field.angular_velocity.z,field.angular_velocity_covariance0,field.angular_velocity_covariance1,field.angular_velocity_covariance2,field.angular_velocity_covariance3,field.angular_velocity_covariance4,field.angular_velocity_covariance5,field.angular_velocity_covariance6,field.angular_velocity_covariance7,field.angular_velocity_covariance8,field.linear_acceleration.x,field.linear_acceleration.y,field.linear_acceleration.z,field.linear_acceleration_covariance0,field.linear_acceleration_covariance1,field.linear_acceleration_covariance2,field.linear_acceleration_covariance3,field.linear_acceleration_covariance4,field.linear_acceleration_covariance5,field.linear_acceleration_covariance6,field.linear_acceleration_covariance7,field.linear_acceleration_covariance8
1463577704231560743,473,1463577704196289061,,33.0188102722,11.1866750717,-94.9865112305,0.010277999565,1.0,0.0,0.0,0.0,1.0,0.0,0.0,0.0,1.0,122.865859985,-21.7682933807,-15.3048791885,1.0,0.0,0.0,0.0,1.0,0.0,0.0,0.0,1.0,2.46123930664,-6.11479104004,-7.35019909668,1.0,0.0,0.0,0.0,1.0,0.0,0.0,0.0,1.0
1463577704231638399,474,1463577704202079298,,34.3371086121,11.1203556061,-95.3435592651,0.0109320003539,1.0,0.0,0.0,0.0,1.0,0.0,0.0,0.0,1.0,118.719512939,-25.4878044128,-9.81707286835,1.0,0.0,0.0,0.0,1.0,0.0,0.0,0.0,1.0,2.17872351074,-6.11479104004,-7.72848295898,1.0,0.0,0.0,0.0,1.0,0.0,0.0,0.0,1.0
1463577704231728555,475,1463577704210920669,,35.3680267334,11.0034770966,-95.6119842529,0.00888799969107,1.0,0.0,0.0,0.0,1.0,0.0,0.0,0.0,1.0,114.207321167,-28.9024410248,-4.14634132385,1.0,0.0,0.0,0.0,1.0,0.0,0.0,0.0,1.0,1.83395847168,-6.12436784668,-7.56567724609,1.0,0.0,0.0,0.0,1.0,0.0,0.0,0.0,1.0
1463577704231889544,476,1463577704219000845,,36.5292129517,10.8283290863,-95.9025268555,0.0103479996324,1.0,0.0,0.0,0.0,1.0,0.0,0.0,0.0,1.0,110.487808228,-29.4512195587,-0.731707334518,1.0,0.0,0.0,0.0,1.0,0.0,0.0,0.0,1.0,1.50355864258,-6.29196196289,-7.65186850586,1.0,0.0,0.0,0.0,1.0,0.0,0.0,0.0,1.0
1463577704239721752,477,1463577704230510695,,37.7633094788,10.5797405243,-96.1840438843,0.0114430002868,1.0,0.0,0.0,0.0,1.0,0.0,0.0,0.0,1.0,104.512199402,-30.975610733,4.87804889679,1.0,0.0,0.0,0.0,1.0,0.0,0.0,0.0,1.0,1.33117612305,-6.56490095215,-7.4268135498,1.0,0.0,0.0,0.0,1.0,0.0,0.0,0.0,1.0
1463577704242347418,478,1463577704240232271,,38.724647522,10.3438148499,-96.3874664307,0.00931499991566,1.0,0.0,0.0,0.0,1.0,0.0,0.0,0.0,1.0,97.7439041138,-31.8902454376,9.14634132385,1.0,0.0,0.0,0.0,1.0,0.0,0.0,0.0,1.0,1.20188930646,-7.20175859375,-7.38850632324,1.0,0.0,0.0,0.0,1.0,0.0,0.0,0.0,1.0
1463577704254275756,479,1463577704249412703,,39.5964202881,10.0854854584,-96.5717315674,0.00932400021702,1.0,0.0,0.0,0.0,1.0,0.0,0.0,0.0,1.0,90.0,-32.865852356,13.5975618362,1.0,0.0,0.0,0.0,1.0,0.0,0.0,0.0,1.0,1.30244570312,-6.91445439453,-7.48906279297,1.0,0.0,0.0,0.0,1.0,0.0,0.0,0.0,1.0
1463577704263044315,480,1463577704259289851,,40.5152282715,9.74462795258,-96.7422714233,0.0100710000843,1.0,0.0,0.0,0.0,1.0,0.0,0.0,0.0,1.0,85.1219558716,-35.3048782349,19.3292694092,1.0,0.0,0.0,0.0,1.0,0.0,0.0,0.0,1.0,1.11569797363,-7.48427438965,-7.31189187012,1.0,0.0,0.0,0.0,1.0,0.0,0.0,0.0,1.0
1463577704274010521,481,1463577704269437414,,41.3648414612,9.41892337799,-96.9350280762,0.010111999698,1.0,0.0,0.0,0.0,1.0,0.0,0.0,0.0,1.0,79.5731735229,-35.7926826477,17.9268302917,1.0,0.0,0.0,0.0,1.0,0.0,0.0,0.0,1.0,1.14921679688,-7.06289489746,-7.02937607422,1.0,0.0,0.0,0.0,1.0,0.0,0.0,0.0,1.0
1463577704282537206,482,1463577704279380916,,42.1999320984,9.06956005096,-97.1251754761,0.0101070003584,1.0,0.0,0.0,0.0,1.0,0.0,0.0,0.0,1.0,76.0975646973,-36.9512214661,19.4512195587,1.0,0.0,0.0,0.0,1.0,0.0,0.0,0.0,1.0,0.981622680664,-7.64229169922,-6.89051237793,1.0,0.0,0.0,0.0,1.0,0.0,0.0,0.0,1.0
1463577704295724549,483,1463577704289555563,,42.9619674683,8.71026802063,-97.3198318481,0.0100870002061,1.0,0.0,0.0,0.0,1.0,0.0,0.0,0.0,1.0,70.9756088257,-37.317073822,20.1829280853,1.0,0.0,0.0,0.0,1.0,0.0,0.0,0.0,1.0,0.814028564453,-7.43639035645,-7.0006456543,1.0,0.0,0.0,0.0,1.0,0.0,0.0,0.0,1.0
1463577704306621276,484,1463577704300084427,,43.6773719788,8.33872795105,-97.5153198242,0.0101110003889,1.0,0.0,0.0,0.0,1.0,0.0,0.0,0.0,1.0,66.1585388184,-37.134147644,20.5487823486,1.0,0.0,0.0,0.0,1.0,0.0,0.0,0.0,1.0,0.521935925381,-7.54173522949,-6.93839641113,1.0,0.0,0.0,0.0,1.0,0.0,0.0,0.0,1.0
1463577704314199631,485,1463577704309716003,,44.3534622192,7.98403406143,-97.6918869019,0.0101020000875,1.0,0.0,0.0,0.0,1.0,0.0,0.0,0.0,1.0,61.524394989,-35.3048782349,21.7682933807,1.0,0.0,0.0,0.0,1.0,0.0,0.0,0.0,1.0,0.632069238281,-7.78115539551,-6.87614716797,1.0,0.0,0.0,0.0,1.0,0.0,0.0,0.0,1.0
1463577704322995794,486,1463577704319707369,,44.9841423035,7.6024479866,-97.8418807983,0.0100870002061,1.0,0.0,0.0,0.0,1.0,0.0,0.0,0.0,1.0,55.9756126404,-33.2317085266,23.7195129395,1.0,0.0,0.0,0.0,1.0,0.0,0.0,0.0,1.0,0.00957680664062,-8.04451757812,-6.77559069824,1.0,0.0,0.0,0.0,1.0,0.0,0.0,0.0,1.0
1463577704331289615,487,1463577704329858787,,45.5397987366,7.24475383759,-97.991355896,0.0101039996371,1.0,0.0,0.0,0.0,1.0,0.0,0.0,0.0,1.0,49.634147644,-31.6463413239,22.9268302917,1.0,0.0,0.0,0.0,1.0,0.0,0.0,0.0,1.0,0.0526724365234,-8.00621035156,-6.90966599121,1.0,0.0,0.0,0.0,1.0,0.0,0.0,0.0,1.0
1463577704344335865,488,1463577704339901559,,46.040473938,6.89843082428,-98.1190872192,0.0100929997861,1.0,0.0,0.0,0.0,1.0,0.0,0.0,0.0,1.0,42.9878044128,-28.8414649963,23.2926845551,1.0,0.0,0.0,0.0,1.0,0.0,0.0,0.0,1.0,-0.15801730957,-8.38449362935,-6.86657036133,1.0,0.0,0.0,0.0,1.0,0.0,0.0,0.0,1.0
1463577704355525976,489,1463577704349944592,,46.4398269653,6.57177782059,-98.2187042236,0.0101039996371,1.0,0.0,0.0,0.0,1.0,0.0,0.0,0.0,1.0,33.3536605835,-25.8536586761,24.6341457367,1.0,0.0,0.0,0.0,1.0,0.0,0.0,0.0,1.0,-0.0718260498047,-8.54251210796,-7.08683691406,1.0,0.0,0.0,0.0,1.0,0.0,0.0,0.0,1.0
1463577704365739269,490,1463577704360102104,,46.7257423401,6.25534391403,-98.315536499,0.010098000057,1.0,0.0,0.0,0.0,1.0,0.0,0.0,0.0,1.0,24.3292694092,-23.4146347046,23.0487823486,1.0,0.0,0.0,0.0,1.0,0.0,0.0,0.0,1.0,-0.517147558594,-8.45631967915,-7.50342800293,1.0,0.0,0.0,0.0,1.0,0.0,0.0,0.0,1.0
1463577704372860959,491,1463577704370316177,,46.9853477478,5.99191474915,-98.4253005981,0.0101150004193,1.0,0.0,0.0,0.0,1.0,0.0,0.0,0.0,1.0,21.6463432312,-22.4390239716,20.3048782349,1.0,0.0,0.0,0.0,1.0,0.0,0.0,0.0,1.0,-0.0574608398438,-8.06367119141,-7.05331809082,1.0,0.0,0.0,0.0,1.0,0.0,0.0,0.0,1.0
1463577704382450764,492,1463577704380299263,,47.2020225525,5.77494096756,-98.5180435181,0.0100870002061,1.0,0.0,0.0,0.0,1.0,0.0,0.0,0.0,1.0,18.9024391174,-18.0487823486,18.3536586761,1.0,0.0,0.0,0.0,1.0,0.0,0.0,0.0,1.0,-0.0909796630859,-7.82903942871,-7.19697019043,1.0,0.0,0.0,0.0,1.0,0.0,0.0,0.0,1.0
1463577704398590075,493,1463577704390407087,,47.4187507629,5.56509828568,-98.6324386597,0.0101140001789,1.0,0.0,0.0,0.0,1.0,0.0,0.0,0.0,1.0,19.3292694092,-18.658536911,16.0365848541,1.0,0.0,0.0,0.0,1.0,0.0,0.0,0.0,1.0,-0.234631762695,-7.69496413574,-7.0964137207,1.0,0.0,0.0,0.0,1.0,0.0,0.0,0.0,1.0
1463577704402879172,494,1463577704400512098,,47.6399040222,5.41275930405,-98.7454376221,0.010095000267,1.0,0.0,0.0,0.0,1.0,0.0,0.0,0.0,1.0,18.9024391174,-14.9390249252,12.0731716156,1.0,0.0,0.0,0.0,1.0,0.0,0.0,0.0,1.0,-0.234631762695,-7.67102211914,-6.80910952148,1.0,0.0,0.0,0.0,1.0,0.0,0.0,0.0,1.0
1463577704412851320,495,1463577704410755443,,47.8490219116,5.28866195679,-98.8746261597,0.0101049998775,1.0,0.0,0.0,0.0,1.0,0.0,0.0,0.0,1.0,19.5731716156,-13.7195129395,8.65853691101,1.0,0.0,0.0,0.0,1.0,0.0,0.0,0.0,1.0,-0.373495458984,-7.59919606934,-7.12514414062,1.0,0.0,0.0,0.0,1.0,0.0,0.0,0.0,1.0
1463577704457195257,496,1463577704420793111,,48.0621299744,5.2028260231,-99.0019302368,0.0101290000603,1.0,0.0,0.0,0.0,1.0,0.0,0.0,0.0,1.0,18.9634151459,-10.7926826477,5.60975599289,1.0,0.0,0.0,0.0,1.0,0.0,0.0,0.0,1.0,-0.478840332031,-7.69496413574,-6.93360800781,1.0,0.0,0.0,0.0,1.0,0.0,0.0,0.0,1.0
1463577704457817963,497,1463577704430835102,,48.2486724854,5.14396429062,-99.117980957,0.0100760003552,1.0,0.0,0.0,0.0,1.0,0.0,0.0,0.0,1.0,16.7682933807,-7.50000047684,3.53658556938,1.0,0.0,0.0,0.0,1.0,0.0,0.0,0.0,1.0,-0.732625708008,-7.94874951172,-7.22091220703,1.0,0.0,0.0,0.0,1.0,0.0,0.0,0.0,1.0
1463577704458265044,498,1463577704440996936,,48.4175186157,5.12114572525,-99.2270431519,0.0100769996643,1.0,0.0,0.0,0.0,1.0,0.0,0.0,0.0,1.0,14.5731706619,-4.69512224197,1.34146344662,1.0,0.0,0.0,0.0,1.0,0.0,0.0,0.0,1.0,-0.727837304687,-7.93438430176,-7.06768330078,1.0,0.0,0.0,0.0,1.0,0.0,0.0,0.0,1.0
1463577704458831605,499,1463577704451099761,,48.5727844238,5.13497400284,-99.322265625,0.0101150004193,1.0,0.0,0.0,0.0,1.0,0.0,0.0,0.0,1.0,12.4390249252,-1.64634156227,-0.12195122242,1.0,0.0,0.0,0.0,1.0,0.0,0.0,0.0,1.0,-0.665588061523,-8.36055161274,-7.24485422363,1.0,0.0,0.0,0.0,1.0,0.0,0.0,0.0,1.0
1463577704509425517,500,1463577704461154772,,48.705280304,5.18527030945,-99.4115142822,0.0101110003889,1.0,0.0,0.0,0.0,1.0,0.0,0.0,0.0,1.0,10.1829271317,0.487804889679,-1.70731711388,1.0,0.0,0.0,0.0,1.0,0.0,0.0,0.0,1.0,-0.46447512207,-8.31266757954,-7.17302817383,1.0,0.0,0.0,0.0,1.0,0.0,0.0,0.0,1.0
1463577704509715307,501,1463577704471368013,,48.8153915405,5.26433753967,-99.4938049316,0.0100880004466,1.0,0.0,0.0,0.0,1.0,0.0,0.0,0.0,1.0,8.47560977936,2.19512200356,-2.62195134163,1.0,0.0,0.0,0.0,1.0,0.0,0.0,0.0,1.0,-0.248996972656,-8.14028564453,-7.12514414062,1.0,0.0,0.0,0.0,1.0,0.0,0.0,0.0,1.0
1463577704509991556,502,1463577704481545368,,48.9166069031,5.35525655746,-99.5795974731,0.010161999613,1.0,0.0,0.0,0.0,1.0,0.0,0.0,0.0,1.0,8.41463470459,3.10975623131,-4.02439022064,1.0,0.0,0.0,0.0,1.0,0.0,0.0,0.0,1.0,-0.330399829102,-7.76679018555,-6.98149204102,1.0,0.0,0.0,0.0,1.0,0.0,0.0,0.0,1.0
1463577704511318166,503,1463577704491594547,,49.0247955322,5.46222734451,-99.6715164185,0.0100600002334,1.0,0.0,0.0,0.0,1.0,0.0,0.0,0.0,1.0,9.14634132385,3.7804877758,-5.91463422775,1.0,0.0,0.0,0.0,1.0,0.0,0.0,0.0,1.0,-0.349553442383,-7.78594379883,-6.93839641113,1.0,0.0,0.0,0.0,1.0,0.0,0.0,0.0,1.0
1463577704512984149,504,1463577704501687267,,49.1449699402,5.58569812775,-99.7680511475,0.0100889997557,1.0,0.0,0.0,0.0,1.0,0.0,0.0,0.0,1.0,10.0609760284,4.45121955872,-7.43902492523,1.0,0.0,0.0,0.0,1.0,0.0,0.0,0.0,1.0,-0.325611425781,-7.7093293457,-6.77080229492,1.0,0.0,0.0,0.0,1.0,0.0,0.0,0.0,1.0
1463577704513362637,505,1463577704511798007,,49.263168335,5.72432231903,-99.8742904663,0.0101070003584,1.0,0.0,0.0,0.0,1.0,0.0,0.0,0.0,1.0,10.8536586761,4.69512224197,-9.08536529541,1.0,0.0,0.0,0.0,1.0,0.0,0.0,0.0,1.0,-0.296881024126,-7.6853873291,-6.93839641113,1.0,0.0,0.0,0.0,1.0,0.0,0.0,0.0,1.0
1463577704557133399,506,1463577704521744738,,49.3901329041,5.86968135834,-99.9767303467,0.0100929997861,1.0,0.0,0.0,0.0,1.0,0.0,0.0,0.0,1.0,10.9756097794,5.48780488968,-9.63414573669,1.0,0.0,0.0,0.0,1.0,0.0,0.0,0.0,1.0,-0.320823022461,-7.79552060547,-6.82347473145,1.0,0.0,0.0,0.0,1.0,0.0,0.0,0.0,1.0
1463577704557690741,507,1463577704532107301,,49.5203933716,6.03383493423,-100.069976807,0.0101100001484,1.0,0.0,0.0,0.0,1.0,0.0,0.0,0.0,1.0,9.93902492523,7.13414621353,-10.4268293381,1.0,0.0,0.0,0.0,1.0,0.0,0.0,0.0,1.0,-0.272938989258,-8.11634362793,-6.75643708496,1.0,0.0,0.0,0.0,1.0,0.0,0.0,0.0,1.0
1463577704558254280,508,1463577704542130647,,49.6275978088,6.21445560455,-100.149864197,0.0100969998166,1.0,0.0,0.0,0.0,1.0,0.0,0.0,0.0,1.0,7.56097555161,9.08536529541,-10.7926826477,1.0,0.0,0.0,0.0,1.0,0.0,0.0,0.0,1.0,-0.225054956055,-8.13070883789,-6.73728347168,1.0,0.0,0.0,0.0,1.0,0.0,0.0,0.0,1.0
1463577704558827976,509,1463577704552362741,,49.7139091492,6.40590810776,-100.212295532,0.0101229995489,1.0,0.0,0.0,0.0,1.0,0.0,0.0,0.0,1.0,5.06097555161,11.0975618362,-10.6097564697,1.0,0.0,0.0,0.0,1.0,0.0,0.0,0.0,1.0,-0.220266552734,-8.21690009766,-6.72291826172,1.0,0.0,0.0,0.0,1.0,0.0,0.0,0.0,1.0
1463577704568049866,510,1463577704562574679,,49.7753982544,6.60532045364,-100.262443542,0.0101039996371,1.0,0.0,0.0,0.0,1.0,0.0,0.0,0.0,1.0,1.8292683363,12.2560977936,-10.3048782349,1.0,0.0,0.0,0.0,1.0,0.0,0.0,0.0,1.0,-0.129286889648,-8.39885883931,-6.68461103516,1.0,0.0,0.0,0.0,1.0,0.0,0.0,0.0,1.0
1463577704575227181,511,1463577704572719639,,49.7923698425,6.80984354019,-100.304588318,0.0100999996066,1.0,0.0,0.0,0.0,1.0,0.0,0.0,0.0,1.0,-2.37804889679,12.9268293381,-9.87804889679,1.0,0.0,0.0,0.0,1.0,0.0,0.0,0.0,1.0,-0.0143652099609,-8.36534001606,-6.70855305176,1.0,0.0,0.0,0.0,1.0,0.0,0.0,0.0,1.0
1463577704584593862,512,1463577704582410850,,49.776714325,7.02475214005,-100.346618652,0.0100800003856,1.0,0.0,0.0,0.0,1.0,0.0,0.0,0.0,1.0,-5.48780488968,13.3536586761,-10.3658542633,1.0,0.0,0.0,0.0,1.0,0.0,0.0,0.0,1.0,0.105344873047,-8.42758925923,-6.78037910156,1.0,0.0,0.0,0.0,1.0,0.0,0.0,0.0,1.0
1463577704594893717,513,1463577704592800965,,49.7200584412,7.23645401001,-100.393638611,0.0101159997284,1.0,0.0,0.0,0.0,1.0,0.0,0.0,0.0,1.0,-9.69512176514,12.8658542633,-10.548781395,1.0,0.0,0.0,0.0,1.0,0.0,0.0,0.0,1.0,0.105344873047,-8.51378168804,-6.79474431152,1.0,0.0,0.0,0.0,1.0,0.0,0.0,0.0,1.0
1463577704616128476,514,1463577704602899362,,49.6323356628,7.4583067894,-100.443626404,0.0100819999352,1.0,0.0,0.0,0.0,1.0,0.0,0.0,0.0,1.0,-14.0853662491,12.4390249252,-10.7317075729,1.0,0.0,0.0,0.0,1.0,0.0,0.0,0.0,1.0,0.387860668945,-8.85854614258,-6.742071875,1.0,0.0,0.0,0.0,1.0,0.0,0.0,0.0,1.0
1463577704616385558,515,1463577704612689271,,49.5400505066,7.68471765518,-100.496948242,0.0100899999961,1.0,0.0,0.0,0.0,1.0,0.0,0.0,0.0,1.0,-18.5975627899,12.0731716156,-11.5853662491,1.0,0.0,0.0,0.0,1.0,0.0,0.0,0.0,1.0,0.421379492187,-9.18894597168,-5.99986936035,1.0,0.0,0.0,0.0,1.0,0.0,0.0,0.0,1.0
1463577704655562432,516,1463577704622848553,,49.3548774719,7.9075255394,-100.562644958,0.0101340003312,1.0,0.0,0.0,0.0,1.0,0.0,0.0,0.0,1.0,-23.7195129395,11.4024391174,-11.7682924271,1.0,0.0,0.0,0.0,1.0,0.0,0.0,0.0,1.0,0.440533105469,-8.63828017437,-6.54095893555,1.0,0.0,0.0,0.0,1.0,0.0,0.0,0.0,1.0
1463577704655844463,517,1463577704632998773,,49.1074676514,8.12139797211,-100.629264832,0.0101110003889,1.0,0.0,0.0,0.0,1.0,0.0,0.0,0.0,1.0,-30.0000019073,11.0975618362,-11.4634151459,1.0,0.0,0.0,0.0,1.0,0.0,0.0,0.0,1.0,0.416591088867,-8.77235488281,-6.65588061523,1.0,0.0,0.0,0.0,1.0,0.0,0.0,0.0,1.0
1463577704656163784,518,1463577704643037951,,48.8033638,8.32941246033,-100.707748413,0.0100720003247,1.0,0.0,0.0,0.0,1.0,0.0,0.0,0.0,1.0,-35.5487823486,9.63414573669,-11.4024391174,1.0,0.0,0.0,0.0,1.0,0.0,0.0,0.0,1.0,0.569819995117,-8.85854614258,-6.77559069824,1.0,0.0,0.0,0.0,1.0,0.0,0.0,0.0,1.0
1463577704656478210,519,1463577704653042859,,48.4246253967,8.53240680695,-100.786155701,0.0101070003584,1.0,0.0,0.0,0.0,1.0,0.0,0.0,0.0,1.0,-42.682926178,9.93902492523,-11.4634151459,1.0,0.0,0.0,0.0,1.0,0.0,0.0,0.0,1.0,0.45968671875,-8.8154505127,-6.84741674805,1.0,0.0,0.0,0.0,1.0,0.0,0.0,0.0,1.0
1463577704684153464,520,1463577704663143600,,47.9861946106,8.72668933868,-100.868278503,0.0100790001452,1.0,0.0,0.0,0.0,1.0,0.0,0.0,0.0,1.0,-48.8414649963,9.45121955872,-11.2804880142,1.0,0.0,0.0,0.0,1.0,0.0,0.0,0.0,1.0,0.440533105469,-8.77235488281,-6.85220515137,1.0,0.0,0.0,0.0,1.0,0.0,0.0,0.0,1.0
1463577704684623775,521,1463577704673267466,,47.4748306274,8.90951061249,-100.952713013,0.0101239997894,1.0,0.0,0.0,0.0,1.0,0.0,0.0,0.0,1.0,-55.0609779358,9.39024448395,-11.0365858078,1.0,0.0,0.0,0.0,1.0,0.0,0.0,0.0,1.0,0.296881024126,-8.6239149644,-7.02937607422,1.0,0.0,0.0,0.0,1.0,0.0,0.0,0.0,1.0
1463577704684923617,522,1463577704683424873,,46.9205131531,9.0892906189,-101.044906616,0.0100940000266,1.0,0.0,0.0,0.0,1.0,0.0,0.0,0.0,1.0,-59.390247345,9.51219558716,-12.0121955872,1.0,0.0,0.0,0.0,1.0,0.0,0.0,0.0,1.0,0.138863696289,-8.40364724263,-6.95755002441,1.0,0.0,0.0,0.0,1.0,0.0,0.0,0.0,1.0
1463577704698480021,523,1463577704693579520,,46.3146743774,9.27720832825,-101.141990662,0.0100929997861,1.0,0.0,0.0,0.0,1.0,0.0,0.0,0.0,1.0,-64.0853729248,10.2439022064,-13.048781395,1.0,0.0,0.0,0.0,1.0,0.0,0.0,0.0,1.0,0.105344873047,-8.25520732422,-7.0485296875,1.0,0.0,0.0,0.0,1.0,0.0,0.0,0.0,1.0
1463577704709147426,524,1463577704703626094,,45.6594047546,9.47537708282,-101.247581482,0.0101279998198,1.0,0.0,0.0,0.0,1.0,0.0,0.0,0.0,1.0,-67.5,10.8536586761,-14.1463422775,1.0,0.0,0.0,0.0,1.0,0.0,0.0,0.0,1.0,0.110133276367,-7.85776984863,-7.12993254395,1.0,0.0,0.0,0.0,1.0,0.0,0.0,0.0,1.0
1463577704716198492,525,1463577704713840220,,44.9653739929,9.67350673676,-101.359413147,0.0101039996371,1.0,0.0,0.0,0.0,1.0,0.0,0.0,0.0,1.0,-71.2804870605,11.2195119858,-14.9390249252,1.0,0.0,0.0,0.0,1.0,0.0,0.0,0.0,1.0,0.0239420166016,-7.88171186523,-7.33583388672,1.0,0.0,0.0,0.0,1.0,0.0,0.0,0.0,1.0
1463577704725898714,526,1463577704723877107,,44.2389068604,9.88111877441,-101.47592926,0.0100769996643,1.0,0.0,0.0,0.0,1.0,0.0,0.0,0.0,1.0,-75.1219558716,11.341463089,-15.3658533096,1.0,0.0,0.0,0.0,1.0,0.0,0.0,0.0,1.0,0.205901342773,-7.92480749512,-7.40765993652,1.0,0.0,0.0,0.0,1.0,0.0,0.0,0.0,1.0
1463577704736859295,527,1463577704733978681,,43.456161499,10.0975322723,-101.606155396,0.0101009998471,1.0,0.0,0.0,0.0,1.0,0.0,0.0,0.0,1.0,-80.1829299927,10.6097564697,-15.9146347046,1.0,0.0,0.0,0.0,1.0,0.0,0.0,0.0,1.0,0.45968671875,-7.76679018555,-7.46512077637,1.0,0.0,0.0,0.0,1.0,0.0,0.0,0.0,1.0
1463577704746843786,528,1463577704744104578,,42.622631073,10.315196991,-101.754737854,0.0100919995457,1.0,0.0,0.0,0.0,1.0,0.0,0.0,0.0,1.0,-84.1463394165,9.69512176514,-16.7682933807,1.0,0.0,0.0,0.0,1.0,0.0,0.0,0.0,1.0,0.574608398438,-7.47948598633,-7.59440766602,1.0,0.0,0.0,0.0,1.0,0.0,0.0,0.0,1.0
1463577704757364213,529,1463577704754248704,,41.7486534119,10.5174741745,-101.917900085,0.0100999996066,1.0,0.0,0.0,0.0,1.0,0.0,0.0,0.0,1.0,-87.3780517578,8.35365867615,-16.7682933807,1.0,0.0,0.0,0.0,1.0,0.0,0.0,0.0,1.0,0.550666381836,-7.27358464355,-7.71411774902,1.0,0.0,0.0,0.0,1.0,0.0,0.0,0.0,1.0
1463577704766192094,530,1463577704764319914,,40.8409843445,10.7062644958,-102.102279663,0.0101079996675,1.0,0.0,0.0,0.0,1.0,0.0,0.0,0.0,1.0,-90.2439041138,7.07317113876,-17.8048782349,1.0,0.0,0.0,0.0,1.0,0.0,0.0,0.0,1.0,0.426167895508,-7.05331809082,-7.70454094238,1.0,0.0,0.0,0.0,1.0,0.0,0.0,0.0,1.0
1463577704777522674,531,1463577704774416384,,39.9052619934,10.8816766739,-102.305091858,0.0101009998471,1.0,0.0,0.0,0.0,1.0,0.0,0.0,0.0,1.0,-92.1951293945,6.0365858078,-18.5975627899,1.0,0.0,0.0,0.0,1.0,0.0,0.0,0.0,1.0,0.325611425781,-6.92403120117,-7.94874951172,1.0,0.0,0.0,0.0,1.0,0.0,0.0,0.0,1.0
1463577704786554409,532,1463577704784569312,,38.94298172,11.0524454117,-102.524932861,0.010108999908,1.0,0.0,0.0,0.0,1.0,0.0,0.0,0.0,1.0,-94.0243988037,5.67073154449,-19.7560977936,1.0,0.0,0.0,0.0,1.0,0.0,0.0,0.0,1.0,0.244208569336,-6.70376464844,-8.05888278809,1.0,0.0,0.0,0.0,1.0,0.0,0.0,0.0,1.0
1463577704797945144,533,1463577704794455106,,37.9670906067,11.2278900146,-102.758483887,0.0100880004466,1.0,0.0,0.0,0.0,1.0,0.0,0.0,0.0,1.0,-95.7926864624,5.18292713165,-20.6707324982,1.0,0.0,0.0,0.0,1.0,0.0,0.0,0.0,1.0,0.397437475586,-6.57447775879,-8.0157871582,1.0,0.0,0.0,0.0,1.0,0.0,0.0,0.0,1.0
1463577704807608960,534,1463577704804749596,,36.9538345337,11.3996086121,-103.0103302,0.0101140001789,1.0,0.0,0.0,0.0,1.0,0.0,0.0,0.0,1.0,-97.5609741211,4.51219558716,-21.4024391174,1.0,0.0,0.0,0.0,1.0,0.0,0.0,0.0,1.0,0.435744702148,-6.1530982666,-8.14507404785,1.0,0.0,0.0,0.0,1.0,0.0,0.0,0.0,1.0
1463577704817862044,535,1463577704814673254,,35.9283561707,11.5583333969,-103.270355225,0.0101209999993,1.0,0.0,0.0,0.0,1.0,0.0,0.0,0.0,1.0,-98.414642334,3.7804877758,-21.2195129395,1.0,0.0,0.0,0.0,1.0,0.0,0.0,0.0,1.0,0.426167895508,-5.86579406738,-8.07803640137,1.0,0.0,0.0,0.0,1.0,0.0,0.0,0.0,1.0
1463577704829468612,536,1463577704825032223,,34.8764648438,11.7082738876,-103.530235291,0.0100830001757,1.0,0.0,0.0,0.0,1.0,0.0,0.0,0.0,1.0,-101.097557068,3.41463422775,-20.4268302917,1.0,0.0,0.0,0.0,1.0,0.0,0.0,0.0,1.0,0.541089611728,-5.83706364746,-8.42758925923,1.0,0.0,0.0,0.0,1.0,0.0,0.0,0.0,1.0
1463577704837857172,537,1463577704834960152,,33.8257751465,11.837978363,-103.778434753,0.0100800003856,1.0,0.0,0.0,0.0,1.0,0.0,0.0,0.0,1.0,-102.743904114,2.68292689323,-18.4146347046,1.0,0.0,0.0,0.0,1.0,0.0,0.0,0.0,1.0,0.584185168546,-5.72693037109,-8.10197841797,1.0,0.0,0.0,0.0,1.0,0.0,0.0,0.0,1.0
1463577704848884524,538,1463577704845125581,,32.7986183167,11.9056692123,-103.987365723,0.0101389996707,1.0,0.0,0.0,0.0,1.0,0.0,0.0,0.0,1.0,-101.524391174,0.0,-11.7073173523,1.0,0.0,0.0,0.0,1.0,0.0,0.0,0.0,1.0,0.703895288086,-6.28717355957,-8.93037219238,1.0,0.0,0.0,0.0,1.0,0.0,0.0,0.0,1.0
1463577704857597614,539,1463577704855302311,,31.7607898712,12.0572891235,-104.175598145,0.0100790001452,1.0,0.0,0.0,0.0,1.0,0.0,0.0,0.0,1.0,-104.817070007,3.71951246262,-11.7682924271,1.0,0.0,0.0,0.0,1.0,0.0,0.0,0.0,1.0,1.54665427246,-5.42526096191,-7.61834968262,1.0,0.0,0.0,0.0,1.0,0.0,0.0,0.0,1.0
1463577704867994552,540,1463577704865355656,,30.6155261993,12.0333271027,-104.376876831,0.0100999996066,1.0,0.0,0.0,0.0,1.0,0.0,0.0,0.0,1.0,-110.548782349,-1.70731711388,-8.5365858078,1.0,0.0,0.0,0.0,1.0,0.0,0.0,0.0,1.0,-0.234631762695,-4.66869294504,-8.14986245117,1.0,0.0,0.0,0.0,1.0,0.0,0.0,0.0,1.0
1463577704879350600,541,1463577704875619052,,29.4921722412,12.0439014435,-104.532485962,0.0100919995457,1.0,0.0,0.0,0.0,1.0,0.0,0.0,0.0,1.0,-110.609764099,0.12195122242,-4.51219558716,1.0,0.0,0.0,0.0,1.0,0.0,0.0,0.0,1.0,0.474051928711,-4.61602080078,-8.03015236816,1.0,0.0,0.0,0.0,1.0,0.0,0.0,0.0,1.0
1463577704889700871,542,1463577704885431930,,28.2950172424,12.0304555893,-104.690658569,0.0101229995489,1.0,0.0,0.0,0.0,1.0,0.0,0.0,0.0,1.0,-115.609764099,-0.487804889679,-3.71951246262,1.0,0.0,0.0,0.0,1.0,0.0,0.0,0.0,1.0,0.296881024126,-4.41490786133,-8.74841286621,1.0,0.0,0.0,0.0,1.0,0.0,0.0,0.0,1.0
1463577704900727858,543,1463577704895747878,,27.0890846252,12.0060148239,-104.838638306,0.0101730003953,1.0,0.0,0.0,0.0,1.0,0.0,0.0,0.0,1.0,-116.341468811,-2.74390244484,-1.15853655338,1.0,0.0,0.0,0.0,1.0,0.0,0.0,0.0,1.0,0.713472094727,-4.21858303293,-8.72925925293,1.0,0.0,0.0,0.0,1.0,0.0,0.0,0.0,1.0
1463577704914153013,544,1463577704905635495,,25.862859726,12.0008897781,-104.973815918,0.0100130001083,1.0,0.0,0.0,0.0,1.0,0.0,0.0,0.0,1.0,-118.231712341,-1.76829278469,0.18292683363,1.0,0.0,0.0,0.0,1.0,0.0,0.0,0.0,1.0,0.995987890625,-3.51947644043,-8.61433815776,1.0,0.0,0.0,0.0,1.0,0.0,0.0,0.0,1.0
1463577704918148153,545,1463577704915850246,,24.638671875,11.9504642487,-105.109146118,0.0100910002366,1.0,0.0,0.0,0.0,1.0,0.0,0.0,0.0,1.0,-118.963417053,-4.20731735229,1.09756100178,1.0,0.0,0.0,0.0,1.0,0.0,0.0,0.0,1.0,0.723048901367,-3.60087929687,-8.51378168804,1.0,0.0,0.0,0.0,1.0,0.0,0.0,0.0,1.0
1463577704928434466,546,1463577704925961768,,23.4015045166,11.8903236389,-105.244750977,0.0101129999384,1.0,0.0,0.0,0.0,1.0,0.0,0.0,0.0,1.0,-118.78049469,-4.93902444839,1.76829278469,1.0,0.0,0.0,0.0,1.0,0.0,0.0,0.0,1.0,0.751779321289,-3.20823022461,-8.61433815776,1.0,0.0,0.0,0.0,1.0,0.0,0.0,0.0,1.0
1463577704942312275,547,1463577704935966884,,22.1816520691,11.8363628387,-105.374519348,0.0101290000603,1.0,0.0,0.0,0.0,1.0,0.0,0.0,0.0,1.0,-119.146347046,-4.2682929039,1.64634156227,1.0,0.0,0.0,0.0,1.0,0.0,0.0,0.0,1.0,0.775721337891,-3.32794030762,-8.49462807476,1.0,0.0,0.0,0.0,1.0,0.0,0.0,0.0,1.0
1463577704949372872,548,1463577704946093041,,20.9295463562,11.7593708038,-105.509521484,0.0100889997557,1.0,0.0,0.0,0.0,1.0,0.0,0.0,0.0,1.0,-121.402442932,-5.12195110321,1.70731711388,1.0,0.0,0.0,0.0,1.0,0.0,0.0,0.0,1.0,0.579396801758,-3.02148249512,-8.87769975586,1.0,0.0,0.0,0.0,1.0,0.0,0.0,0.0,1.0
1463577704972118250,549,1463577704956374563,,19.6290473938,11.6878604889,-105.657897949,0.0102420002222,1.0,0.0,0.0,0.0,1.0,0.0,0.0,0.0,1.0,-122.804885864,-5.30487823486,0.914634168148,1.0,0.0,0.0,0.0,1.0,0.0,0.0,0.0,1.0,0.675164868164,-2.51391174316,-8.63828017437,1.0,0.0,0.0,0.0,1.0,0.0,0.0,0.0,1.0
1463577704972554706,550,1463577704966267648,,18.3470401764,11.6089658737,-105.818695068,0.00996300019324,1.0,0.0,0.0,0.0,1.0,0.0,0.0,0.0,1.0,-122.987808228,-5.79268312454,-0.365853667259,1.0,0.0,0.0,0.0,1.0,0.0,0.0,0.0,1.0,0.584185168546,-2.20266552734,-9.05965908203,1.0,0.0,0.0,0.0,1.0,0.0,0.0,0.0,1.0
1463577705007712118,551,1463577704976491514,,17.0540218353,11.5300531387,-105.995170593,0.0101030003279,1.0,0.0,0.0,0.0,1.0,0.0,0.0,0.0,1.0,-123.658531189,-6.40243911743,-1.8902438879,1.0,0.0,0.0,0.0,1.0,0.0,0.0,0.0,1.0,0.660799658203,-2.23618435059,-8.93994899902,1.0,0.0,0.0,0.0,1.0,0.0,0.0,0.0,1.0
1463577705011140542,552,1463577704986511994,,15.7158041,11.4375038147,-106.192649841,0.010214000009,1.0,0.0,0.0,0.0,1.0,0.0,0.0,0.0,1.0,-126.036590576,-6.95121955872,-3.59756112099,1.0,0.0,0.0,0.0,1.0,0.0,0.0,0.0,1.0,0.512359155273,-1.99197578125,-9.04529387207,1.0,0.0,0.0,0.0,1.0,0.0,0.0,0.0,1.0
1463577705011466947,553,1463577704996639818,,14.3878335953,11.3586215973,-106.409950256,0.00997599959373,1.0,0.0,0.0,0.0,1.0,0.0,0.0,0.0,1.0,-127.926834106,-7.98780536652,-5.85365867615,1.0,0.0,0.0,0.0,1.0,0.0,0.0,0.0,1.0,0.804451757813,-1.7669208252,-8.82981572266,1.0,0.0,0.0,0.0,1.0,0.0,0.0,0.0,1.0
1463577705012012309,554,1463577705006634987,,13.0093221664,11.251865387,-106.659660339,0.010106000118,1.0,0.0,0.0,0.0,1.0,0.0,0.0,0.0,1.0,-129.085372925,-9.51219558716,-8.17073154449,1.0,0.0,0.0,0.0,1.0,0.0,0.0,0.0,1.0,0.603338854892,-1.34075292969,-9.15542714844,1.0,0.0,0.0,0.0,1.0,0.0,0.0,0.0,1.0
1463577705019147593,555,1463577705017069685,,11.6238746643,11.1416015625,-106.93901825,0.010108999908,1.0,0.0,0.0,0.0,1.0,0.0,0.0,0.0,1.0,-129.939025879,-10.6097564697,-11.0975618362,1.0,0.0,0.0,0.0,1.0,0.0,0.0,0.0,1.0,0.689530078125,-1.22583125,-9.06923588867,1.0,0.0,0.0,0.0,1.0,0.0,0.0,0.0,1.0
1463577705030052445,556,1463577705027065790,,10.2036218643,11.0082206726,-107.250030518,0.010098000057,1.0,0.0,0.0,0.0,1.0,0.0,0.0,0.0,1.0,-130.67074585,-11.0975618362,-13.841463089,1.0,0.0,0.0,0.0,1.0,0.0,0.0,0.0,1.0,0.392649072266,-0.636857641602,-9.33259748677,1.0,0.0,0.0,0.0,1.0,0.0,0.0,0.0,1.0
1463577705044652908,557,1463577705041140213,,8.72818279266,10.8678188324,-107.603088379,0.0104160001501,1.0,0.0,0.0,0.0,1.0,0.0,0.0,0.0,1.0,-129.329269409,-12.1341466904,-16.5243911743,1.0,0.0,0.0,0.0,1.0,0.0,0.0,0.0,1.0,0.531512805087,-0.0909796630859,-9.27513723145,1.0,0.0,0.0,0.0,1.0,0.0,0.0,0.0,1.0
1463577705062933303,558,1463577705047118835,,7.36036729813,10.7148895264,-107.95664978,0.00976500008255,1.0,0.0,0.0,0.0,1.0,0.0,0.0,0.0,1.0,-127.682929993,-12.4390249252,-19.0243911743,1.0,0.0,0.0,0.0,1.0,0.0,0.0,0.0,1.0,0.277727392578,0.105344873047,-9.62469125835,1.0,0.0,0.0,0.0,1.0,0.0,0.0,0.0,1.0
1463577705063381999,559,1463577705057248378,,5.93746709824,10.5490369797,-108.347213745,0.010095000267,1.0,0.0,0.0,0.0,1.0,0.0,0.0,0.0,1.0,-126.524391174,-13.1707324982,-21.2804889679,1.0,0.0,0.0,0.0,1.0,0.0,0.0,0.0,1.0,0.330399829102,0.627280834961,-9.54807680523,1.0,0.0,0.0,0.0,1.0,0.0,0.0,0.0,1.0
1463577705093293286,560,1463577705067382140,,4.50534629822,10.3548336029,-108.769126892,0.0101140001789,1.0,0.0,0.0,0.0,1.0,0.0,0.0,0.0,1.0,-124.268295288,-14.3292694092,-23.9634151459,1.0,0.0,0.0,0.0,1.0,0.0,0.0,0.0,1.0,0.124498486328,1.33596452637,-9.77313117676,1.0,0.0,0.0,0.0,1.0,0.0,0.0,0.0,1.0
1463577705093649430,561,1463577705077346006,,3.1238424778,10.1582736969,-109.204681396,0.0100899999961,1.0,0.0,0.0,0.0,1.0,0.0,0.0,0.0,1.0,-119.817070007,-13.9634151459,-25.7926845551,1.0,0.0,0.0,0.0,1.0,0.0,0.0,0.0,1.0,0.124498486328,1.5083470459,-9.68693991699,1.0,0.0,0.0,0.0,1.0,0.0,0.0,0.0,1.0
1463577705094076720,562,1463577705087597892,,1.77446472645,9.95125102997,-109.631515503,0.0101009998471,1.0,0.0,0.0,0.0,1.0,0.0,0.0,0.0,1.0,-117.926826477,-13.9634151459,-25.4268302917,1.0,0.0,0.0,0.0,1.0,0.0,0.0,0.0,1.0,0.0909796630859,1.53707746582,-9.66299848491,1.0,0.0,0.0,0.0,1.0,0.0,0.0,0.0,1.0
1463577705117475793,563,1463577705097463790,,0.434122383595,9.73928833008,-110.056106567,0.010098000057,1.0,0.0,0.0,0.0,1.0,0.0,0.0,0.0,1.0,-116.768287659,-13.5365858078,-25.4878044128,1.0,0.0,0.0,0.0,1.0,0.0,0.0,0.0,1.0,0.0526724365234,1.82917006836,-9.4954043687,1.0,0.0,0.0,0.0,1.0,0.0,0.0,0.0,1.0
1463577705118781830,564,1463577705107910936,,-0.86534100771,9.52513313293,-110.487251282,0.010098000057,1.0,0.0,0.0,0.0,1.0,0.0,0.0,0.0,1.0,-112.378051758,-13.048781395,-26.4024391174,1.0,0.0,0.0,0.0,1.0,0.0,0.0,0.0,1.0,0.0526724365234,2.18830031738,-9.7587659668,1.0,0.0,0.0,0.0,1.0,0.0,0.0,0.0,1.0
1463577705119186307,565,1463577705117853344,,-2.12200975418,9.31688499451,-110.908866882,0.010106000118,1.0,0.0,0.0,0.0,1.0,0.0,0.0,0.0,1.0,-109.512199402,-13.1707324982,-25.975610733,1.0,0.0,0.0,0.0,1.0,0.0,0.0,0.0,1.0,0.3064578125,2.18830031738,-9.68693991699,1.0,0.0,0.0,0.0,1.0,0.0,0.0,0.0,1.0
1463577705151142378,566,1463577705127971533,,-3.3903195858,9.11357498169,-111.315444946,0.0101070003584,1.0,0.0,0.0,0.0,1.0,0.0,0.0,0.0,1.0,-108.353660583,-12.5,-24.3902435303,1.0,0.0,0.0,0.0,1.0,0.0,0.0,0.0,1.0,0.368707055664,2.93050283203,-9.70130512695,1.0,0.0,0.0,0.0,1.0,0.0,0.0,0.0,1.0
1463577705151517897,567,1463577705138065190,,-4.61022806168,8.89093875885,-111.703041077,0.010098000057,1.0,0.0,0.0,0.0,1.0,0.0,0.0,0.0,1.0,-103.292686462,-14.2682924271,-22.9268302917,1.0,0.0,0.0,0.0,1.0,0.0,0.0,0.0,1.0,0.426167895508,3.30399829102,-9.62947966167,1.0,0.0,0.0,0.0,1.0,0.0,0.0,0.0,1.0
1463577705152009614,568,1463577705148242025,,-5.77400588989,8.6594247818,-112.075149536,0.0101030003279,1.0,0.0,0.0,0.0,1.0,0.0,0.0,0.0,1.0,-97.9878082275,-14.6341466904,-21.8292694092,1.0,0.0,0.0,0.0,1.0,0.0,0.0,0.0,1.0,0.411802685547,3.52905324707,-9.57680722515,1.0,0.0,0.0,0.0,1.0,0.0,0.0,0.0,1.0
1463577705164761386,569,1463577705158401567,,-6.88071775436,8.40478992462,-112.432113647,0.0101920003071,1.0,0.0,0.0,0.0,1.0,0.0,0.0,0.0,1.0,-91.7682952881,-14.8170728683,-20.4878044128,1.0,0.0,0.0,0.0,1.0,0.0,0.0,0.0,1.0,0.124498486328,3.7493197998,-9.56244201519,1.0,0.0,0.0,0.0,1.0,0.0,0.0,0.0,1.0
1463577705176765660,570,1463577705168475069,,-7.90372276306,8.14443683624,-112.766288757,0.0100290002301,1.0,0.0,0.0,0.0,1.0,0.0,0.0,0.0,1.0,-86.4634170532,-14.1463422775,-19.2682914734,1.0,0.0,0.0,0.0,1.0,0.0,0.0,0.0,1.0,-0.134075302102,3.78762702637,-9.57680722515,1.0,0.0,0.0,0.0,1.0,0.0,0.0,0.0,1.0
1463577705182074910,571,1463577705178512476,,-8.87332630157,7.89092683792,-113.094512939,0.0100739998743,1.0,0.0,0.0,0.0,1.0,0.0,0.0,0.0,1.0,-80.2439041138,-12.6219520569,-18.5975627899,1.0,0.0,0.0,0.0,1.0,0.0,0.0,0.0,1.0,-0.239420166016,4.15633378977,-9.62947966167,1.0,0.0,0.0,0.0,1.0,0.0,0.0,0.0,1.0
1463577705196901986,572,1463577705188521134,,-9.76973724365,7.62920713425,-113.421531677,0.010156000033,1.0,0.0,0.0,0.0,1.0,0.0,0.0,0.0,1.0,-73.3536605835,-11.2195119858,-18.475610733,1.0,0.0,0.0,0.0,1.0,0.0,0.0,0.0,1.0,-0.569819995117,4.19942941965,-9.71567033691,1.0,0.0,0.0,0.0,1.0,0.0,0.0,0.0,1.0
1463577705277169634,573,1463577705200820981,,-10.6145429611,7.39575099945,-113.76008606,0.010432000272,1.0,0.0,0.0,0.0,1.0,0.0,0.0,0.0,1.0,-66.3414611816,-7.92682981491,-18.475610733,1.0,0.0,0.0,0.0,1.0,0.0,0.0,0.0,1.0,-0.502782348633,4.3382934082,-9.70609353027,1.0,0.0,0.0,0.0,1.0,0.0,0.0,0.0,1.0
1463577705277448904,574,1463577705208858136,,-11.3404970169,7.19154930115,-114.082733154,0.00972199998796,1.0,0.0,0.0,0.0,1.0,0.0,0.0,0.0,1.0,-61.8292655945,-6.40243911743,-19.3902435303,1.0,0.0,0.0,0.0,1.0,0.0,0.0,0.0,1.0,-0.450109912109,4.20421782297,-9.87368764648,1.0,0.0,0.0,0.0,1.0,0.0,0.0,0.0,1.0
1463577705281521804,575,1463577705221451628,,-12.0894918442,6.97783327103,-114.455413818,0.010927000083,1.0,0.0,0.0,0.0,1.0,0.0,0.0,0.0,1.0,-56.2195129395,-5.0,-20.3048782349,1.0,0.0,0.0,0.0,1.0,0.0,0.0,0.0,1.0,-0.349553442383,4.13718046875,-9.62947966167,1.0,0.0,0.0,0.0,1.0,0.0,0.0,0.0,1.0
1463577705281588366,576,1463577705229875083,,-12.6816110611,6.81567955017,-114.786201477,0.00927999988198,1.0,0.0,0.0,0.0,1.0,0.0,0.0,0.0,1.0,-52.317073822,-3.53658556938,-21.8292694092,1.0,0.0,0.0,0.0,1.0,0.0,0.0,0.0,1.0,-0.129286889648,4.09408483887,-9.62469125835,1.0,0.0,0.0,0.0,1.0,0.0,0.0,0.0,1.0
1463577705281625658,577,1463577705239140307,,-13.293671608,6.63364219666,-115.152366638,0.0101129999384,1.0,0.0,0.0,0.0,1.0,0.0,0.0,0.0,1.0,-48.9024391174,-4.20731735229,-22.682926178,1.0,0.0,0.0,0.0,1.0,0.0,0.0,0.0,1.0,-0.0335188255255,4.20900622629,-9.53849999858,1.0,0.0,0.0,0.0,1.0,0.0,0.0,0.0,1.0
1463577705284925592,578,1463577705249084486,,-13.8584051132,6.44581365585,-115.534889221,0.0100819999352,1.0,0.0,0.0,0.0,1.0,0.0,0.0,0.0,1.0,-46.0365867615,-4.69512224197,-24.9390239716,1.0,0.0,0.0,0.0,1.0,0.0,0.0,0.0,1.0,0.076614453125,4.07971962891,-9.7827079834,1.0,0.0,0.0,0.0,1.0,0.0,0.0,0.0,1.0
1463577705285315747,579,1463577705259357674,,-14.4011907578,6.24539327621,-115.925613403,0.0101330000907,1.0,0.0,0.0,0.0,1.0,0.0,0.0,0.0,1.0,-43.4146347046,-5.24390268326,-25.8536586761,1.0,0.0,0.0,0.0,1.0,0.0,0.0,0.0,1.0,0.0335188255255,4.20421782297,-9.69651672363,1.0,0.0,0.0,0.0,1.0,0.0,0.0,0.0,1.0
1463577705285839755,580,1463577705270811326,,-14.9560499191,6.004986763,-116.380516052,0.0113000003621,1.0,0.0,0.0,0.0,1.0,0.0,0.0,0.0,1.0,-40.6097564697,-5.06097555161,-27.9268302917,1.0,0.0,0.0,0.0,1.0,0.0,0.0,0.0,1.0,-0.143652099609,3.92649072266,-9.60074924175,1.0,0.0,0.0,0.0,1.0,0.0,0.0,0.0,1.0
1463577705286203764,581,1463577705279373427,,-15.3849258423,5.81574058533,-116.738365173,0.00887400005013,1.0,0.0,0.0,0.0,1.0,0.0,0.0,0.0,1.0,-39.0853652954,-5.67073154449,-28.2317066193,1.0,0.0,0.0,0.0,1.0,0.0,0.0,0.0,1.0,-0.0143652099609,4.12281525879,-9.38526992329,1.0,0.0,0.0,0.0,1.0,0.0,0.0,0.0,1.0
1463577705447225048,582,1463577705289441304,,-15.8352060318,5.59308958054,-117.159263611,0.0100919995457,1.0,0.0,0.0,0.0,1.0,0.0,0.0,0.0,1.0,-37.0731697083,-5.0,-29.8170719147,1.0,0.0,0.0,0.0,1.0,0.0,0.0,0.0,1.0,-0.162805712891,3.90733710937,-9.47624958638,1.0,0.0,0.0,0.0,1.0,0.0,0.0,0.0,1.0
1463577705447681817,583,1463577705299684179,,-16.2744827271,5.36357450485,-117.580253601,0.0101159997284,1.0,0.0,0.0,0.0,1.0,0.0,0.0,0.0,1.0,-34.6951217651,-5.85365867615,-30.0000019073,1.0,0.0,0.0,0.0,1.0,0.0,0.0,0.0,1.0,-0.105344873047,4.2760444573,-9.4954043687,1.0,0.0,0.0,0.0,1.0,0.0,0.0,0.0,1.0
1463577705447726348,584,1463577705310045752,,-16.6734085083,5.12616539001,-118.011192322,0.0101049998775,1.0,0.0,0.0,0.0,1.0,0.0,0.0,0.0,1.0,-31.7682914734,-5.67073154449,-31.2804889679,1.0,0.0,0.0,0.0,1.0,0.0,0.0,0.0,1.0,-0.201112939453,4.12281525879,-9.38526992329,1.0,0.0,0.0,0.0,1.0,0.0,0.0,0.0,1.0
1463577705448051190,585,1463577705320191545,,-17.0376644135,4.87836742401,-118.440605164,0.0101049998775,1.0,0.0,0.0,0.0,1.0,0.0,0.0,0.0,1.0,-28.5975608826,-6.21951246262,-31.4634151459,1.0,0.0,0.0,0.0,1.0,0.0,0.0,0.0,1.0,-0.277727392578,4.22337143625,-9.46667277974,1.0,0.0,0.0,0.0,1.0,0.0,0.0,0.0,1.0
1463577705448364158,586,1463577705330387650,,-17.3676795959,4.61833286285,-118.873695374,0.0100849997252,1.0,0.0,0.0,0.0,1.0,0.0,0.0,0.0,1.0,-26.2804889679,-6.09756088257,-32.134147644,1.0,0.0,0.0,0.0,1.0,0.0,0.0,0.0,1.0,-0.497993945312,4.18985261301,-9.61990285503,1.0,0.0,0.0,0.0,1.0,0.0,0.0,0.0,1.0
1463577705448719052,587,1463577705340152559,,-17.6771564484,4.35699462891,-119.313064575,0.0102679999545,1.0,0.0,0.0,0.0,1.0,0.0,0.0,0.0,1.0,-23.5975627899,-6.40243911743,-32.1951217651,1.0,0.0,0.0,0.0,1.0,0.0,0.0,0.0,1.0,-0.392649072266,4.41011945801,-9.82580361328,1.0,0.0,0.0,0.0,1.0,0.0,0.0,0.0,1.0
1463577705449039884,588,1463577705350329081,,-17.9541778564,4.11452817917,-119.74432373,0.00995600037277,1.0,0.0,0.0,0.0,1.0,0.0,0.0,0.0,1.0,-21.0975627899,-6.0365858078,-32.7439041138,1.0,0.0,0.0,0.0,1.0,0.0,0.0,0.0,1.0,-0.225054956055,4.50588752441,-9.74440075684,1.0,0.0,0.0,0.0,1.0,0.0,0.0,0.0,1.0
1463577705450778679,589,1463577705361242006,,-18.2059822083,3.85176467896,-120.198600769,0.0107490001246,1.0,0.0,0.0,0.0,1.0,0.0,0.0,0.0,1.0,-18.5365848541,-7.31707334518,-32.317073822,1.0,0.0,0.0,0.0,1.0,0.0,0.0,0.0,1.0,-0.0430956298828,4.3382934082,-9.98382092285,1.0,0.0,0.0,0.0,1.0,0.0,0.0,0.0,1.0
1463577705452295131,590,1463577705370626604,,-18.4161739349,3.61649131775,-120.596099854,0.00951499957591,1.0,0.0,0.0,0.0,1.0,0.0,0.0,0.0,1.0,-16.5853652954,-7.92682981491,-32.0731697083,1.0,0.0,0.0,0.0,1.0,0.0,0.0,0.0,1.0,-0.0191536132812,4.45321508789,-9.7348239502,1.0,0.0,0.0,0.0,1.0,0.0,0.0,0.0,1.0
1463577705455076683,591,1463577705380580991,,-18.6195316315,3.3559589386,-120.998809814,0.0100269997492,1.0,0.0,0.0,0.0,1.0,0.0,0.0,0.0,1.0,-14.8170728683,-8.84146404266,-30.7926845551,1.0,0.0,0.0,0.0,1.0,0.0,0.0,0.0,1.0,-0.186747729492,4.53940634766,-9.72045874023,1.0,0.0,0.0,0.0,1.0,0.0,0.0,0.0,1.0
1463577705455511577,592,1463577705391365063,,-18.7999401093,3.07229781151,-121.415054321,0.010769999586,1.0,0.0,0.0,0.0,1.0,0.0,0.0,0.0,1.0,-12.6829271317,-8.65853691101,-29.3292694092,1.0,0.0,0.0,0.0,1.0,0.0,0.0,0.0,1.0,-0.407014282227,4.46758029785,-9.98860932617,1.0,0.0,0.0,0.0,1.0,0.0,0.0,0.0,1.0
1463577705455875950,593,1463577705400661171,,-18.9342403412,2.82728052139,-121.759796143,0.0094229998067,1.0,0.0,0.0,0.0,1.0,0.0,0.0,0.0,1.0,-10.1219511032,-8.5365858078,-27.1951236725,1.0,0.0,0.0,0.0,1.0,0.0,0.0,0.0,1.0,-0.531512805087,4.5489831543,-9.92157167969,1.0,0.0,0.0,0.0,1.0,0.0,0.0,0.0,1.0
1463577705456169074,594,1463577705410599621,,-19.0487060547,2.580047369,-122.116172791,0.0101079996675,1.0,0.0,0.0,0.0,1.0,0.0,0.0,0.0,1.0,-8.59756088257,-8.10975551605,-25.7926845551,1.0,0.0,0.0,0.0,1.0,0.0,0.0,0.0,1.0,-0.426167895508,4.3239284905,-9.91678327637,1.0,0.0,0.0,0.0,1.0,0.0,0.0,0.0,1.0
1463577705456453292,595,1463577705420772914,,-19.1331272125,2.35091567039,-122.444465637,0.0100830001757,1.0,0.0,0.0,0.0,1.0,0.0,0.0,0.0,1.0,-6.15853643417,-8.35365867615,-23.1097564697,1.0,0.0,0.0,0.0,1.0,0.0,0.0,0.0,1.0,-0.253785375977,4.30477487722,-9.94072529297,1.0,0.0,0.0,0.0,1.0,0.0,0.0,0.0,1.0
1463577705456695947,596,1463577705430989279,,-19.189825058,2.14508748055,-122.7498703,0.0101199997589,1.0,0.0,0.0,0.0,1.0,0.0,0.0,0.0,1.0,-4.2682929039,-7.80487823486,-20.4878044128,1.0,0.0,0.0,0.0,1.0,0.0,0.0,0.0,1.0,-0.0957680664062,4.15154538645,-9.86411083984,1.0,0.0,0.0,0.0,1.0,0.0,0.0,0.0,1.0
1463577705457290945,597,1463577705441116687,,-19.2208919525,1.92372095585,-123.020401001,0.0100929997861,1.0,0.0,0.0,0.0,1.0,0.0,0.0,0.0,1.0,-2.31707310677,-10.0,-17.7439022064,1.0,0.0,0.0,0.0,1.0,0.0,0.0,0.0,1.0,-0.210689746094,4.09887324219,-9.8784760498,1.0,0.0,0.0,0.0,1.0,0.0,0.0,0.0,1.0
1463577706001577310,598,1463577705451194667,,-19.2307071686,1.70927917957,-123.264976501,0.010106000118,1.0,0.0,0.0,0.0,1.0,0.0,0.0,0.0,1.0,-0.792682945728,-10.2439022064,-15.1219511032,1.0,0.0,0.0,0.0,1.0,0.0,0.0,0.0,1.0,-0.229843359375,3.9360675293,-9.66299848491,1.0,0.0,0.0,0.0,1.0,0.0,0.0,0.0,1.0
1463577706004433861,599,1463577705461269523,,-19.2200546265,1.50732684135,-123.483810425,0.0100959995762,1.0,0.0,0.0,0.0,1.0,0.0,0.0,0.0,1.0,1.46341466904,-10.1829271317,-12.4390249252,1.0,0.0,0.0,0.0,1.0,0.0,0.0,0.0,1.0,-0.220266552734,4.02704719238,-9.69172832031,1.0,0.0,0.0,0.0,1.0,0.0,0.0,0.0,1.0
1463577706004881776,600,1463577705471335732,,-19.1898078918,1.31054413319,-123.681518555,0.0101100001484,1.0,0.0,0.0,0.0,1.0,0.0,0.0,0.0,1.0,2.31707310677,-9.32926845551,-9.93902492523,1.0,0.0,0.0,0.0,1.0,0.0,0.0,0.0,1.0,-0.45968671875,3.84987626953,-9.73003554687,1.0,0.0,0.0,0.0,1.0,0.0,0.0,0.0,1.0
1463577706006260780,601,1463577705481497202,,-19.1548347473,1.12618207932,-123.862442017,0.0101110003889,1.0,0.0,0.0,0.0,1.0,0.0,0.0,0.0,1.0,3.84146332741,-8.84146404266,-7.98780536652,1.0,0.0,0.0,0.0,1.0,0.0,0.0,0.0,1.0,-0.478840332031,4.07971962891,-9.73961235352,1.0,0.0,0.0,0.0,1.0,0.0,0.0,0.0,1.0
1463577706007829889,602,1463577705491533152,,-19.116569519,0.953134119511,-124.032577515,0.0100870002061,1.0,0.0,0.0,0.0,1.0,0.0,0.0,0.0,1.0,6.09756088257,-7.68292665482,-6.46341466904,1.0,0.0,0.0,0.0,1.0,0.0,0.0,0.0,1.0,-0.612915625,4.41969626465,-9.60074924175,1.0,0.0,0.0,0.0,1.0,0.0,0.0,0.0,1.0
1463577706008187804,603,1463577705501592538,,-19.0412940979,0.791456699371,-124.191429138,0.0100899999961,1.0,0.0,0.0,0.0,1.0,0.0,0.0,0.0,1.0,9.08536529541,-7.01219511032,-5.06097555161,1.0,0.0,0.0,0.0,1.0,0.0,0.0,0.0,1.0,-0.646434448242,4.34787021484,-9.73961235352,1.0,0.0,0.0,0.0,1.0,0.0,0.0,0.0,1.0
1463577706008510303,604,1463577705511653852,,-18.9281215668,0.645577073097,-124.351051331,0.0101020000875,1.0,0.0,0.0,0.0,1.0,0.0,0.0,0.0,1.0,12.5609760284,-5.60975599289,-4.63414621353,1.0,0.0,0.0,0.0,1.0,0.0,0.0,0.0,1.0,-0.665588061523,4.3382934082,-9.85932243652,1.0,0.0,0.0,0.0,1.0,0.0,0.0,0.0,1.0
1463577706008835301,605,1463577705521799228,,-18.7755432129,0.514371395111,-124.502883911,0.0101079996675,1.0,0.0,0.0,0.0,1.0,0.0,0.0,0.0,1.0,16.0975608826,-5.0,-3.59756112099,1.0,0.0,0.0,0.0,1.0,0.0,0.0,0.0,1.0,-0.593762048251,4.2521024407,-9.86411083984,1.0,0.0,0.0,0.0,1.0,0.0,0.0,0.0,1.0
1463577706009302956,606,1463577705531937105,,-18.5911865234,0.389379262924,-124.654502869,0.0101009998471,1.0,0.0,0.0,0.0,1.0,0.0,0.0,0.0,1.0,19.817073822,-4.57317066193,-3.41463422775,1.0,0.0,0.0,0.0,1.0,0.0,0.0,0.0,1.0,-0.612915625,4.42448466797,-10.046070166,1.0,0.0,0.0,0.0,1.0,0.0,0.0,0.0,1.0
1463577706009633684,607,1463577705542142376,,-18.3588867188,0.275541990995,-124.80216217,0.0101100001484,1.0,0.0,0.0,0.0,1.0,0.0,0.0,0.0,1.0,24.3902435303,-3.90243911743,-2.74390244484,1.0,0.0,0.0,0.0,1.0,0.0,0.0,0.0,1.0,-0.603338854892,4.42448466797,-10.1945106689,1.0,0.0,0.0,0.0,1.0,0.0,0.0,0.0,1.0
1463577706009912693,608,1463577705552205409,,-18.0960826874,0.157524421811,-124.951324463,0.0101070003584,1.0,0.0,0.0,0.0,1.0,0.0,0.0,0.0,1.0,29.1463413239,-3.71951246262,-2.80487799644,1.0,0.0,0.0,0.0,1.0,0.0,0.0,0.0,1.0,-0.756567724609,4.73573059153,-10.1466266357,1.0,0.0,0.0,0.0,1.0,0.0,0.0,0.0,1.0
1463577706010295087,609,1463577705562184900,,-17.7750644684,0.0515521392226,-125.093360901,0.0100760003552,1.0,0.0,0.0,0.0,1.0,0.0,0.0,0.0,1.0,34.3902435303,-2.74390244484,-1.76829278469,1.0,0.0,0.0,0.0,1.0,0.0,0.0,0.0,1.0,-0.794874951172,4.48673391113,-10.0029745361,1.0,0.0,0.0,0.0,1.0,0.0,0.0,0.0,1.0
1463577706010614461,610,1463577705572354964,,-17.4097442627,-0.0293553005904,-125.231407166,0.0101129999384,1.0,0.0,0.0,0.0,1.0,0.0,0.0,0.0,1.0,39.2682914734,-1.03658533096,-0.731707334518,1.0,0.0,0.0,0.0,1.0,0.0,0.0,0.0,1.0,-0.713472094727,4.50588752441,-9.89762966309,1.0,0.0,0.0,0.0,1.0,0.0,0.0,0.0,1.0
1463577706010899460,611,1463577705582485600,,-16.9906463623,-0.0860655382276,-125.356208801,0.0100919995457,1.0,0.0,0.0,0.0,1.0,0.0,0.0,0.0,1.0,45.1219520569,0.670731723309,1.15853655338,1.0,0.0,0.0,0.0,1.0,0.0,0.0,0.0,1.0,-0.723048901367,4.60644399414,-10.0700121826,1.0,0.0,0.0,0.0,1.0,0.0,0.0,0.0,1.0
1463577706011201125,612,1463577705592617174,,-16.5026531219,-0.119467355311,-125.472114563,0.0101199997589,1.0,0.0,0.0,0.0,1.0,0.0,0.0,0.0,1.0,51.2195129395,2.13414645195,2.56097555161,1.0,0.0,0.0,0.0,1.0,0.0,0.0,0.0,1.0,-0.660799658203,4.48194550781,-10.2807019287,1.0,0.0,0.0,0.0,1.0,0.0,0.0,0.0,1.0
1463577706011509926,613,1463577705602693124,,-15.9464845657,-0.127258047462,-125.569236755,0.0100889997557,1.0,0.0,0.0,0.0,1.0,0.0,0.0,0.0,1.0,57.0731697083,4.20731735229,5.06097555161,1.0,0.0,0.0,0.0,1.0,0.0,0.0,0.0,1.0,-0.694318481445,4.05098920898,-10.0317049561,1.0,0.0,0.0,0.0,1.0,0.0,0.0,0.0,1.0
1463577706016408136,614,1463577705612827771,,-15.3482666016,-0.0971099659801,-125.64944458,0.0101150004193,1.0,0.0,0.0,0.0,1.0,0.0,0.0,0.0,1.0,61.890247345,6.34146356583,7.37804937363,1.0,0.0,0.0,0.0,1.0,0.0,0.0,0.0,1.0,-0.507570751953,4.08450803223,-9.99339772949,1.0,0.0,0.0,0.0,1.0,0.0,0.0,0.0,1.0
1463577706017781620,615,1463577705622832679,,-14.6968774796,-0.042086776346,-125.705093384,0.0101020000875,1.0,0.0,0.0,0.0,1.0,0.0,0.0,0.0,1.0,67.3170776367,7.92682981491,10.2439022064,1.0,0.0,0.0,0.0,1.0,0.0,0.0,0.0,1.0,-0.46447512207,3.84987626953,-9.67257470703,1.0,0.0,0.0,0.0,1.0,0.0,0.0,0.0,1.0
1463577706018153077,616,1463577705632991544,,-13.9967012405,0.040351908654,-125.741882324,0.010095000267,1.0,0.0,0.0,0.0,1.0,0.0,0.0,0.0,1.0,71.4634170532,9.39024448395,12.4390249252,1.0,0.0,0.0,0.0,1.0,0.0,0.0,0.0,1.0,-0.325611425781,3.59609089355,-9.72524714355,1.0,0.0,0.0,0.0,1.0,0.0,0.0,0.0,1.0
1463577706018468388,617,1463577705643133066,,-13.2510347366,0.127209812403,-125.75378418,0.010111999698,1.0,0.0,0.0,0.0,1.0,0.0,0.0,0.0,1.0,75.4268341064,10.2439022064,15.0609760284,1.0,0.0,0.0,0.0,1.0,0.0,0.0,0.0,1.0,-0.507570751953,3.40934316406,-9.81143840332,1.0,0.0,0.0,0.0,1.0,0.0,0.0,0.0,1.0
1463577706018796355,618,1463577705653267817,,-12.4683732986,0.239870965481,-125.746566772,0.010106000118,1.0,0.0,0.0,0.0,1.0,0.0,0.0,0.0,1.0,79.9390258789,11.5243911743,17.134147644,1.0,0.0,0.0,0.0,1.0,0.0,0.0,0.0,1.0,-0.335188232422,3.38540114746,-9.70609353027,1.0,0.0,0.0,0.0,1.0,0.0,0.0,0.0,1.0
1463577706019140781,619,1463577705663286840,,-11.6368331909,0.352748632431,-125.726478577,0.0100790001452,1.0,0.0,0.0,0.0,1.0,0.0,0.0,0.0,1.0,84.6951217651,12.5,18.475610733,1.0,0.0,0.0,0.0,1.0,0.0,0.0,0.0,1.0,-0.521935925381,3.16513459473,-9.65821008159,1.0,0.0,0.0,0.0,1.0,0.0,0.0,0.0,1.0
1463577706019427499,620,1463577705673415914,,-10.7439985275,0.48051071167,-125.705589294,0.0101380003616,1.0,0.0,0.0,0.0,1.0,0.0,0.0,0.0,1.0,88.4146347046,13.2926826477,18.475610733,1.0,0.0,0.0,0.0,1.0,0.0,0.0,0.0,1.0,-0.373495458984,2.63362182617,-9.53849999858,1.0,0.0,0.0,0.0,1.0,0.0,0.0,0.0,1.0
1463577706019749164,621,1463577705683577384,,-9.84072875977,0.609876573086,-125.681121826,0.0100910002366,1.0,0.0,0.0,0.0,1.0,0.0,0.0,0.0,1.0,91.707321167,13.7804880142,18.7195110321,1.0,0.0,0.0,0.0,1.0,0.0,0.0,0.0,1.0,-0.402225878906,2.82036955566,-9.57201882183,1.0,0.0,0.0,0.0,1.0,0.0,0.0,0.0,1.0
1463577706020043746,622,1463577705693585625,,-8.91260528564,0.754383742809,-125.667282104,0.0100619997829,1.0,0.0,0.0,0.0,1.0,0.0,0.0,0.0,1.0,95.8536605835,14.9390249252,17.6219520569,1.0,0.0,0.0,0.0,1.0,0.0,0.0,0.0,1.0,-0.272938989258,2.93529123535,-9.63905646831,1.0,0.0,0.0,0.0,1.0,0.0,0.0,0.0,1.0
1463577706020346193,623,1463577705703666470,,-7.93611812592,0.886929929256,-125.667175293,0.0101039996371,1.0,0.0,0.0,0.0,1.0,0.0,0.0,0.0,1.0,100.792686462,14.7560987473,15.975610733,1.0,0.0,0.0,0.0,1.0,0.0,0.0,0.0,1.0,-0.383072265625,2.82036955566,-9.50019277202,1.0,0.0,0.0,0.0,1.0,0.0,0.0,0.0,1.0
1463577706020657910,624,1463577705713761429,,-6.89814901352,1.02001857758,-125.680633545,0.0100919995457,1.0,0.0,0.0,0.0,1.0,0.0,0.0,0.0,1.0,104.146339417,14.4512205124,14.2682924271,1.0,0.0,0.0,0.0,1.0,0.0,0.0,0.0,1.0,-0.248996972656,2.11647412145,-9.45230756977,1.0,0.0,0.0,0.0,1.0,0.0,0.0,0.0,1.0
1463577706020995669,625,1463577705723781598,,-5.82130384445,1.16019570827,-125.698936462,0.010108999908,1.0,0.0,0.0,0.0,1.0,0.0,0.0,0.0,1.0,105.670730591,14.0243902206,13.4146347046,1.0,0.0,0.0,0.0,1.0,0.0,0.0,0.0,1.0,-0.0239420166016,1.55144267578,-9.39005832661,1.0,0.0,0.0,0.0,1.0,0.0,0.0,0.0,1.0
1463577706021264314,626,1463577705733951297,,-4.74140834808,1.27315330505,-125.718673706,0.0101070003584,1.0,0.0,0.0,0.0,1.0,0.0,0.0,0.0,1.0,106.524391174,11.8292684555,12.8048782349,1.0,0.0,0.0,0.0,1.0,0.0,0.0,0.0,1.0,-0.0814028564453,1.4604630127,-9.40442353657,1.0,0.0,0.0,0.0,1.0,0.0,0.0,0.0,1.0
1463577706021537959,627,1463577705744080371,,-3.64363622665,1.39721989632,-125.75340271,0.0101100001484,1.0,0.0,0.0,0.0,1.0,0.0,0.0,0.0,1.0,108.231712341,10.6707315445,10.9756097794,1.0,0.0,0.0,0.0,1.0,0.0,0.0,0.0,1.0,0.339976635742,1.2976572998,-9.63426806499,1.0,0.0,0.0,0.0,1.0,0.0,0.0,0.0,1.0
1463577706021832229,628,1463577705754163403,,-2.52455592155,1.497574687,-125.799186707,0.0100840004161,1.0,0.0,0.0,0.0,1.0,0.0,0.0,0.0,1.0,111.097557068,8.84146404266,9.5731716156,1.0,0.0,0.0,0.0,1.0,0.0,0.0,0.0,1.0,0.272938989258,1.16358193377,-9.46667277974,1.0,0.0,0.0,0.0,1.0,0.0,0.0,0.0,1.0
1463577706022145665,629,1463577705764258415,,-1.36355400085,1.58047163486,-125.857521057,0.0101020000875,1.0,0.0,0.0,0.0,1.0,0.0,0.0,0.0,1.0,114.024391174,6.64634132385,8.04878044128,1.0,0.0,0.0,0.0,1.0,0.0,0.0,0.0,1.0,0.349553442383,0.775721337891,-9.24640681152,1.0,0.0,0.0,0.0,1.0,0.0,0.0,0.0,1.0
1463577706022440612,630,1463577705774345718,,-0.18296931684,1.64880049229,-125.926628113,0.0101269995794,1.0,0.0,0.0,0.0,1.0,0.0,0.0,0.0,1.0,115.548782349,5.30487823486,6.82926845551,1.0,0.0,0.0,0.0,1.0,0.0,0.0,0.0,1.0,0.330399829102,0.565031591797,-9.34217429341,1.0,0.0,0.0,0.0,1.0,0.0,0.0,0.0,1.0
1463577706022763839,631,1463577705784486147,,0.995851397514,1.69127309322,-126.003738403,0.0100889997557,1.0,0.0,0.0,0.0,1.0,0.0,0.0,0.0,1.0,116.097564697,3.71951246262,5.91463422775,1.0,0.0,0.0,0.0,1.0,0.0,0.0,0.0,1.0,0.15801730957,0.407014282227,-9.22246479492,1.0,0.0,0.0,0.0,1.0,0.0,0.0,0.0,1.0
1463577706023095453,632,1463577705794596158,,2.17053580284,1.71302163601,-126.09160614,0.0100849997252,1.0,0.0,0.0,0.0,1.0,0.0,0.0,0.0,1.0,116.402435303,2.31707310677,4.81707286835,1.0,0.0,0.0,0.0,1.0,0.0,0.0,0.0,1.0,0.0287304199219,0.325611425781,-9.40442353657,1.0,0.0,0.0,0.0,1.0,0.0,0.0,0.0,1.0
1463577706023428368,633,1463577705804666899,,3.34277272224,1.73264789581,-126.192138672,0.010111999698,1.0,0.0,0.0,0.0,1.0,0.0,0.0,0.0,1.0,117.256103516,1.40243899822,3.59756112099,1.0,0.0,0.0,0.0,1.0,0.0,0.0,0.0,1.0,0.110133276367,0.363918652344,-9.52413478862,1.0,0.0,0.0,0.0,1.0,0.0,0.0,0.0,1.0
1463577706023752690,634,1463577705814674411,,4.53001499176,1.74465799332,-126.303756714,0.0101140001789,1.0,0.0,0.0,0.0,1.0,0.0,0.0,0.0,1.0,118.719512939,0.609756112099,2.5,1.0,0.0,0.0,0.0,1.0,0.0,0.0,0.0,1.0,0.0718260498047,0.15801730957,-9.33738589009,1.0,0.0,0.0,0.0,1.0,0.0,0.0,0.0,1.0
1463577706024095449,635,1463577705824677184,,5.74959754944,1.7438480854,-126.412788391,0.0100779999048,1.0,0.0,0.0,0.0,1.0,0.0,0.0,0.0,1.0,120.243904114,-0.243902444839,2.68292689323,1.0,0.0,0.0,0.0,1.0,0.0,0.0,0.0,1.0,-0.0287304199219,-0.378283862305,-9.20331118164,1.0,0.0,0.0,0.0,1.0,0.0,0.0,0.0,1.0
1463577706024441906,636,1463577705834922924,,6.98033189774,1.74889135361,-126.520271301,0.0101140001789,1.0,0.0,0.0,0.0,1.0,0.0,0.0,0.0,1.0,119.878051758,-1.52439022064,2.92682933807,1.0,0.0,0.0,0.0,1.0,0.0,0.0,0.0,1.0,0.234631762695,-0.727837304687,-8.99740983887,1.0,0.0,0.0,0.0,1.0,0.0,0.0,0.0,1.0
1463577706024757529,637,1463577705845038665,,8.20254802704,1.73687410355,-126.618347168,0.0100899999961,1.0,0.0,0.0,0.0,1.0,0.0,0.0,0.0,1.0,120.000007629,-2.86585378647,4.02439022064,1.0,0.0,0.0,0.0,1.0,0.0,0.0,0.0,1.0,0.162805712891,-0.799663354492,-8.87291135254,1.0,0.0,0.0,0.0,1.0,0.0,0.0,0.0,1.0
1463577706025035862,638,1463577705855131593,,9.41479682922,1.70761668682,-126.72127533,0.0101150004193,1.0,0.0,0.0,0.0,1.0,0.0,0.0,0.0,1.0,121.89025116,-4.75609779358,3.96341490746,1.0,0.0,0.0,0.0,1.0,0.0,0.0,0.0,1.0,0.15801730957,-0.512359155273,-9.2416184082,1.0,0.0,0.0,0.0,1.0,0.0,0.0,0.0,1.0
1463577706026514606,639,1463577705865203740,,10.6570491791,1.68411290646,-126.82144928,0.0100849997252,1.0,0.0,0.0,0.0,1.0,0.0,0.0,0.0,1.0,125.121955872,-6.34146356583,4.51219558716,1.0,0.0,0.0,0.0,1.0,0.0,0.0,0.0,1.0,0.497993945312,-0.746990917969,-9.55286520855,1.0,0.0,0.0,0.0,1.0,0.0,0.0,0.0,1.0
1463577706037570291,640,1463577705875336408,,11.9401702881,1.63572502136,-126.915550232,0.0101469997317,1.0,0.0,0.0,0.0,1.0,0.0,0.0,0.0,1.0,125.67073822,-5.60975599289,5.06097555161,1.0,0.0,0.0,0.0,1.0,0.0,0.0,0.0,1.0,-0.0574608398438,-1.40300217285,-9.42357714985,1.0,0.0,0.0,0.0,1.0,0.0,0.0,0.0,1.0
1463577706037962893,641,1463577705885550899,,13.2147159576,1.57262563705,-127.007789612,0.0100849997252,1.0,0.0,0.0,0.0,1.0,0.0,0.0,0.0,1.0,126.463424683,-7.37804937363,5.67073154449,1.0,0.0,0.0,0.0,1.0,0.0,0.0,0.0,1.0,-0.0383072265625,-1.47482822266,-9.45230756977,1.0,0.0,0.0,0.0,1.0,0.0,0.0,0.0,1.0
1463577706038262163,642,1463577705895451640,,14.490858078,1.5143802166,-127.100509644,0.0100680002943,1.0,0.0,0.0,0.0,1.0,0.0,0.0,0.0,1.0,127.682929993,-7.92682981491,5.85365867615,1.0,0.0,0.0,0.0,1.0,0.0,0.0,0.0,1.0,0.0909796630859,-1.49398183594,-9.13627353516,1.0,0.0,0.0,0.0,1.0,0.0,0.0,0.0,1.0
1463577706038531224,643,1463577705905575923,,15.8018846512,1.44705045223,-127.202041626,0.0101070003584,1.0,0.0,0.0,0.0,1.0,0.0,0.0,0.0,1.0,129.573165894,-9.02439117432,5.36585378647,1.0,0.0,0.0,0.0,1.0,0.0,0.0,0.0,1.0,0.0574608398438,-1.8866309082,-9.13627353516,1.0,0.0,0.0,0.0,1.0,0.0,0.0,0.0,1.0
1463577706038810546,644,1463577705915826403,,17.1225223541,1.35763990879,-127.317146301,0.010111999698,1.0,0.0,0.0,0.0,1.0,0.0,0.0,0.0,1.0,131.707321167,-11.0975618362,4.75609779358,1.0,0.0,0.0,0.0,1.0,0.0,0.0,0.0,1.0,-0.0526724365234,-1.9105729248,-9.193734375,1.0,0.0,0.0,0.0,1.0,0.0,0.0,0.0,1.0
1463577706039126222,645,1463577705925889800,,18.4632205963,1.26501882076,-127.448669434,0.0101159997284,1.0,0.0,0.0,0.0,1.0,0.0,0.0,0.0,1.0,133.780487061,-11.6463422775,3.41463422775,1.0,0.0,0.0,0.0,1.0,0.0,0.0,0.0,1.0,-0.138863696289,-2.02549460449,-8.81066210937,1.0,0.0,0.0,0.0,1.0,0.0,0.0,0.0,1.0
1463577706039399919,646,1463577705936035957,,19.7895107269,1.15661227703,-127.591651917,0.0100830001757,1.0,0.0,0.0,0.0,1.0,0.0,0.0,0.0,1.0,136.280487061,-11.8292684555,2.5,1.0,0.0,0.0,0.0,1.0,0.0,0.0,0.0,1.0,-0.497993945312,-1.74776721191,-9.22725319824,1.0,0.0,0.0,0.0,1.0,0.0,0.0,0.0,1.0
1463577706039682626,647,1463577705946142271,,21.1526699066,1.04753017426,-127.750854492,0.010108999908,1.0,0.0,0.0,0.0,1.0,0.0,0.0,0.0,1.0,142.012191772,-10.9756097794,0.731707334518,1.0,0.0,0.0,0.0,1.0,0.0,0.0,0.0,1.0,-0.790086547852,-1.51313544922,-8.97825622559,1.0,0.0,0.0,0.0,1.0,0.0,0.0,0.0,1.0
1463577706040023666,648,1463577705956206970,,22.5826435089,0.957263946533,-127.925613403,0.0101269995794,1.0,0.0,0.0,0.0,1.0,0.0,0.0,0.0,1.0,148.902450562,-9.39024448395,-1.40243899822,1.0,0.0,0.0,0.0,1.0,0.0,0.0,0.0,1.0,-0.943315454102,-1.65678754883,-9.05487067871,1.0,0.0,0.0,0.0,1.0,0.0,0.0,0.0,1.0
1463577706040442727,649,1463577705966357450,,24.0845718384,0.910805642605,-128.099609375,0.0100790001452,1.0,0.0,0.0,0.0,1.0,0.0,0.0,0.0,1.0,153.780487061,-7.37804937363,-2.31707310677,1.0,0.0,0.0,0.0,1.0,0.0,0.0,0.0,1.0,-0.679953271484,-2.34631748082,-8.8633345459,1.0,0.0,0.0,0.0,1.0,0.0,0.0,0.0,1.0
1463577706040816163,650,1463577705976431733,,25.6302032471,0.885615408421,-128.264785767,0.0100919995457,1.0,0.0,0.0,0.0,1.0,0.0,0.0,0.0,1.0,156.341461182,-5.24390268326,-2.37804889679,1.0,0.0,0.0,0.0,1.0,0.0,0.0,0.0,1.0,-0.727837304687,-2.79163913574,-8.63349177105,1.0,0.0,0.0,0.0,1.0,0.0,0.0,0.0,1.0
1463577706041127829,651,1463577705986520755,,27.2167854309,0.879709124565,-128.416397095,0.0100969998166,1.0,0.0,0.0,0.0,1.0,0.0,0.0,0.0,1.0,159.207321167,-4.32926845551,-1.46341466904,1.0,0.0,0.0,0.0,1.0,0.0,0.0,0.0,1.0,-0.545877978516,-3.10767375488,-8.2743609375,1.0,0.0,0.0,0.0,1.0,0.0,0.0,0.0,1.0
1463577706041400796,652,1463577705996601392,,28.8353271484,0.890010297298,-128.553100586,0.0101129999384,1.0,0.0,0.0,0.0,1.0,0.0,0.0,0.0,1.0,161.280487061,-2.68292689323,-0.792682945728,1.0,0.0,0.0,0.0,1.0,0.0,0.0,0.0,1.0,-0.560243188477,-3.59609089355,-8.47068488911,1.0,0.0,0.0,0.0,1.0,0.0,0.0,0.0,1.0
1463577706507506067,653,1463577706006715206,,30.4735202789,0.913895010948,-128.667602539,0.0100910002366,1.0,0.0,0.0,0.0,1.0,0.0,0.0,0.0,1.0,162.743896484,-0.914634168148,0.487804889679,1.0,0.0,0.0,0.0,1.0,0.0,0.0,0.0,1.0,-0.531512805087,-3.84508786621,-8.08282480469,1.0,0.0,0.0,0.0,1.0,0.0,0.0,0.0,1.0
1463577706507837629,654,1463577706016789697,,32.122215271,0.933787941933,-128.770065308,0.0101229995489,1.0,0.0,0.0,0.0,1.0,0.0,0.0,0.0,1.0,164.268295288,0.426829278469,0.914634168148,1.0,0.0,0.0,0.0,1.0,0.0,0.0,0.0,1.0,-0.804451757813,-4.00310517578,-8.19295808105,1.0,0.0,0.0,0.0,1.0,0.0,0.0,0.0,1.0
1463577706508139190,655,1463577706027304446,,33.793258667,0.970525801182,-128.858581543,0.0100859999657,1.0,0.0,0.0,0.0,1.0,0.0,0.0,0.0,1.0,167.621963501,2.19512200356,1.09756100178,1.0,0.0,0.0,0.0,1.0,0.0,0.0,0.0,1.0,-0.785298144531,-4.08450803223,-7.97269152832,1.0,0.0,0.0,0.0,1.0,0.0,0.0,0.0,1.0
1463577706508477939,656,1463577706036996283,,35.5027008057,0.998076021671,-128.936843872,0.0100959995762,1.0,0.0,0.0,0.0,1.0,0.0,0.0,0.0,1.0,172.5,4.93902444839,0.18292683363,1.0,0.0,0.0,0.0,1.0,0.0,0.0,0.0,1.0,-1.44609780273,-4.21379462961,-8.10676682129,1.0,0.0,0.0,0.0,1.0,0.0,0.0,0.0,1.0
1463577706508754135,657,1463577706047141190,,37.2573318481,1.08394050598,-128.971893311,0.0100940000266,1.0,0.0,0.0,0.0,1.0,0.0,0.0,0.0,1.0,175.792694092,10.4878053665,0.853658556938,1.0,0.0,0.0,0.0,1.0,0.0,0.0,0.0,1.0,-1.1540052002,-4.47715710449,-7.6375032959,1.0,0.0,0.0,0.0,1.0,0.0,0.0,0.0,1.0
1463577706509011791,658,1463577706057283545,,39.0459403992,1.19347918034,-128.970413208,0.0101039996371,1.0,0.0,0.0,0.0,1.0,0.0,0.0,0.0,1.0,177.195129395,14.0243902206,1.95121955872,1.0,0.0,0.0,0.0,1.0,0.0,0.0,0.0,1.0,-1.13485158691,-5.01824667969,-7.46990917969,1.0,0.0,0.0,0.0,1.0,0.0,0.0,0.0,1.0
1463577706509273300,659,1463577706067601941,,40.8701171875,1.32791793346,-128.93409729,0.0101229995489,1.0,0.0,0.0,0.0,1.0,0.0,0.0,0.0,1.0,177.134155273,15.7317075729,4.08536577225,1.0,0.0,0.0,0.0,1.0,0.0,0.0,0.0,1.0,-0.718260498047,-5.72693037109,-7.0964137207,1.0,0.0,0.0,0.0,1.0,0.0,0.0,0.0,1.0
1463577706509566007,660,1463577706077399090,,42.6862335205,1.46144330502,-128.842422485,0.0100699998438,1.0,0.0,0.0,0.0,1.0,0.0,0.0,0.0,1.0,174.024398804,18.7195110321,7.86585378647,1.0,0.0,0.0,0.0,1.0,0.0,0.0,0.0,1.0,-0.660799658203,-6.60799658203,-6.87135876465,1.0,0.0,0.0,0.0,1.0,0.0,0.0,0.0,1.0
1463577706510018349,661,1463577706087464466,,44.4948272705,1.59007918835,-128.702026367,0.0101190004498,1.0,0.0,0.0,0.0,1.0,0.0,0.0,0.0,1.0,168.292678833,20.5487823486,11.7073173523,1.0,0.0,0.0,0.0,1.0,0.0,0.0,0.0,1.0,-0.488417138672,-7.80030900879,-6.61278498535,1.0,0.0,0.0,0.0,1.0,0.0,0.0,0.0,1.0
1463577706511262250,662,1463577706097687706,,46.2487869263,1.68478941917,-128.516937256,0.0101239997894,1.0,0.0,0.0,0.0,1.0,0.0,0.0,0.0,1.0,159.695114136,21.5853652954,16.0365848541,1.0,0.0,0.0,0.0,1.0,0.0,0.0,0.0,1.0,-0.61770402832,-9.03571706543,-6.4356140625,1.0,0.0,0.0,0.0,1.0,0.0,0.0,0.0,1.0
1463577706511317042,663,1463577706108048915,,47.8721160889,1.7830696106,-128.297103882,0.0100600002334,1.0,0.0,0.0,0.0,1.0,0.0,0.0,0.0,1.0,147.195129395,23.5975627899,18.4146347046,1.0,0.0,0.0,0.0,1.0,0.0,0.0,0.0,1.0,-0.354341845703,-9.68693991699,-6.34463439941,1.0,0.0,0.0,0.0,1.0,0.0,0.0,0.0,1.0
1463577706512604380,664,1463577706117841220,,49.3885574341,1.8439707756,-128.053237915,0.0101100001484,1.0,0.0,0.0,0.0,1.0,0.0,0.0,0.0,1.0,136.280487061,23.3536586761,21.5853652954,1.0,0.0,0.0,0.0,1.0,0.0,0.0,0.0,1.0,-0.469263525391,-10.0269165527,-6.30632717285,1.0,0.0,0.0,0.0,1.0,0.0,0.0,0.0,1.0
1463577706512916515,665,1463577706128020346,,50.7905578613,1.90911614895,-127.77796936,0.0101239997894,1.0,0.0,0.0,0.0,1.0,0.0,0.0,0.0,1.0,125.243904114,24.6951236725,24.3292694092,1.0,0.0,0.0,0.0,1.0,0.0,0.0,0.0,1.0,0.0191536132812,-10.3525279785,-6.28717355957,1.0,0.0,0.0,0.0,1.0,0.0,0.0,0.0,1.0
1463577706513212295,666,1463577706138039212,,52.0516204834,1.93966090679,-127.493629456,0.0100790001452,1.0,0.0,0.0,0.0,1.0,0.0,0.0,0.0,1.0,111.768295288,23.1707324982,27.5609760284,1.0,0.0,0.0,0.0,1.0,0.0,0.0,0.0,1.0,0.186747729492,-10.7978494873,-6.18661708984,1.0,0.0,0.0,0.0,1.0,0.0,0.0,0.0,1.0
1463577706513506356,667,1463577706148506878,,53.1729354858,1.92121577263,-127.182136536,0.0101070003584,1.0,0.0,0.0,0.0,1.0,0.0,0.0,0.0,1.0,97.7439041138,22.4390239716,32.682926178,1.0,0.0,0.0,0.0,1.0,0.0,0.0,0.0,1.0,0.248996972656,-11.0229044434,-6.0573302002,1.0,0.0,0.0,0.0,1.0,0.0,0.0,0.0,1.0
1463577706513805001,668,1463577706158304808,,54.1559448242,1.86524093151,-126.891693115,0.0101180002093,1.0,0.0,0.0,0.0,1.0,0.0,0.0,0.0,1.0,82.7439041138,19.1463432312,33.5975608826,1.0,0.0,0.0,0.0,1.0,0.0,0.0,0.0,1.0,0.15322890625,-12.378022583,-6.12915625,1.0,0.0,0.0,0.0,1.0,0.0,0.0,0.0,1.0
1463577706514104999,669,1463577706168333622,,54.9313354492,1.80054974556,-126.582183838,0.0100750001147,1.0,0.0,0.0,0.0,1.0,0.0,0.0,0.0,1.0,62.7439041138,19.1463432312,37.1951255798,1.0,0.0,0.0,0.0,1.0,0.0,0.0,0.0,1.0,0.732625708008,-12.27267771,-5.8705824707,1.0,0.0,0.0,0.0,1.0,0.0,0.0,0.0,1.0
1463577706514409113,670,1463577706178406446,,55.53931427,1.68126690388,-126.286636353,0.0101749999449,1.0,0.0,0.0,0.0,1.0,0.0,0.0,0.0,1.0,46.8902435303,16.7682933807,37.9878044128,1.0,0.0,0.0,0.0,1.0,0.0,0.0,0.0,1.0,0.0143652099609,-12.152967627,-5.94719692383,1.0,0.0,0.0,0.0,1.0,0.0,0.0,0.0,1.0
1463577706514760049,671,1463577706188804165,,55.9774398804,1.56814086437,-126.006141663,0.0101749999449,1.0,0.0,0.0,0.0,1.0,0.0,0.0,0.0,1.0,30.9146327972,16.341463089,36.2195129395,1.0,0.0,0.0,0.0,1.0,0.0,0.0,0.0,1.0,-0.0957680664062,-11.779472168,-5.76523759766,1.0,0.0,0.0,0.0,1.0,0.0,0.0,0.0,1.0
1463577706515151558,672,1463577706198529595,,56.2705802917,1.45160293579,-125.749824524,0.00994999986142,1.0,0.0,0.0,0.0,1.0,0.0,0.0,0.0,1.0,18.658536911,15.3658533096,34.634147644,1.0,0.0,0.0,0.0,1.0,0.0,0.0,0.0,1.0,-0.402225878906,-11.8321446045,-5.99986936035,1.0,0.0,0.0,0.0,1.0,0.0,0.0,0.0,1.0
1463577706515198276,673,1463577706208687054,,56.2309036255,1.24960017204,-125.497665405,0.0101030003279,1.0,0.0,0.0,0.0,1.0,0.0,0.0,0.0,1.0,1.2195122242,14.4512205124,35.3048782349,1.0,0.0,0.0,0.0,1.0,0.0,0.0,0.0,1.0,-1.7908628418,-8.16901606445,-7.55131203613,1.0,0.0,0.0,0.0,1.0,0.0,0.0,0.0,1.0
1463577706515478744,674,1463577706218913524,,56.2315597534,1.14107561111,-125.235740662,0.0102409999818,1.0,0.0,0.0,0.0,1.0,0.0,0.0,0.0,1.0,-7.92682981491,16.7682933807,32.3780517578,1.0,0.0,0.0,0.0,1.0,0.0,0.0,0.0,1.0,-0.809240161133,-11.3437274658,-6.36857641602,1.0,0.0,0.0,0.0,1.0,0.0,0.0,0.0,1.0
1463577706515766295,675,1463577706228837547,,56.1110649109,1.12229061127,-125.014816284,0.00995699968189,1.0,0.0,0.0,0.0,1.0,0.0,0.0,0.0,1.0,-17.0731716156,18.2317085266,24.2073173523,1.0,0.0,0.0,0.0,1.0,0.0,0.0,0.0,1.0,-0.536301208408,-10.0891657959,-6.36857641602,1.0,0.0,0.0,0.0,1.0,0.0,0.0,0.0,1.0
1463577706516067439,676,1463577706239033756,,55.9442749023,1.12698221207,-124.831993103,0.0101180002093,1.0,0.0,0.0,0.0,1.0,0.0,0.0,0.0,1.0,-22.1951236725,16.5853652954,19.2682914734,1.0,0.0,0.0,0.0,1.0,0.0,0.0,0.0,1.0,-0.756567724609,-10.553640918,-6.47870969238,1.0,0.0,0.0,0.0,1.0,0.0,0.0,0.0,1.0
1463577706516331761,677,1463577706249087153,,55.70936203,1.17476046085,-124.661659241,0.0100790001452,1.0,0.0,0.0,0.0,1.0,0.0,0.0,0.0,1.0,-30.2439022064,18.1707305908,14.8170728683,1.0,0.0,0.0,0.0,1.0,0.0,0.0,0.0,1.0,-0.790086547852,-10.1083194092,-5.94240852051,1.0,0.0,0.0,0.0,1.0,0.0,0.0,0.0,1.0
1463577706516574312,678,1463577706259158467,,55.3707733154,1.29346764088,-124.542320251,0.0101269995794,1.0,0.0,0.0,0.0,1.0,0.0,0.0,0.0,1.0,-36.7073173523,17.5609760284,6.89024400711,1.0,0.0,0.0,0.0,1.0,0.0,0.0,0.0,1.0,-0.641646044922,-9.79228479004,-6.67982263184,1.0,0.0,0.0,0.0,1.0,0.0,0.0,0.0,1.0
1463577706516855145,679,1463577706269170406,,54.992351532,1.45219218731,-124.456298828,0.0100750001147,1.0,0.0,0.0,0.0,1.0,0.0,0.0,0.0,1.0,-42.6219520569,16.9512195587,2.19512200356,1.0,0.0,0.0,0.0,1.0,0.0,0.0,0.0,1.0,-0.497993945312,-9.4954043687,-6.11479104004,1.0,0.0,0.0,0.0,1.0,0.0,0.0,0.0,1.0
1463577706517326393,680,1463577706279410990,,54.5296592712,1.65585637093,-124.397254944,0.0101039996371,1.0,0.0,0.0,0.0,1.0,0.0,0.0,0.0,1.0,-48.5975608826,17.9268302917,-3.53658556938,1.0,0.0,0.0,0.0,1.0,0.0,0.0,0.0,1.0,-0.660799658203,-9.39005832661,-6.6702458252,1.0,0.0,0.0,0.0,1.0,0.0,0.0,0.0,1.0
1463577706517649985,681,1463577706289359961,,54.0197029114,1.88759958744,-124.373626709,0.0101079996675,1.0,0.0,0.0,0.0,1.0,0.0,0.0,0.0,1.0,-55.3048820496,16.8292694092,-7.74390268326,1.0,0.0,0.0,0.0,1.0,0.0,0.0,0.0,1.0,-0.641646044922,-9.72524714355,-6.4834980957,1.0,0.0,0.0,0.0,1.0,0.0,0.0,0.0,1.0
1463577706517979619,682,1463577706299481118,,53.4217910767,2.16162037849,-124.354255676,0.0100969998166,1.0,0.0,0.0,0.0,1.0,0.0,0.0,0.0,1.0,-63.5975646973,19.1463432312,-11.1585359573,1.0,0.0,0.0,0.0,1.0,0.0,0.0,0.0,1.0,-0.579396801758,-9.61511445171,-6.65109221191,1.0,0.0,0.0,0.0,1.0,0.0,0.0,0.0,1.0
1463577706518025088,683,1463577706309667640,,52.7560997009,2.4478905201,-124.372673035,0.0100919995457,1.0,0.0,0.0,0.0,1.0,0.0,0.0,0.0,1.0,-69.3902435303,17.1951217651,-14.1463422775,1.0,0.0,0.0,0.0,1.0,0.0,0.0,0.0,1.0,-0.512359155273,-9.20331118164,-6.70855305176,1.0,0.0,0.0,0.0,1.0,0.0,0.0,0.0,1.0
1463577706518282326,684,1463577706319670933,,52.043132782,2.76477408409,-124.404747009,0.0101049998775,1.0,0.0,0.0,0.0,1.0,0.0,0.0,0.0,1.0,-74.2073135376,18.2317085266,-17.0731716156,1.0,0.0,0.0,0.0,1.0,0.0,0.0,0.0,1.0,-0.435744702148,-9.04050546875,-6.67982263184,1.0,0.0,0.0,0.0,1.0,0.0,0.0,0.0,1.0
1463577706518551596,685,1463577706329895944,,51.2684555054,3.09043765068,-124.458763123,0.0101129999384,1.0,0.0,0.0,0.0,1.0,0.0,0.0,0.0,1.0,-79.1463470459,18.0487823486,-19.5121955872,1.0,0.0,0.0,0.0,1.0,0.0,0.0,0.0,1.0,-0.550666381836,-8.76756647949,-6.89051237793,1.0,0.0,0.0,0.0,1.0,0.0,0.0,0.0,1.0
1463577706518825345,686,1463577706339957831,,50.4623527527,3.43264365196,-124.545051575,0.0100830001757,1.0,0.0,0.0,0.0,1.0,0.0,0.0,0.0,1.0,-83.3536605835,17.1951217651,-22.8048782349,1.0,0.0,0.0,0.0,1.0,0.0,0.0,0.0,1.0,-0.512359155273,-8.5520889146,-6.64630380859,1.0,0.0,0.0,0.0,1.0,0.0,0.0,0.0,1.0
1463577706519104146,687,1463577706349951802,,49.5940666199,3.79685783386,-124.649505615,0.0101039996371,1.0,0.0,0.0,0.0,1.0,0.0,0.0,0.0,1.0,-87.865852356,17.6829280853,-25.1219520569,1.0,0.0,0.0,0.0,1.0,0.0,0.0,0.0,1.0,-0.416591088867,-8.25520732422,-6.92403120117,1.0,0.0,0.0,0.0,1.0,0.0,0.0,0.0,1.0
1463577706519425239,688,1463577706360082386,,48.6888160706,4.1663980484,-124.777046204,0.0101070003584,1.0,0.0,0.0,0.0,1.0,0.0,0.0,0.0,1.0,-91.5853652954,16.8902435303,-26.7073173523,1.0,0.0,0.0,0.0,1.0,0.0,0.0,0.0,1.0,-0.349553442383,-8.21690009766,-7.02937607422,1.0,0.0,0.0,0.0,1.0,0.0,0.0,0.0,1.0
1463577706519747269,689,1463577706370242137,,47.7404060364,4.59446287155,-124.903709412,0.010106000118,1.0,0.0,0.0,0.0,1.0,0.0,0.0,0.0,1.0,-91.1585388184,19.0853652954,-27.4390258789,1.0,0.0,0.0,0.0,1.0,0.0,0.0,0.0,1.0,0.512359155273,-7.96311472168,-8.28872556294,1.0,0.0,0.0,0.0,1.0,0.0,0.0,0.0,1.0
1463577706520077267,690,1463577706380454024,,46.746837616,4.95940637589,-125.062774658,0.0101079996675,1.0,0.0,0.0,0.0,1.0,0.0,0.0,0.0,1.0,-102.378051758,15.6707315445,-28.1707324982,1.0,0.0,0.0,0.0,1.0,0.0,0.0,0.0,1.0,-0.248996972656,-8.24563051758,-6.89051237793,1.0,0.0,0.0,0.0,1.0,0.0,0.0,0.0,1.0
1463577706521465074,691,1463577706390430494,,45.6861572266,5.34058141708,-125.216194153,0.0100830001757,1.0,0.0,0.0,0.0,1.0,0.0,0.0,0.0,1.0,-106.829269409,17.2560977936,-27.682926178,1.0,0.0,0.0,0.0,1.0,0.0,0.0,0.0,1.0,0.0574608398438,-7.67102211914,-7.23048901367,1.0,0.0,0.0,0.0,1.0,0.0,0.0,0.0,1.0
1463577706522773819,692,1463577706400477850,,44.5655593872,5.69449710846,-125.402755737,0.0100990002975,1.0,0.0,0.0,0.0,1.0,0.0,0.0,0.0,1.0,-112.804885864,13.7804880142,-27.682926178,1.0,0.0,0.0,0.0,1.0,0.0,0.0,0.0,1.0,0.124498486328,-7.61834968262,-7.29273825684,1.0,0.0,0.0,0.0,1.0,0.0,0.0,0.0,1.0
1463577706522831058,693,1463577706410725465,,43.3934364319,6.04066801071,-125.58946228,0.010106000118,1.0,0.0,0.0,0.0,1.0,0.0,0.0,0.0,1.0,-117.012191772,14.4512205124,-27.1341457367,1.0,0.0,0.0,0.0,1.0,0.0,0.0,0.0,1.0,0.0909796630859,-7.13472094727,-7.2831614502,1.0,0.0,0.0,0.0,1.0,0.0,0.0,0.0,1.0
1463577706523085328,694,1463577706420817508,,42.1707687378,6.37062358856,-125.796020508,0.010106000118,1.0,0.0,0.0,0.0,1.0,0.0,0.0,0.0,1.0,-120.487808228,12.5,-26.6463432312,1.0,0.0,0.0,0.0,1.0,0.0,0.0,0.0,1.0,0.248996972656,-6.75643708496,-7.50342800293,1.0,0.0,0.0,0.0,1.0,0.0,0.0,0.0,1.0
1463577706523399337,695,1463577706430855228,,40.9279403687,6.69606161118,-126.014373779,0.0100919995457,1.0,0.0,0.0,0.0,1.0,0.0,0.0,0.0,1.0,-122.682922363,12.3170728683,-27.0121955872,1.0,0.0,0.0,0.0,1.0,0.0,0.0,0.0,1.0,0.292092584273,-6.55532414551,-7.52737001953,1.0,0.0,0.0,0.0,1.0,0.0,0.0,0.0,1.0
1463577706523705117,696,1463577706440972115,,39.6557235718,7.00484800339,-126.238883972,0.0101159997284,1.0,0.0,0.0,0.0,1.0,0.0,0.0,0.0,1.0,-126.951217651,10.3658542633,-25.2439041138,1.0,0.0,0.0,0.0,1.0,0.0,0.0,0.0,1.0,0.603338854892,-6.73728347168,-7.57046564941,1.0,0.0,0.0,0.0,1.0,0.0,0.0,0.0,1.0
1463577706523981210,697,1463577706451059418,,38.3216705322,7.29937744141,-126.467086792,0.0100929997861,1.0,0.0,0.0,0.0,1.0,0.0,0.0,0.0,1.0,-131.829269409,9.93902492523,-24.2073173523,1.0,0.0,0.0,0.0,1.0,0.0,0.0,0.0,1.0,0.656011254883,-6.10042583008,-7.53694682617,1.0,0.0,0.0,0.0,1.0,0.0,0.0,0.0,1.0
1463577706524262511,698,1463577706461222138,,36.9494857788,7.55767583847,-126.697769165,0.010111999698,1.0,0.0,0.0,0.0,1.0,0.0,0.0,0.0,1.0,-135.426834106,7.92682981491,-21.9512195587,1.0,0.0,0.0,0.0,1.0,0.0,0.0,0.0,1.0,0.675164868164,-5.87537087402,-7.56088884277,1.0,0.0,0.0,0.0,1.0,0.0,0.0,0.0,1.0
1463577706524543864,699,1463577706471300639,,35.5324859619,7.79396867752,-126.929794312,0.0101009998471,1.0,0.0,0.0,0.0,1.0,0.0,0.0,0.0,1.0,-139.024398804,7.31707334518,-20.6707324982,1.0,0.0,0.0,0.0,1.0,0.0,0.0,0.0,1.0,0.665588061523,-5.61679709473,-7.85298144531,1.0,0.0,0.0,0.0,1.0,0.0,0.0,0.0,1.0
1463577706524835477,700,1463577706481426745,,34.0804405212,7.98266267776,-127.161872864,0.0101659996435,1.0,0.0,0.0,0.0,1.0,0.0,0.0,0.0,1.0,-142.012191772,5.54878091812,-18.5365848541,1.0,0.0,0.0,0.0,1.0,0.0,0.0,0.0,1.0,0.435744702148,-5.52102902832,-7.98705673828,1.0,0.0,0.0,0.0,1.0,0.0,0.0,0.0,1.0
1463577706760511618,701,1463577706491533371,,32.6028900146,8.15431785583,-127.388313293,0.010053999722,1.0,0.0,0.0,0.0,1.0,0.0,0.0,0.0,1.0,-144.878051758,6.0365858078,-17.5609760284,1.0,0.0,0.0,0.0,1.0,0.0,0.0,0.0,1.0,0.330399829102,-5.08049592285,-8.15465085449,1.0,0.0,0.0,0.0,1.0,0.0,0.0,0.0,1.0
1463577706760781096,702,1463577706501669685,,31.1129016876,8.30350112915,-127.613426208,0.0100929997861,1.0,0.0,0.0,0.0,1.0,0.0,0.0,0.0,1.0,-146.707321167,5.30487823486,-16.341463089,1.0,0.0,0.0,0.0,1.0,0.0,0.0,0.0,1.0,0.282515795898,-5.03261188965,-8.16422766113,1.0,0.0,0.0,0.0,1.0,0.0,0.0,0.0,1.0
1463577706763879990,703,1463577706511645634,,29.5813541412,8.47164726257,-127.838844299,0.010095000267,1.0,0.0,0.0,0.0,1.0,0.0,0.0,0.0,1.0,-149.085372925,5.67073154449,-15.6097564697,1.0,0.0,0.0,0.0,1.0,0.0,0.0,0.0,1.0,0.723048901367,-4.48673391113,-8.27914934082,1.0,0.0,0.0,0.0,1.0,0.0,0.0,0.0,1.0
1463577706764536967,704,1463577706521819031,,28.0287857056,8.6034078598,-128.069274902,0.010095000267,1.0,0.0,0.0,0.0,1.0,0.0,0.0,0.0,1.0,-149.756088257,4.20731735229,-14.5121955872,1.0,0.0,0.0,0.0,1.0,0.0,0.0,0.0,1.0,0.550666381836,-4.08929643555,-8.53772370464,1.0,0.0,0.0,0.0,1.0,0.0,0.0,0.0,1.0
1463577706764988215,705,1463577706531962532,,26.4615192413,8.74261569977,-128.310516357,0.0101070003584,1.0,0.0,0.0,0.0,1.0,0.0,0.0,0.0,1.0,-149.817077637,3.47560977936,-14.5121955872,1.0,0.0,0.0,0.0,1.0,0.0,0.0,0.0,1.0,0.890643017578,-3.63918652344,-8.58081933452,1.0,0.0,0.0,0.0,1.0,0.0,0.0,0.0,1.0
1463577706765290036,706,1463577706543275299,,24.9091339111,8.85044193268,-128.563400269,0.010169999674,1.0,0.0,0.0,0.0,1.0,0.0,0.0,0.0,1.0,-147.743911743,1.95121955872,-14.4512205124,1.0,0.0,0.0,0.0,1.0,0.0,0.0,0.0,1.0,0.718260498047,-3.45722719727,-8.56645412456,1.0,0.0,0.0,0.0,1.0,0.0,0.0,0.0,1.0
1463577706766485553,707,1463577706552274118,,23.364528656,8.95137119293,-128.802703857,0.0101359998807,1.0,0.0,0.0,0.0,1.0,0.0,0.0,0.0,1.0,-147.987808228,1.15853655338,-12.3170728683,1.0,0.0,0.0,0.0,1.0,0.0,0.0,0.0,1.0,1.00077629395,-3.27526787109,-8.64306857769,1.0,0.0,0.0,0.0,1.0,0.0,0.0,0.0,1.0
1463577706766804145,708,1463577706564157872,,21.7639465332,9.02672290802,-129.030700684,0.0106440000236,1.0,0.0,0.0,0.0,1.0,0.0,0.0,0.0,1.0,-149.634155273,0.548780500889,-9.93902492523,1.0,0.0,0.0,0.0,1.0,0.0,0.0,0.0,1.0,0.895431420898,-3.57214887695,-8.56166572124,1.0,0.0,0.0,0.0,1.0,0.0,0.0,0.0,1.0
1463577706767306122,709,1463577706572272736,,20.3103923798,9.0625038147,-129.226638794,0.00945200026035,1.0,0.0,0.0,0.0,1.0,0.0,0.0,0.0,1.0,-150.67074585,-0.914634168148,-7.92682981491,1.0,0.0,0.0,0.0,1.0,0.0,0.0,0.0,1.0,0.814028564453,-2.99754047852,-8.9591026123,1.0,0.0,0.0,0.0,1.0,0.0,0.0,0.0,1.0
1463577706768382889,710,1463577706584811227,,18.5527095795,9.07497596741,-129.456954956,0.0113359997049,1.0,0.0,0.0,0.0,1.0,0.0,0.0,0.0,1.0,-149.268295288,-1.2804877758,-6.70731735229,1.0,0.0,0.0,0.0,1.0,0.0,0.0,0.0,1.0,0.574608398438,-2.27927998047,-8.98783303223,1.0,0.0,0.0,0.0,1.0,0.0,0.0,0.0,1.0
1463577706768713617,711,1463577706593908222,,17.0955104828,9.10237407684,-129.640594482,0.00999899953604,1.0,0.0,0.0,0.0,1.0,0.0,0.0,0.0,1.0,-138.719512939,-4.45121955872,-3.10975623131,1.0,0.0,0.0,0.0,1.0,0.0,0.0,0.0,1.0,1.69509477539,-1.8148048584,-9.53849999858,1.0,0.0,0.0,0.0,1.0,0.0,0.0,0.0,1.0
1463577706769008355,712,1463577706603612194,,15.8681058884,8.98401927948,-129.764907837,0.00899000000209,1.0,0.0,0.0,0.0,1.0,0.0,0.0,0.0,1.0,-137.865859985,-11.5243911743,2.31707310677,1.0,0.0,0.0,0.0,1.0,0.0,0.0,0.0,1.0,0.426167895508,-2.66235224609,-8.57124252788,1.0,0.0,0.0,0.0,1.0,0.0,0.0,0.0,1.0
1463577706769271062,713,1463577706613979965,,14.4068632126,8.86037635803,-129.891296387,0.0101399999112,1.0,0.0,0.0,0.0,1.0,0.0,0.0,0.0,1.0,-140.60975647,-8.78048801422,3.59756112099,1.0,0.0,0.0,0.0,1.0,0.0,0.0,0.0,1.0,0.248996972656,-1.74776721191,-9.15063874512,1.0,0.0,0.0,0.0,1.0,0.0,0.0,0.0,1.0
1463577706769533770,714,1463577706622718992,,12.9792327881,8.75960159302,-130.011871338,0.0100360000506,1.0,0.0,0.0,0.0,1.0,0.0,0.0,0.0,1.0,-140.853652954,-7.98780536652,3.41463422775,1.0,0.0,0.0,0.0,1.0,0.0,0.0,0.0,1.0,0.483628735352,-1.77170922852,-8.78672009277,1.0,0.0,0.0,0.0,1.0,0.0,0.0,0.0,1.0
1463577706771616313,715,1463577706637521537,,11.5208692551,8.67408180237,-130.152389526,0.0101049998775,1.0,0.0,0.0,0.0,1.0,0.0,0.0,0.0,1.0,-139.268295288,-9.32926845551,2.25609779358,1.0,0.0,0.0,0.0,1.0,0.0,0.0,0.0,1.0,0.967257470703,-1.04866025408,-9.27992563477,1.0,0.0,0.0,0.0,1.0,0.0,0.0,0.0,1.0
1463577706771929750,716,1463577706642938286,,10.0903749466,8.54929924011,-130.302429199,0.0100969998166,1.0,0.0,0.0,0.0,1.0,0.0,0.0,0.0,1.0,-135.853652954,-11.8292684555,1.70731711388,1.0,0.0,0.0,0.0,1.0,0.0,0.0,0.0,1.0,0.742202514648,-0.699106884766,-9.24640681152,1.0,0.0,0.0,0.0,1.0,0.0,0.0,0.0,1.0
1463577706772232457,717,1463577706653041892,,8.69738769531,8.40210723877,-130.474838257,0.0101129999384,1.0,0.0,0.0,0.0,1.0,0.0,0.0,0.0,1.0,-133.963409424,-11.8292684555,-1.09756100178,1.0,0.0,0.0,0.0,1.0,0.0,0.0,0.0,1.0,0.349553442383,-0.871489404297,-9.39963513325,1.0,0.0,0.0,0.0,1.0,0.0,0.0,0.0,1.0
1463577706772520268,718,1463577706663085602,,7.28915691376,8.2369890213,-130.690551758,0.0100889997557,1.0,0.0,0.0,0.0,1.0,0.0,0.0,0.0,1.0,-132.865859985,-13.4146347046,-5.06097555161,1.0,0.0,0.0,0.0,1.0,0.0,0.0,0.0,1.0,0.253785375977,-0.244208569336,-9.50976957866,1.0,0.0,0.0,0.0,1.0,0.0,0.0,0.0,1.0
1463577706772794277,719,1463577706674643055,,5.89960336685,8.09760665894,-130.962280273,0.0101169999689,1.0,0.0,0.0,0.0,1.0,0.0,0.0,0.0,1.0,-128.597564697,-10.9756097794,-10.8536586761,1.0,0.0,0.0,0.0,1.0,0.0,0.0,0.0,1.0,0.220266552734,0.215478149414,-9.50019277202,1.0,0.0,0.0,0.0,1.0,0.0,0.0,0.0,1.0
1463577706774349688,720,1463577706683997341,,4.54710388184,7.92402744293,-131.287017822,0.0100999996066,1.0,0.0,0.0,0.0,1.0,0.0,0.0,0.0,1.0,-123.963424683,-13.1097564697,-16.0365848541,1.0,0.0,0.0,0.0,1.0,0.0,0.0,0.0,1.0,0.0,0.545877978516,-9.63905646831,1.0,0.0,0.0,0.0,1.0,0.0,0.0,0.0,1.0
1463577706774960727,721,1463577706693433761,,3.23130321503,7.75015640259,-131.671951294,0.0100880004466,1.0,0.0,0.0,0.0,1.0,0.0,0.0,0.0,1.0,-118.597564697,-13.048781395,-22.0731716156,1.0,0.0,0.0,0.0,1.0,0.0,0.0,0.0,1.0,0.0,0.943315454102,-9.2942902602,1.0,0.0,0.0,0.0,1.0,0.0,0.0,0.0,1.0
1463577706775274997,722,1463577706704628040,,1.98457384109,7.5843205452,-132.118789673,0.0101079996675,1.0,0.0,0.0,0.0,1.0,0.0,0.0,0.0,1.0,-111.768295288,-12.1341466904,-28.475610733,1.0,0.0,0.0,0.0,1.0,0.0,0.0,0.0,1.0,0.0478840332031,1.02471831055,-9.5432884019,1.0,0.0,0.0,0.0,1.0,0.0,0.0,0.0,1.0
1463577706775555933,723,1463577706713808263,,0.778362512589,7.40571069717,-132.609008789,0.0101039996371,1.0,0.0,0.0,0.0,1.0,0.0,0.0,0.0,1.0,-108.231712341,-13.4146347046,-33.0487823486,1.0,0.0,0.0,0.0,1.0,0.0,0.0,0.0,1.0,0.15801730957,1.06302561017,-9.34217429341,1.0,0.0,0.0,0.0,1.0,0.0,0.0,0.0,1.0
1463577706776795720,724,1463577706725535248,,-0.400264978409,7.22150945663,-133.136001587,0.0100870002061,1.0,0.0,0.0,0.0,1.0,0.0,0.0,0.0,1.0,-104.024391174,-13.9024391174,-36.8292694092,1.0,0.0,0.0,0.0,1.0,0.0,0.0,0.0,1.0,0.272938989258,1.51313544922,-9.44273076313,1.0,0.0,0.0,0.0,1.0,0.0,0.0,0.0,1.0
1463577706777441655,725,1463577706733850839,,-1.54585659504,7.0419588089,-133.689483643,0.0101039996371,1.0,0.0,0.0,0.0,1.0,0.0,0.0,0.0,1.0,-100.487808228,-12.7439022064,-39.634147644,1.0,0.0,0.0,0.0,1.0,0.0,0.0,0.0,1.0,0.31124621582,1.69509477539,-9.41878874653,1.0,0.0,0.0,0.0,1.0,0.0,0.0,0.0,1.0
1463577706777729258,726,1463577706744737098,,-2.6420750618,6.84847688675,-134.269287109,0.0101049998775,1.0,0.0,0.0,0.0,1.0,0.0,0.0,0.0,1.0,-95.2439041138,-13.2926826477,-42.5,1.0,0.0,0.0,0.0,1.0,0.0,0.0,0.0,1.0,0.330399829102,1.90099611816,-9.28950185688,1.0,0.0,0.0,0.0,1.0,0.0,0.0,0.0,1.0
1463577706778981284,727,1463577706757078246,,-3.68086671829,6.63557863235,-134.870300293,0.0101150004193,1.0,0.0,0.0,0.0,1.0,0.0,0.0,0.0,1.0,-88.9634170532,-13.658536911,-44.817073822,1.0,0.0,0.0,0.0,1.0,0.0,0.0,0.0,1.0,0.239420166016,2.20266552734,-9.44273076313,1.0,0.0,0.0,0.0,1.0,0.0,0.0,0.0,1.0
1463577706779333834,728,1463577706764975663,,-4.65483427048,6.40844345093,-135.474578857,0.0100959995762,1.0,0.0,0.0,0.0,1.0,0.0,0.0,0.0,1.0,-85.4878082275,-13.841463089,-45.9146347046,1.0,0.0,0.0,0.0,1.0,0.0,0.0,0.0,1.0,0.181959326172,1.94409174805,-9.54807680523,1.0,0.0,0.0,0.0,1.0,0.0,0.0,0.0,1.0
1463577706827423434,729,1463577706775167028,,-5.57719993591,6.17289161682,-136.086029053,0.010095000267,1.0,0.0,0.0,0.0,1.0,0.0,0.0,0.0,1.0,-81.4634170532,-13.841463089,-47.0731697083,1.0,0.0,0.0,0.0,1.0,0.0,0.0,0.0,1.0,0.181959326172,1.9105729248,-9.35653950337,1.0,0.0,0.0,0.0,1.0,0.0,0.0,0.0,1.0
1463577706829357645,730,1463577706785246311,,-6.44446659088,5.95937538147,-136.716903687,0.0100880004466,1.0,0.0,0.0,0.0,1.0,0.0,0.0,0.0,1.0,-77.5,-12.6829271317,-49.390247345,1.0,0.0,0.0,0.0,1.0,0.0,0.0,0.0,1.0,0.526724328702,1.86747729492,-9.58159562847,1.0,0.0,0.0,0.0,1.0,0.0,0.0,0.0,1.0
1463577706829734466,731,1463577706794525545,,-7.28027772903,5.72983455658,-137.350006104,0.0101140001789,1.0,0.0,0.0,0.0,1.0,0.0,0.0,0.0,1.0,-74.5121917725,-14.0243902206,-49.9390258789,1.0,0.0,0.0,0.0,1.0,0.0,0.0,0.0,1.0,0.627280834961,2.00155258789,-9.59117243511,1.0,0.0,0.0,0.0,1.0,0.0,0.0,0.0,1.0
1463577706830032486,732,1463577706804526338,,-8.08951377869,5.47713041306,-137.969924927,0.0100959995762,1.0,0.0,0.0,0.0,1.0,0.0,0.0,0.0,1.0,-71.341468811,-15.1829271317,-49.1463432312,1.0,0.0,0.0,0.0,1.0,0.0,0.0,0.0,1.0,0.502782348633,2.26970317383,-9.30386706685,1.0,0.0,0.0,0.0,1.0,0.0,0.0,0.0,1.0
1463577706855863112,733,1463577706814688797,,-8.8568277359,5.20502138138,-138.578369141,0.0100840004161,1.0,0.0,0.0,0.0,1.0,0.0,0.0,0.0,1.0,-67.3780517578,-16.7682933807,-48.6585388184,1.0,0.0,0.0,0.0,1.0,0.0,0.0,0.0,1.0,0.541089611728,2.53306535645,-9.58638403179,1.0,0.0,0.0,0.0,1.0,0.0,0.0,0.0,1.0
1463577706875959281,734,1463577706824851100,,-9.56826114655,4.89228582382,-139.161529541,0.0101009998471,1.0,0.0,0.0,0.0,1.0,0.0,0.0,0.0,1.0,-64.0853729248,-19.2682914734,-47.0121994019,1.0,0.0,0.0,0.0,1.0,0.0,0.0,0.0,1.0,0.316034619141,2.32716386754,-9.55286520855,1.0,0.0,0.0,0.0,1.0,0.0,0.0,0.0,1.0
1463577706876011312,735,1463577706836616835,,-10.2418613434,4.579600811,-139.733947754,0.0101180002093,1.0,0.0,0.0,0.0,1.0,0.0,0.0,0.0,1.0,-61.3414611816,-19.1463432312,-46.2804908752,1.0,0.0,0.0,0.0,1.0,0.0,0.0,0.0,1.0,0.349553442383,2.32716386754,-9.55765361187,1.0,0.0,0.0,0.0,1.0,0.0,0.0,0.0,1.0
1463577706876516571,736,1463577706852626666,,-10.8911800385,4.24220466614,-140.283996582,0.0101169999689,1.0,0.0,0.0,0.0,1.0,0.0,0.0,0.0,1.0,-58.6585388184,-20.8536586761,-44.6951217651,1.0,0.0,0.0,0.0,1.0,0.0,0.0,0.0,1.0,0.225054956055,2.60010300293,-9.60553764507,1.0,0.0,0.0,0.0,1.0,0.0,0.0,0.0,1.0
1463577706893110567,737,1463577706856231548,,-11.5728492737,3.88063120842,-140.861358643,0.0111750001088,1.0,0.0,0.0,0.0,1.0,0.0,0.0,0.0,1.0,-56.9512214661,-21.158536911,-42.5,1.0,0.0,0.0,0.0,1.0,0.0,0.0,0.0,1.0,0.426167895508,2.53306535645,-9.56723041851,1.0,0.0,0.0,0.0,1.0,0.0,0.0,0.0,1.0
1463577706893205410,738,1463577706865160418,,-12.1031599045,3.57320904732,-141.296234131,0.00901100039482,1.0,0.0,0.0,0.0,1.0,0.0,0.0,0.0,1.0,-55.7317085266,-21.7073173523,-39.5731735229,1.0,0.0,0.0,0.0,1.0,0.0,0.0,0.0,1.0,0.138863696289,2.58573779297,-9.58638403179,1.0,0.0,0.0,0.0,1.0,0.0,0.0,0.0,1.0
1463577706893258171,739,1463577706875244128,,-12.6858177185,3.24294424057,-141.762649536,0.0100929997861,1.0,0.0,0.0,0.0,1.0,0.0,0.0,0.0,1.0,-53.9634170532,-21.0365848541,-37.6219520569,1.0,0.0,0.0,0.0,1.0,0.0,0.0,0.0,1.0,0.225054956055,2.88740720215,-9.63905646831,1.0,0.0,0.0,0.0,1.0,0.0,0.0,0.0,1.0
1463577706893355774,740,1463577706885514556,,-13.2522392273,2.88669729233,-142.20022583,0.0101359998807,1.0,0.0,0.0,0.0,1.0,0.0,0.0,0.0,1.0,-52.5609779358,-21.5243911743,-35.0000038147,1.0,0.0,0.0,0.0,1.0,0.0,0.0,0.0,1.0,-0.205901342773,3.02148249512,-9.73003554687,1.0,0.0,0.0,0.0,1.0,0.0,0.0,0.0,1.0
1463577706902473602,741,1463577706896585188,,-13.7844705582,2.55165576935,-142.608703613,0.0100630000234,1.0,0.0,0.0,0.0,1.0,0.0,0.0,0.0,1.0,-50.6707344055,-20.4878044128,-32.5,1.0,0.0,0.0,0.0,1.0,0.0,0.0,0.0,1.0,-0.148440512063,2.98796367187,-9.72045874023,1.0,0.0,0.0,0.0,1.0,0.0,0.0,0.0,1.0
1463577706999680349,742,1463577706905594215,,-14.311255455,2.22335076332,-142.989257812,0.010108999908,1.0,0.0,0.0,0.0,1.0,0.0,0.0,0.0,1.0,-49.6951217651,-19.6951236725,-29.5731697083,1.0,0.0,0.0,0.0,1.0,0.0,0.0,0.0,1.0,-0.263362164351,3.20344182129,-9.75397756348,1.0,0.0,0.0,0.0,1.0,0.0,0.0,0.0,1.0
1463577706999715609,743,1463577706916396672,,-14.8479528427,1.88123166561,-143.367202759,0.0107939997688,1.0,0.0,0.0,0.0,1.0,0.0,0.0,0.0,1.0,-47.9878044128,-19.6951236725,-27.1951236725,1.0,0.0,0.0,0.0,1.0,0.0,0.0,0.0,1.0,-0.229843359375,3.27526787109,-9.88326445312,1.0,0.0,0.0,0.0,1.0,0.0,0.0,0.0,1.0
1463577706999753005,744,1463577706926887307,,-15.3076715469,1.58630943298,-143.68006897,0.00941899977624,1.0,0.0,0.0,0.0,1.0,0.0,0.0,0.0,1.0,-46.5853691101,-19.2682914734,-25.4878044128,1.0,0.0,0.0,0.0,1.0,0.0,0.0,0.0,1.0,-0.330399829102,3.56257207031,-9.99339772949,1.0,0.0,0.0,0.0,1.0,0.0,0.0,0.0,1.0
1463577706999791286,745,1463577706937286380,,-15.7757291794,1.26684141159,-143.995040894,0.0100819999352,1.0,0.0,0.0,0.0,1.0,0.0,0.0,0.0,1.0,-43.9634170532,-19.3292694092,-23.7195129395,1.0,0.0,0.0,0.0,1.0,0.0,0.0,0.0,1.0,-0.483628735352,3.72058937988,-9.92157167969,1.0,0.0,0.0,0.0,1.0,0.0,0.0,0.0,1.0
1463577706999826390,746,1463577706947470662,,-16.2402763367,0.947680711746,-144.30847168,0.0105050001293,1.0,0.0,0.0,0.0,1.0,0.0,0.0,0.0,1.0,-42.134147644,-18.3536586761,-22.2560977936,1.0,0.0,0.0,0.0,1.0,0.0,0.0,0.0,1.0,-0.502782348633,3.77326181641,-9.90720646973,1.0,0.0,0.0,0.0,1.0,0.0,0.0,0.0,1.0
1463577706999865088,747,1463577706956161304,,-16.6434402466,0.659970521927,-144.579193115,0.00976399984211,1.0,0.0,0.0,0.0,1.0,0.0,0.0,0.0,1.0,-40.0,-18.1097564697,-20.2439022064,1.0,0.0,0.0,0.0,1.0,0.0,0.0,0.0,1.0,-0.493205541992,3.7014357666,-9.79707319336,1.0,0.0,0.0,0.0,1.0,0.0,0.0,0.0,1.0
1463577706999902379,748,1463577706968806150,,-17.0318412781,0.379798442125,-144.845932007,0.0101159997284,1.0,0.0,0.0,0.0,1.0,0.0,0.0,0.0,1.0,-37.865852356,-17.0121955872,-18.7195110321,1.0,0.0,0.0,0.0,1.0,0.0,0.0,0.0,1.0,-0.45968671875,3.66791694336,-9.82101520996,1.0,0.0,0.0,0.0,1.0,0.0,0.0,0.0,1.0
1463577707165630102,749,1463577706976490494,,-17.415019989,0.104635566473,-145.094039917,0.0100330002606,1.0,0.0,0.0,0.0,1.0,0.0,0.0,0.0,1.0,-37.1951255798,-17.1951217651,-17.2560977936,1.0,0.0,0.0,0.0,1.0,0.0,0.0,0.0,1.0,-0.469263525391,3.77805021973,-9.60074924175,1.0,0.0,0.0,0.0,1.0,0.0,0.0,0.0,1.0
1463577707165879320,750,1463577706987882428,,-17.797296524,-0.175586089492,-145.338287354,0.0102650001645,1.0,0.0,0.0,0.0,1.0,0.0,0.0,0.0,1.0,-36.2195129395,-16.7682933807,-16.341463089,1.0,0.0,0.0,0.0,1.0,0.0,0.0,0.0,1.0,-0.588973571866,3.85466467285,-9.53371159526,1.0,0.0,0.0,0.0,1.0,0.0,0.0,0.0,1.0
1463577707166137965,751,1463577706996880308,,-18.1596660614,-0.43616771698,-145.55947876,0.00992500036955,1.0,0.0,0.0,0.0,1.0,0.0,0.0,0.0,1.0,-35.1829299927,-15.975610733,-14.6951217651,1.0,0.0,0.0,0.0,1.0,0.0,0.0,0.0,1.0,-0.641646044922,3.92649072266,-9.33259748677,1.0,0.0,0.0,0.0,1.0,0.0,0.0,0.0,1.0
1463577707166395880,752,1463577707006593551,,-18.5035743713,-0.681682646275,-145.778701782,0.0101180002093,1.0,0.0,0.0,0.0,1.0,0.0,0.0,0.0,1.0,-33.5975608826,-14.8780498505,-13.841463089,1.0,0.0,0.0,0.0,1.0,0.0,0.0,0.0,1.0,-0.555454785156,3.94564433594,-9.61032604839,1.0,0.0,0.0,0.0,1.0,0.0,0.0,0.0,1.0
1463577707166672390,753,1463577707017598819,,-18.8390045166,-0.911467432976,-145.986907959,0.0103110000491,1.0,0.0,0.0,0.0,1.0,0.0,0.0,0.0,1.0,-32.6219520569,-14.6951217651,-12.3780488968,1.0,0.0,0.0,0.0,1.0,0.0,0.0,0.0,1.0,-0.325611425781,3.86424147949,-9.44751916645,1.0,0.0,0.0,0.0,1.0,0.0,0.0,0.0,1.0
1463577707167244783,754,1463577707027450967,,-19.1560401917,-1.14400553703,-146.179901123,0.0102260001004,1.0,0.0,0.0,0.0,1.0,0.0,0.0,0.0,1.0,-31.7682914734,-14.2682924271,-10.9756097794,1.0,0.0,0.0,0.0,1.0,0.0,0.0,0.0,1.0,-0.584185168546,3.82114584961,-9.47624958638,1.0,0.0,0.0,0.0,1.0,0.0,0.0,0.0,1.0
1463577707167575876,755,1463577707038353267,,-19.4685382843,-1.3732714653,-146.361740112,0.0102180000395,1.0,0.0,0.0,0.0,1.0,0.0,0.0,0.0,1.0,-32.0121955872,-14.3902444839,-10.0,1.0,0.0,0.0,0.0,1.0,0.0,0.0,0.0,1.0,-0.603338854892,3.85466467285,-9.70609353027,1.0,0.0,0.0,0.0,1.0,0.0,0.0,0.0,1.0
1463577707167881083,756,1463577707049191557,,-19.784122467,-1.60668253899,-146.53616333,0.0104729998857,1.0,0.0,0.0,0.0,1.0,0.0,0.0,0.0,1.0,-31.5853652954,-14.3292694092,-8.90243911743,1.0,0.0,0.0,0.0,1.0,0.0,0.0,0.0,1.0,-0.665588061523,3.83551105957,-9.4954043687,1.0,0.0,0.0,0.0,1.0,0.0,0.0,0.0,1.0
1463577707168177956,757,1463577707057479233,,-20.0742015839,-1.81566309929,-146.679718018,0.00925500039011,1.0,0.0,0.0,0.0,1.0,0.0,0.0,0.0,1.0,-32.317073822,-14.9390249252,-8.04878044128,1.0,0.0,0.0,0.0,1.0,0.0,0.0,0.0,1.0,-0.699106884766,4.00310517578,-9.50976957866,1.0,0.0,0.0,0.0,1.0,0.0,0.0,0.0,1.0
1463577707168447278,758,1463577707068415074,,-20.3901557922,-2.04124236107,-146.824432373,0.0101140001789,1.0,0.0,0.0,0.0,1.0,0.0,0.0,0.0,1.0,-31.8902454376,-14.8780498505,-6.89024400711,1.0,0.0,0.0,0.0,1.0,0.0,0.0,0.0,1.0,-0.751779321289,4.08929643555,-9.41878874653,1.0,0.0,0.0,0.0,1.0,0.0,0.0,0.0,1.0
1463577707168724725,759,1463577707077386549,,-20.7024230957,-2.27493238449,-146.952835083,0.0100899999961,1.0,0.0,0.0,0.0,1.0,0.0,0.0,0.0,1.0,-32.317073822,-16.158536911,-5.79268312454,1.0,0.0,0.0,0.0,1.0,0.0,0.0,0.0,1.0,-0.780509741211,3.98873996582,-9.37090471333,1.0,0.0,0.0,0.0,1.0,0.0,0.0,0.0,1.0
1463577707169023266,760,1463577707087802705,,-21.0221805573,-2.50864028931,-147.073867798,0.0101190004498,1.0,0.0,0.0,0.0,1.0,0.0,0.0,0.0,1.0,-32.5,-16.7682933807,-5.36585378647,1.0,0.0,0.0,0.0,1.0,0.0,0.0,0.0,1.0,-0.723048901367,4.12281525879,-9.31823227681,1.0,0.0,0.0,0.0,1.0,0.0,0.0,0.0,1.0
1463577707169299254,761,1463577707099060316,,-21.3596477509,-2.76292514801,-147.183883667,0.0104890000075,1.0,0.0,0.0,0.0,1.0,0.0,0.0,0.0,1.0,-30.9146327972,-18.2926826477,-4.63414621353,1.0,0.0,0.0,0.0,1.0,0.0,0.0,0.0,1.0,-0.737414111328,4.44842668457,-8.97346782227,1.0,0.0,0.0,0.0,1.0,0.0,0.0,0.0,1.0
1463577707169553576,762,1463577707107882156,,-21.6329460144,-3.00847506523,-147.287841797,0.00973199959844,1.0,0.0,0.0,0.0,1.0,0.0,0.0,0.0,1.0,-27.0731716156,-19.2682914734,-5.36585378647,1.0,0.0,0.0,0.0,1.0,0.0,0.0,0.0,1.0,-0.76614453125,4.63517441406,-9.2942902602,1.0,0.0,0.0,0.0,1.0,0.0,0.0,0.0,1.0
1463577707169802950,763,1463577707117688940,,-21.8644332886,-3.27346038818,-147.38861084,0.0100739998743,1.0,0.0,0.0,0.0,1.0,0.0,0.0,0.0,1.0,-23.1707324982,-19.6951236725,-4.87804889679,1.0,0.0,0.0,0.0,1.0,0.0,0.0,0.0,1.0,-0.952892260742,4.44363828125,-9.28471345356,1.0,0.0,0.0,0.0,1.0,0.0,0.0,0.0,1.0
1463577707170057272,764,1463577707129338633,,-22.0762481689,-3.5537211895,-147.499008179,0.010545999743,1.0,0.0,0.0,0.0,1.0,0.0,0.0,0.0,1.0,-20.975610733,-19.3292694092,-5.30487823486,1.0,0.0,0.0,0.0,1.0,0.0,0.0,0.0,1.0,-1.08217922346,4.40054265137,-9.36132790669,1.0,0.0,0.0,0.0,1.0,0.0,0.0,0.0,1.0
1463577707303071375,765,1463577707137979275,,-22.2705688477,-3.81241559982,-147.583221436,0.00966500025243,1.0,0.0,0.0,0.0,1.0,0.0,0.0,0.0,1.0,-20.3658542633,-20.0,-3.84146332741,1.0,0.0,0.0,0.0,1.0,0.0,0.0,0.0,1.0,-1.14921679688,4.52982954102,-9.29907866352,1.0,0.0,0.0,0.0,1.0,0.0,0.0,0.0,1.0
1463577707303359812,766,1463577707148985689,,-22.4810218811,-4.11677837372,-147.669250488,0.0110440002754,1.0,0.0,0.0,0.0,1.0,0.0,0.0,0.0,1.0,-19.6951236725,-20.7317085266,-3.23170733452,1.0,0.0,0.0,0.0,1.0,0.0,0.0,0.0,1.0,-1.26413847656,4.5250411377,-9.37569311665,1.0,0.0,0.0,0.0,1.0,0.0,0.0,0.0,1.0
1463577707303651269,767,1463577707159444085,,-22.6669998169,-4.37139177322,-147.720550537,0.00915700010955,1.0,0.0,0.0,0.0,1.0,0.0,0.0,0.0,1.0,-20.4268302917,-21.6463432312,-1.40243899822,1.0,0.0,0.0,0.0,1.0,0.0,0.0,0.0,1.0,-1.33596452637,4.63038601074,-9.33259748677,1.0,0.0,0.0,0.0,1.0,0.0,0.0,0.0,1.0
1463577707303951841,768,1463577707168314050,,-22.8637924194,-4.66181993484,-147.76713562,0.0101070003584,1.0,0.0,0.0,0.0,1.0,0.0,0.0,0.0,1.0,-21.0975627899,-23.2317085266,-0.975609779358,1.0,0.0,0.0,0.0,1.0,0.0,0.0,0.0,1.0,-1.30723410645,4.38138903809,-9.40442353657,1.0,0.0,0.0,0.0,1.0,0.0,0.0,0.0,1.0
1463577707304249391,769,1463577707178460207,,-23.0840778351,-4.95382785797,-147.789276123,0.0102159995586,1.0,0.0,0.0,0.0,1.0,0.0,0.0,0.0,1.0,-22.3170719147,-24.2682933807,1.03658533096,1.0,0.0,0.0,0.0,1.0,0.0,0.0,0.0,1.0,-1.31202250977,4.57771357422,-9.43315395649,1.0,0.0,0.0,0.0,1.0,0.0,0.0,0.0,1.0
1463577707304530276,770,1463577707188425688,,-23.2919120789,-5.24549722672,-147.799865723,0.00999299995601,1.0,0.0,0.0,0.0,1.0,0.0,0.0,0.0,1.0,-21.2804889679,-24.8780498505,1.8292683363,1.0,0.0,0.0,0.0,1.0,0.0,0.0,0.0,1.0,-1.47003981934,4.76924999929,-9.64863327495,1.0,0.0,0.0,0.0,1.0,0.0,0.0,0.0,1.0
1463577707304798556,771,1463577707198558095,,-23.4810161591,-5.53914260864,-147.797241211,0.0100830001757,1.0,0.0,0.0,0.0,1.0,0.0,0.0,0.0,1.0,-19.1463432312,-25.3658542633,2.92682933807,1.0,0.0,0.0,0.0,1.0,0.0,0.0,0.0,1.0,-1.54186586914,4.89853659668,-9.8305920166,1.0,0.0,0.0,0.0,1.0,0.0,0.0,0.0,1.0
1463577707305076107,772,1463577707208807377,,-23.6414146423,-5.83081102371,-147.7996521,0.0101070003584,1.0,0.0,0.0,0.0,1.0,0.0,0.0,0.0,1.0,-16.2195110321,-24.5731716156,2.62195134163,1.0,0.0,0.0,0.0,1.0,0.0,0.0,0.0,1.0,-1.68072956543,4.98951625977,-9.88805285645,1.0,0.0,0.0,0.0,1.0,0.0,0.0,0.0,1.0
1463577707305334804,773,1463577707218748588,,-23.780456543,-6.12903308868,-147.79347229,0.0100899999961,1.0,0.0,0.0,0.0,1.0,0.0,0.0,0.0,1.0,-12.4390249252,-24.9390239716,3.10975623131,1.0,0.0,0.0,0.0,1.0,0.0,0.0,0.0,1.0,-1.88184250488,5.39653054199,-9.89762966309,1.0,0.0,0.0,0.0,1.0,0.0,0.0,0.0,1.0
1463577707305573032,774,1463577707229836252,,-23.873041153,-6.42090606689,-147.797515869,0.0100889997557,1.0,0.0,0.0,0.0,1.0,0.0,0.0,0.0,1.0,-7.31707334518,-24.4512195587,2.07317066193,1.0,0.0,0.0,0.0,1.0,0.0,0.0,0.0,1.0,-1.81959326172,5.53539423828,-9.8305920166,1.0,0.0,0.0,0.0,1.0,0.0,0.0,0.0,1.0
1463577707305799333,775,1463577707241218029,,-23.9336452484,-6.73744010925,-147.789337158,0.0111880004406,1.0,0.0,0.0,0.0,1.0,0.0,0.0,0.0,1.0,-2.80487799644,-24.817073822,2.98780488968,1.0,0.0,0.0,0.0,1.0,0.0,0.0,0.0,1.0,-1.77170922852,5.71735356445,-9.8545340332,1.0,0.0,0.0,0.0,1.0,0.0,0.0,0.0,1.0
1463577707306057561,776,1463577707248981331,,-23.9557495117,-7.00120162964,-147.781539917,0.00902200024575,1.0,0.0,0.0,0.0,1.0,0.0,0.0,0.0,1.0,-0.0609756112099,-24.817073822,3.10975623131,1.0,0.0,0.0,0.0,1.0,0.0,0.0,0.0,1.0,-1.98718737793,5.53539423828,-9.60553764507,1.0,0.0,0.0,0.0,1.0,0.0,0.0,0.0,1.0
1463577707306311258,777,1463577707260049308,,-23.9589290619,-7.30719995499,-147.760025024,0.0109130004421,1.0,0.0,0.0,0.0,1.0,0.0,0.0,0.0,1.0,2.74390244484,-24.3902435303,4.39024400711,1.0,0.0,0.0,0.0,1.0,0.0,0.0,0.0,1.0,-2.01112939453,5.71256516113,-9.69651672363,1.0,0.0,0.0,0.0,1.0,0.0,0.0,0.0,1.0
1463577707306607403,778,1463577707269319896,,-23.927482605,-7.56170988083,-147.739868164,0.00941599998623,1.0,0.0,0.0,0.0,1.0,0.0,0.0,0.0,1.0,6.40243911743,-23.2317085266,5.06097555161,1.0,0.0,0.0,0.0,1.0,0.0,0.0,0.0,1.0,-2.13083962367,5.69341154785,-9.65821008159,1.0,0.0,0.0,0.0,1.0,0.0,0.0,0.0,1.0
1463577707307051984,779,1463577707279533032,,-23.8554954529,-7.81650733948,-147.70552063,0.0102049997076,1.0,0.0,0.0,0.0,1.0,0.0,0.0,0.0,1.0,10.7926826477,-22.3170719147,6.70731735229,1.0,0.0,0.0,0.0,1.0,0.0,0.0,0.0,1.0,-2.05901342773,5.75566079102,-9.57680722515,1.0,0.0,0.0,0.0,1.0,0.0,0.0,0.0,1.0
1463577707307400629,780,1463577707289369815,,-23.724899292,-8.0400094986,-147.667037964,0.00987599976361,1.0,0.0,0.0,0.0,1.0,0.0,0.0,0.0,1.0,15.3658533096,-20.4878044128,8.35365867615,1.0,0.0,0.0,0.0,1.0,0.0,0.0,0.0,1.0,-2.09253210485,5.39174213867,-9.65342167827,1.0,0.0,0.0,0.0,1.0,0.0,0.0,0.0,1.0
1463577707378722062,781,1463577707300062481,,-23.5621166229,-8.241522789,-147.60043335,0.0106300003827,1.0,0.0,0.0,0.0,1.0,0.0,0.0,0.0,1.0,18.9024391174,-18.475610733,11.6463422775,1.0,0.0,0.0,0.0,1.0,0.0,0.0,0.0,1.0,-2.02549460449,5.54975944824,-9.53849999858,1.0,0.0,0.0,0.0,1.0,0.0,0.0,0.0,1.0
1463577707378763833,782,1463577707309908327,,-23.3788433075,-8.40121364594,-147.521881104,0.00972899980843,1.0,0.0,0.0,0.0,1.0,0.0,0.0,0.0,1.0,22.2560977936,-16.5853652954,14.5121955872,1.0,0.0,0.0,0.0,1.0,0.0,0.0,0.0,1.0,-2.06859023437,5.28639726562,-9.31823227681,1.0,0.0,0.0,0.0,1.0,0.0,0.0,0.0,1.0
1463577707381804862,783,1463577707320504951,,-23.1484031677,-8.53305244446,-147.410888672,0.0107249999419,1.0,0.0,0.0,0.0,1.0,0.0,0.0,0.0,1.0,25.182926178,-14.1463422775,18.0487823486,1.0,0.0,0.0,0.0,1.0,0.0,0.0,0.0,1.0,-1.99676418457,5.2337248291,-9.32780908345,1.0,0.0,0.0,0.0,1.0,0.0,0.0,0.0,1.0
1463577707382224757,784,1463577707330175381,,-22.916683197,-8.62863922119,-147.286804199,0.00967499986291,1.0,0.0,0.0,0.0,1.0,0.0,0.0,0.0,1.0,27.5,-12.6219520569,21.4634151459,1.0,0.0,0.0,0.0,1.0,0.0,0.0,0.0,1.0,-2.03507141113,4.99430466309,-9.193734375,1.0,0.0,0.0,0.0,1.0,0.0,0.0,0.0,1.0
1463577707382543349,785,1463577707348195778,,-22.6638450623,-8.70094013214,-147.137283325,0.0097359996289,1.0,0.0,0.0,0.0,1.0,0.0,0.0,0.0,1.0,29.6951236725,-11.2195119858,24.817073822,1.0,0.0,0.0,0.0,1.0,0.0,0.0,0.0,1.0,-2.07816689489,4.93684382324,-9.2655604248,1.0,0.0,0.0,0.0,1.0,0.0,0.0,0.0,1.0
1463577707382836838,786,1463577707351809462,,-22.3947105408,-8.75298500061,-146.952987671,0.0101260002702,1.0,0.0,0.0,0.0,1.0,0.0,0.0,0.0,1.0,31.4634151459,-9.75609779358,28.3536586761,1.0,0.0,0.0,0.0,1.0,0.0,0.0,0.0,1.0,-2.12605122035,4.94163222656,-9.08360109863,1.0,0.0,0.0,0.0,1.0,0.0,0.0,0.0,1.0
1463577707383116993,787,1463577707361260153,,-22.0931606293,-8.76938533783,-146.731750488,0.0104480003938,1.0,0.0,0.0,0.0,1.0,0.0,0.0,0.0,1.0,32.865852356,-8.35365867615,32.317073822,1.0,0.0,0.0,0.0,1.0,0.0,0.0,0.0,1.0,-1.91536132812,4.5250411377,-8.9351605957,1.0,0.0,0.0,0.0,1.0,0.0,0.0,0.0,1.0
1463577707383388919,788,1463577707370845115,,-21.80900383,-8.77342605591,-146.498275757,0.00973299983889,1.0,0.0,0.0,0.0,1.0,0.0,0.0,0.0,1.0,33.0487823486,-7.37804937363,35.7926826477,1.0,0.0,0.0,0.0,1.0,0.0,0.0,0.0,1.0,-2.04464821777,4.28083286062,-8.79150849609,1.0,0.0,0.0,0.0,1.0,0.0,0.0,0.0,1.0
1463577707660664060,789,1463577707383452616,,-21.5222244263,-8.75285339355,-146.223693848,0.010108999908,1.0,0.0,0.0,0.0,1.0,0.0,0.0,0.0,1.0,32.5,-5.91463422775,39.7560997009,1.0,0.0,0.0,0.0,1.0,0.0,0.0,0.0,1.0,-2.06380183105,4.14675698313,-8.70531723633,1.0,0.0,0.0,0.0,1.0,0.0,0.0,0.0,1.0
1463577707661049631,790,1463577707390440505,,-21.2463474274,-8.71364021301,-145.934356689,0.0100919995457,1.0,0.0,0.0,0.0,1.0,0.0,0.0,0.0,1.0,31.4634151459,-5.18292713165,41.6463432312,1.0,0.0,0.0,0.0,1.0,0.0,0.0,0.0,1.0,-1.96324536133,4.08929643555,-8.79150849609,1.0,0.0,0.0,0.0,1.0,0.0,0.0,0.0,1.0
1463577707661102860,791,1463577707401898532,,-20.9788894653,-8.65928840637,-145.629760742,0.0101150004193,1.0,0.0,0.0,0.0,1.0,0.0,0.0,0.0,1.0,31.7073192596,-4.39024400711,43.2926864624,1.0,0.0,0.0,0.0,1.0,0.0,0.0,0.0,1.0,-1.93930334473,4.2760444573,-8.90643017578,1.0,0.0,0.0,0.0,1.0,0.0,0.0,0.0,1.0
1463577707661462286,792,1463577707411815107,,-20.6802406311,-8.58360767365,-145.305526733,0.0106539996341,1.0,0.0,0.0,0.0,1.0,0.0,0.0,0.0,1.0,33.9634132385,-2.68292689323,44.1463432312,1.0,0.0,0.0,0.0,1.0,0.0,0.0,0.0,1.0,-1.96803376465,4.41969626465,-9.04050546875,1.0,0.0,0.0,0.0,1.0,0.0,0.0,0.0,1.0
1463577707661782701,793,1463577707421229757,,-20.3639831543,-8.49005413055,-145.006958008,0.00999899953604,1.0,0.0,0.0,0.0,1.0,0.0,0.0,0.0,1.0,37.1951255798,0.0609756112099,44.5731735229,1.0,0.0,0.0,0.0,1.0,0.0,0.0,0.0,1.0,-2.01591779785,4.34308181152,-9.10275471191,1.0,0.0,0.0,0.0,1.0,0.0,0.0,0.0,1.0
1463577707662074939,794,1463577707431662111,,-19.9860248566,-8.36543369293,-144.709228516,0.0104360003024,1.0,0.0,0.0,0.0,1.0,0.0,0.0,0.0,1.0,40.1219520569,3.04878044128,44.4512176514,1.0,0.0,0.0,0.0,1.0,0.0,0.0,0.0,1.0,-1.99676418457,4.04620080566,-9.21288798828,1.0,0.0,0.0,0.0,1.0,0.0,0.0,0.0,1.0
1463577707662292439,795,1463577707441663581,,-19.6128482819,-8.21957969666,-144.433166504,0.00995200034231,1.0,0.0,0.0,0.0,1.0,0.0,0.0,0.0,1.0,41.8292694092,5.67073154449,44.390247345,1.0,0.0,0.0,0.0,1.0,0.0,0.0,0.0,1.0,-1.8626888916,4.02704719238,-9.06444748535,1.0,0.0,0.0,0.0,1.0,0.0,0.0,0.0,1.0
1463577707662346345,796,1463577707451314949,,-19.2341327667,-8.06031036377,-144.166885376,0.00972700025886,1.0,0.0,0.0,0.0,1.0,0.0,0.0,0.0,1.0,42.7439041138,7.01219511032,44.4512176514,1.0,0.0,0.0,0.0,1.0,0.0,0.0,0.0,1.0,-1.70467158203,3.84987626953,-9.00219824219,1.0,0.0,0.0,0.0,1.0,0.0,0.0,0.0,1.0
1463577707662384730,797,1463577707461959490,,-18.8421363831,-7.89219474792,-143.901687622,0.00982700008899,1.0,0.0,0.0,0.0,1.0,0.0,0.0,0.0,1.0,43.0487823486,7.74390268326,44.2682914734,1.0,0.0,0.0,0.0,1.0,0.0,0.0,0.0,1.0,-1.64721074219,3.7493197998,-9.17458076172,1.0,0.0,0.0,0.0,1.0,0.0,0.0,0.0,1.0
1463577707662669937,798,1463577707471272890,,-18.4416065216,-7.72546195984,-143.635314941,0.0101079996675,1.0,0.0,0.0,0.0,1.0,0.0,0.0,0.0,1.0,43.9024391174,8.41463470459,43.5365867615,1.0,0.0,0.0,0.0,1.0,0.0,0.0,0.0,1.0,-1.75734401855,3.88339509277,-9.07402429199,1.0,0.0,0.0,0.0,1.0,0.0,0.0,0.0,1.0
1463577707662958269,799,1463577707481371391,,-18.035982132,-7.56658315659,-143.383010864,0.0100969998166,1.0,0.0,0.0,0.0,1.0,0.0,0.0,0.0,1.0,44.8780479431,9.08536529541,42.134147644,1.0,0.0,0.0,0.0,1.0,0.0,0.0,0.0,1.0,-1.9105729248,4.02704719238,-9.27034882812,1.0,0.0,0.0,0.0,1.0,0.0,0.0,0.0,1.0
1463577707663253893,800,1463577707491403747,,-17.6158218384,-7.40781879425,-143.143798828,0.0100910002366,1.0,0.0,0.0,0.0,1.0,0.0,0.0,0.0,1.0,47.7439041138,10.3048782349,40.8536605835,1.0,0.0,0.0,0.0,1.0,0.0,0.0,0.0,1.0,-2.03028300781,4.32871689382,-9.37569311665,1.0,0.0,0.0,0.0,1.0,0.0,0.0,0.0,1.0
1463577707663520871,801,1463577707502956826,,-17.0801830292,-7.20410394669,-142.897399902,0.0114280004054,1.0,0.0,0.0,0.0,1.0,0.0,0.0,0.0,1.0,51.4634170532,12.4390249252,39.3292694092,1.0,0.0,0.0,0.0,1.0,0.0,0.0,0.0,1.0,-1.89141931152,4.09887324219,-9.60074924175,1.0,0.0,0.0,0.0,1.0,0.0,0.0,0.0,1.0
1463577707663803058,802,1463577707512957775,,-16.6429233551,-7.02633905411,-142.714996338,0.00878100004047,1.0,0.0,0.0,0.0,1.0,0.0,0.0,0.0,1.0,54.634147644,14.0243902206,38.7804870605,1.0,0.0,0.0,0.0,1.0,0.0,0.0,0.0,1.0,-1.61369191895,4.06535441895,-9.58638403179,1.0,0.0,0.0,0.0,1.0,0.0,0.0,0.0,1.0
1463577707664346857,803,1463577707521887688,,-16.1025791168,-6.82278394699,-142.509262085,0.0101009998471,1.0,0.0,0.0,0.0,1.0,0.0,0.0,0.0,1.0,57.1951217651,14.5121955872,38.4756126404,1.0,0.0,0.0,0.0,1.0,0.0,0.0,0.0,1.0,-1.61848032227,3.76368500977,-9.56244201519,1.0,0.0,0.0,0.0,1.0,0.0,0.0,0.0,1.0
1463577707664398159,804,1463577707531872283,,-15.5384206772,-6.60741567612,-142.306976318,0.010106000118,1.0,0.0,0.0,0.0,1.0,0.0,0.0,0.0,1.0,58.3536605835,15.3658533096,38.2926864624,1.0,0.0,0.0,0.0,1.0,0.0,0.0,0.0,1.0,-1.43652099609,3.3949779541,-9.40921193989,1.0,0.0,0.0,0.0,1.0,0.0,0.0,0.0,1.0
1463577707664436076,805,1463577707551232518,,-14.9721517563,-6.39892911911,-142.093688965,0.0101070003584,1.0,0.0,0.0,0.0,1.0,0.0,0.0,0.0,1.0,58.9634132385,14.8780498505,39.0243911743,1.0,0.0,0.0,0.0,1.0,0.0,0.0,0.0,1.0,-1.41736738281,3.31836350098,-9.29907866352,1.0,0.0,0.0,0.0,1.0,0.0,0.0,0.0,1.0
1463577707664473940,806,1463577707557444889,,-14.3040657043,-6.15792942047,-141.840179443,0.0116630000994,1.0,0.0,0.0,0.0,1.0,0.0,0.0,0.0,1.0,59.6951255798,15.1219511032,39.5731735229,1.0,0.0,0.0,0.0,1.0,0.0,0.0,0.0,1.0,-1.42215578613,3.18428820801,-9.4954043687,1.0,0.0,0.0,0.0,1.0,0.0,0.0,0.0,1.0
1463577707664804408,807,1463577707562023673,,-13.8120355606,-5.98499727249,-141.654602051,0.00852200016379,1.0,0.0,0.0,0.0,1.0,0.0,0.0,0.0,1.0,60.4878044128,15.4878053665,39.4512214661,1.0,0.0,0.0,0.0,1.0,0.0,0.0,0.0,1.0,-1.4844050293,3.18428820801,-9.63426806499,1.0,0.0,0.0,0.0,1.0,0.0,0.0,0.0,1.0
1463577707664854772,808,1463577707572314830,,-13.2196102142,-5.77680683136,-141.438415527,0.0101070003584,1.0,0.0,0.0,0.0,1.0,0.0,0.0,0.0,1.0,62.8048782349,16.341463089,38.9024391174,1.0,0.0,0.0,0.0,1.0,0.0,0.0,0.0,1.0,-1.52271225586,3.45243879395,-9.81143840332,1.0,0.0,0.0,0.0,1.0,0.0,0.0,0.0,1.0
1463577707665177219,809,1463577707583793846,,-12.5102901459,-5.54071617126,-141.195297241,0.0115099996328,1.0,0.0,0.0,0.0,1.0,0.0,0.0,0.0,1.0,65.9756088257,17.0731716156,38.5365829468,1.0,0.0,0.0,0.0,1.0,0.0,0.0,0.0,1.0,-1.53707746582,3.31836350098,-9.60074924175,1.0,0.0,0.0,0.0,1.0,0.0,0.0,0.0,1.0
1463577707665485655,810,1463577707592482614,,-11.9465255737,-5.35194778442,-141.011032104,0.00873200036585,1.0,0.0,0.0,0.0,1.0,0.0,0.0,0.0,1.0,67.6829299927,17.7439022064,38.5365829468,1.0,0.0,0.0,0.0,1.0,0.0,0.0,0.0,1.0,-1.33117612305,2.90656081543,-9.41400034321,1.0,0.0,0.0,0.0,1.0,0.0,0.0,0.0,1.0
1463577707665776175,811,1463577707602468772,,-11.2998552322,-5.12484455109,-140.796325684,0.0100579997525,1.0,0.0,0.0,0.0,1.0,0.0,0.0,0.0,1.0,65.365852356,18.2317085266,38.8414649963,1.0,0.0,0.0,0.0,1.0,0.0,0.0,0.0,1.0,-1.14921679688,2.39420180629,-9.23204160156,1.0,0.0,0.0,0.0,1.0,0.0,0.0,0.0,1.0
1463577707666151642,812,1463577707615602938,,-10.6839151382,-4.88932991028,-140.571060181,0.0101300003007,1.0,0.0,0.0,0.0,1.0,0.0,0.0,0.0,1.0,60.2439041138,17.9268302917,39.5731735229,1.0,0.0,0.0,0.0,1.0,0.0,0.0,0.0,1.0,-0.928950244141,2.01591779785,-9.30386706685,1.0,0.0,0.0,0.0,1.0,0.0,0.0,0.0,1.0
1463577707666452734,813,1463577707622828586,,-10.1182689667,-4.65840959549,-140.34526062,0.0100769996643,1.0,0.0,0.0,0.0,1.0,0.0,0.0,0.0,1.0,56.4024429321,16.7682933807,39.2073173523,1.0,0.0,0.0,0.0,1.0,0.0,0.0,0.0,1.0,-0.703895288086,2.06859023437,-9.30865547017,1.0,0.0,0.0,0.0,1.0,0.0,0.0,0.0,1.0
1463577707666708827,814,1463577707632879171,,-9.5968170166,-4.45272636414,-140.110946655,0.0101079996675,1.0,0.0,0.0,0.0,1.0,0.0,0.0,0.0,1.0,51.5853691101,15.0609760284,39.5121955872,1.0,0.0,0.0,0.0,1.0,0.0,0.0,0.0,1.0,-0.790086547852,1.93930334473,-9.35653950337,1.0,0.0,0.0,0.0,1.0,0.0,0.0,0.0,1.0
1463577707669908919,815,1463577707643771940,,-9.11726951599,-4.26454782486,-139.877975464,0.0100969998166,1.0,0.0,0.0,0.0,1.0,0.0,0.0,0.0,1.0,47.7439041138,13.2317075729,38.9024391174,1.0,0.0,0.0,0.0,1.0,0.0,0.0,0.0,1.0,-0.699106884766,1.93930334473,-9.50498117534,1.0,0.0,0.0,0.0,1.0,0.0,0.0,0.0,1.0
1463577707670040376,816,1463577707653025132,,-8.67526912689,-4.09898138046,-139.652770996,0.0101039996371,1.0,0.0,0.0,0.0,1.0,0.0,0.0,0.0,1.0,44.2682914734,11.1585359573,37.6219520569,1.0,0.0,0.0,0.0,1.0,0.0,0.0,0.0,1.0,-0.646434448242,1.95845695801,-9.66299848491,1.0,0.0,0.0,0.0,1.0,0.0,0.0,0.0,1.0
1463577707710386309,817,1463577707663984828,,-8.22992420197,-3.93581199646,-139.420349121,0.0108639998361,1.0,0.0,0.0,0.0,1.0,0.0,0.0,0.0,1.0,43.5365867615,10.0,36.2804908752,1.0,0.0,0.0,0.0,1.0,0.0,0.0,0.0,1.0,-0.588973571866,2.24576115723,-9.57680722515,1.0,0.0,0.0,0.0,1.0,0.0,0.0,0.0,1.0
1463577707710679953,818,1463577707674460827,,-7.84627580643,-3.81283640862,-139.236251831,0.00942100025713,1.0,0.0,0.0,0.0,1.0,0.0,0.0,0.0,1.0,43.7195129395,8.96341514587,34.1463432312,1.0,0.0,0.0,0.0,1.0,0.0,0.0,0.0,1.0,-0.660799658203,2.33195227086,-9.79707319336,1.0,0.0,0.0,0.0,1.0,0.0,0.0,0.0,1.0
1463577707710729224,819,1463577707684863078,,-7.40348720551,-3.68990421295,-139.053329468,0.0103460000828,1.0,0.0,0.0,0.0,1.0,0.0,0.0,0.0,1.0,44.817073822,8.47560977936,32.1951217651,1.0,0.0,0.0,0.0,1.0,0.0,0.0,0.0,1.0,-0.679953271484,2.08774370153,-9.67736311035,1.0,0.0,0.0,0.0,1.0,0.0,0.0,0.0,1.0
1463577707711004744,820,1463577707693705907,,-6.96888446808,-3.57501220703,-138.894805908,0.00998600013554,1.0,0.0,0.0,0.0,1.0,0.0,0.0,0.0,1.0,44.4512176514,7.98780536652,30.3048782349,1.0,0.0,0.0,0.0,1.0,0.0,0.0,0.0,1.0,-0.584185168546,1.87705410156,-9.86889924316,1.0,0.0,0.0,0.0,1.0,0.0,0.0,0.0,1.0
1463577707738516092,821,1463577707703561961,,-6.56065177917,-3.46009230614,-138.750427246,0.00988799985498,1.0,0.0,0.0,0.0,1.0,0.0,0.0,0.0,1.0,42.1951255798,8.10975551605,28.9634151459,1.0,0.0,0.0,0.0,1.0,0.0,0.0,0.0,1.0,-0.502782348633,1.77170922852,-9.62947966167,1.0,0.0,0.0,0.0,1.0,0.0,0.0,0.0,1.0
1463577707738552134,822,1463577707713808795,,-6.17254447937,-3.36060452461,-138.612075806,0.0100919995457,1.0,0.0,0.0,0.0,1.0,0.0,0.0,0.0,1.0,39.817073822,7.13414621353,27.8658542633,1.0,0.0,0.0,0.0,1.0,0.0,0.0,0.0,1.0,-0.588973571866,1.8148048584,-9.73961235352,1.0,0.0,0.0,0.0,1.0,0.0,0.0,0.0,1.0
1463577707739880774,823,1463577707723916880,,-5.82127809525,-3.27143573761,-138.486984253,0.0100800003856,1.0,0.0,0.0,0.0,1.0,0.0,0.0,0.0,1.0,37.5609779358,6.89024400711,26.4024391174,1.0,0.0,0.0,0.0,1.0,0.0,0.0,0.0,1.0,-0.670376464844,2.02070620117,-9.80665,1.0,0.0,0.0,0.0,1.0,0.0,0.0,0.0,1.0
1463577707740122492,824,1463577707733992308,,-5.50446844101,-3.18899512291,-138.379608154,0.0101349996403,1.0,0.0,0.0,0.0,1.0,0.0,0.0,0.0,1.0,36.2195129395,6.09756088257,24.3292694092,1.0,0.0,0.0,0.0,1.0,0.0,0.0,0.0,1.0,-0.598550451572,2.40856701625,-9.8784760498,1.0,0.0,0.0,0.0,1.0,0.0,0.0,0.0,1.0
1463577707778073382,825,1463577707744489974,,-5.17143535614,-3.11694264412,-138.296203613,0.0105480002239,1.0,0.0,0.0,0.0,1.0,0.0,0.0,0.0,1.0,37.9268302917,4.81707286835,21.4024391174,1.0,0.0,0.0,0.0,1.0,0.0,0.0,0.0,1.0,-0.526724328702,2.62404501953,-9.81143840332,1.0,0.0,0.0,0.0,1.0,0.0,0.0,0.0,1.0
1463577707778111663,826,1463577707754136498,,-4.85236787796,-3.0624859333,-138.238189697,0.00964299961925,1.0,0.0,0.0,0.0,1.0,0.0,0.0,0.0,1.0,39.634147644,3.84146332741,19.3902435303,1.0,0.0,0.0,0.0,1.0,0.0,0.0,0.0,1.0,-0.521935925381,2.66714064941,-9.99339772949,1.0,0.0,0.0,0.0,1.0,0.0,0.0,0.0,1.0
1463577707778262756,827,1463577707767130196,,-4.3824763298,-3.01376652718,-138.179901123,0.0127459997311,1.0,0.0,0.0,0.0,1.0,0.0,0.0,0.0,1.0,40.1219520569,1.76829278469,17.9268302917,1.0,0.0,0.0,0.0,1.0,0.0,0.0,0.0,1.0,-0.440533105469,2.01591779785,-10.0556469727,1.0,0.0,0.0,0.0,1.0,0.0,0.0,0.0,1.0
1463577707778342756,828,1463577707775687402,,-4.12286329269,-2.99902582169,-138.149642944,0.00744199985638,1.0,0.0,0.0,0.0,1.0,0.0,0.0,0.0,1.0,38.4756126404,0.792682945728,17.317073822,1.0,0.0,0.0,0.0,1.0,0.0,0.0,0.0,1.0,-0.569819995117,1.97761057129,-9.95030209961,1.0,0.0,0.0,0.0,1.0,0.0,0.0,0.0,1.0
1463577707819697382,829,1463577707784401586,,-3.78825688362,-2.98291730881,-138.110443115,0.0101319998503,1.0,0.0,0.0,0.0,1.0,0.0,0.0,0.0,1.0,37.6219520569,0.18292683363,17.0121955872,1.0,0.0,0.0,0.0,1.0,0.0,0.0,0.0,1.0,-0.521935925381,2.12126281703,-9.96466730957,1.0,0.0,0.0,0.0,1.0,0.0,0.0,0.0,1.0
1463577707819972798,830,1463577707795796801,,-3.47060060501,-2.97695684433,-138.076644897,0.010098000057,1.0,0.0,0.0,0.0,1.0,0.0,0.0,0.0,1.0,36.3414611816,0.0,16.4634151459,1.0,0.0,0.0,0.0,1.0,0.0,0.0,0.0,1.0,-0.665588061523,2.14999323695,-10.1083194092,1.0,0.0,0.0,0.0,1.0,0.0,0.0,0.0,1.0
1463577707820375400,831,1463577707804459891,,-3.14830613136,-2.9636797905,-138.045196533,0.0100800003856,1.0,0.0,0.0,0.0,1.0,0.0,0.0,0.0,1.0,36.8292694092,0.853658556938,16.2804889679,1.0,0.0,0.0,0.0,1.0,0.0,0.0,0.0,1.0,-0.675164868164,2.06859023437,-10.0125513428,1.0,0.0,0.0,0.0,1.0,0.0,0.0,0.0,1.0
1463577707820760347,832,1463577707816318802,,-2.85416913033,-2.95687198639,-137.997360229,0.0107289999723,1.0,0.0,0.0,0.0,1.0,0.0,0.0,0.0,1.0,37.0121955872,1.15853655338,17.3780498505,1.0,0.0,0.0,0.0,1.0,0.0,0.0,0.0,1.0,-0.866701000977,2.90177241211,-9.99818613281,1.0,0.0,0.0,0.0,1.0,0.0,0.0,0.0,1.0
1463577707829100417,833,1463577707826762718,,-2.53660726547,-2.9352915287,-137.965530396,0.00951899960637,1.0,0.0,0.0,0.0,1.0,0.0,0.0,0.0,1.0,39.7560997009,0.914634168148,16.4024391174,1.0,0.0,0.0,0.0,1.0,0.0,0.0,0.0,1.0,-0.517147558594,2.28885678711,-10.2328178955,1.0,0.0,0.0,0.0,1.0,0.0,0.0,0.0,1.0
1463577707840171102,834,1463577707836874761,,-2.15688514709,-2.91137766838,-137.92805481,0.0104780001566,1.0,0.0,0.0,0.0,1.0,0.0,0.0,0.0,1.0,43.5975608826,1.09756100178,16.5853652954,1.0,0.0,0.0,0.0,1.0,0.0,0.0,0.0,1.0,-0.531512805087,2.3654710941,-10.0317049561,1.0,0.0,0.0,0.0,1.0,0.0,0.0,0.0,1.0
1463577707847352740,835,1463577707844928010,,-1.77802836895,-2.88164162636,-137.891326904,0.00969300046563,1.0,0.0,0.0,0.0,1.0,0.0,0.0,0.0,1.0,45.7317085266,1.34146344662,16.8292694092,1.0,0.0,0.0,0.0,1.0,0.0,0.0,0.0,1.0,-0.426167895508,2.15957004359,-10.0412817627,1.0,0.0,0.0,0.0,1.0,0.0,0.0,0.0,1.0
1463577707860512479,836,1463577707858333946,,-1.3024597168,-2.85462617874,-137.847579956,0.0111109996215,1.0,0.0,0.0,0.0,1.0,0.0,0.0,0.0,1.0,47.2560958862,1.2195122242,17.0731716156,1.0,0.0,0.0,0.0,1.0,0.0,0.0,0.0,1.0,-0.512359155273,1.69030637207,-10.0939541992,1.0,0.0,0.0,0.0,1.0,0.0,0.0,0.0,1.0
1463577707869354215,837,1463577707865838083,,-0.895322263241,-2.84006142616,-137.804168701,0.00939400028437,1.0,0.0,0.0,0.0,1.0,0.0,0.0,0.0,1.0,47.6219520569,0.914634168148,17.7439022064,1.0,0.0,0.0,0.0,1.0,0.0,0.0,0.0,1.0,-0.60812722168,1.56580788574,-10.0891657959,1.0,0.0,0.0,0.0,1.0,0.0,0.0,0.0,1.0
1463577707893999845,838,1463577707878255012,,-0.438460618258,-2.82005381584,-137.762084961,0.010542999953,1.0,0.0,0.0,0.0,1.0,0.0,0.0,0.0,1.0,46.8902435303,0.731707334518,17.134147644,1.0,0.0,0.0,0.0,1.0,0.0,0.0,0.0,1.0,-0.507570751953,1.37906015625,-10.1992990723,1.0,0.0,0.0,0.0,1.0,0.0,0.0,0.0,1.0
1463577707894459114,839,1463577707888005078,,-0.0254580881447,-2.79373335838,-137.724365234,0.00949199963361,1.0,0.0,0.0,0.0,1.0,0.0,0.0,0.0,1.0,46.4634170532,1.03658533096,17.134147644,1.0,0.0,0.0,0.0,1.0,0.0,0.0,0.0,1.0,-0.392649072266,1.17794714373,-10.1418382324,1.0,0.0,0.0,0.0,1.0,0.0,0.0,0.0,1.0
1463577707902840227,840,1463577707895533329,,0.398200958967,-2.77880883217,-137.689941406,0.00996899977326,1.0,0.0,0.0,0.0,1.0,0.0,0.0,0.0,1.0,45.8536605835,0.609756112099,16.5853652954,1.0,0.0,0.0,0.0,1.0,0.0,0.0,0.0,1.0,-0.536301208408,1.18273554705,-10.1418382324,1.0,0.0,0.0,0.0,1.0,0.0,0.0,0.0,1.0
1463577707909898167,841,1463577707907135314,,0.834312260151,-2.76377344131,-137.654968262,0.0103059997782,1.0,0.0,0.0,0.0,1.0,0.0,0.0,0.0,1.0,45.4878082275,0.853658556938,16.5243911743,1.0,0.0,0.0,0.0,1.0,0.0,0.0,0.0,1.0,-0.579396801758,1.07260241682,-10.1322614258,1.0,0.0,0.0,0.0,1.0,0.0,0.0,0.0,1.0
1463577707928827987,842,1463577707919987450,,1.31656420231,-2.73678994179,-137.624389648,0.0113789997995,1.0,0.0,0.0,0.0,1.0,0.0,0.0,0.0,1.0,46.8292694092,1.46341466904,15.7317075729,1.0,0.0,0.0,0.0,1.0,0.0,0.0,0.0,1.0,-0.512359155273,1.21625444336,-9.98860932617,1.0,0.0,0.0,0.0,1.0,0.0,0.0,0.0,1.0
1463577707931302509,843,1463577707928640384,,1.69809496403,-2.73286485672,-137.602966309,0.00860000029206,1.0,0.0,0.0,0.0,1.0,0.0,0.0,0.0,1.0,48.6585388184,0.853658556938,15.548781395,1.0,0.0,0.0,0.0,1.0,0.0,0.0,0.0,1.0,-0.737414111328,1.10612116699,-9.98860932617,1.0,0.0,0.0,0.0,1.0,0.0,0.0,0.0,1.0
1463577707940455701,844,1463577707937422276,,2.2371237278,-2.68618488312,-137.579971313,0.0114339999855,1.0,0.0,0.0,0.0,1.0,0.0,0.0,0.0,1.0,49.3292694092,3.53658556938,15.0609760284,1.0,0.0,0.0,0.0,1.0,0.0,0.0,0.0,1.0,-0.569819995117,0.665588061523,-10.0221281494,1.0,0.0,0.0,0.0,1.0,0.0,0.0,0.0,1.0
1463577707959317084,845,1463577707948007963,,2.67278027534,-2.65207242966,-137.561080933,0.0093339998275,1.0,0.0,0.0,0.0,1.0,0.0,0.0,0.0,1.0,48.4146347046,3.59756112099,15.0609760284,1.0,0.0,0.0,0.0,1.0,0.0,0.0,0.0,1.0,-0.641646044922,0.488417138672,-9.95987890625,1.0,0.0,0.0,0.0,1.0,0.0,0.0,0.0,1.0
1463577707968909494,846,1463577707959224064,,3.20994853973,-2.57529473305,-137.543685913,0.0112479999661,1.0,0.0,0.0,0.0,1.0,0.0,0.0,0.0,1.0,47.7439041138,5.79268312454,14.5121955872,1.0,0.0,0.0,0.0,1.0,0.0,0.0,0.0,1.0,-0.46447512207,0.105344873047,-9.94072529297,1.0,0.0,0.0,0.0,1.0,0.0,0.0,0.0,1.0
1463577708020466058,847,1463577707967888508,,3.60824227333,-2.50295305252,-137.530944824,0.00870699994266,1.0,0.0,0.0,0.0,1.0,0.0,0.0,0.0,1.0,46.0365867615,6.34146356583,14.3292694092,1.0,0.0,0.0,0.0,1.0,0.0,0.0,0.0,1.0,-0.292092584273,0.067037651051,-10.1322614258,1.0,0.0,0.0,0.0,1.0,0.0,0.0,0.0,1.0
1463577708020742776,848,1463577707976312068,,4.04959535599,-2.41762876511,-137.527633667,0.00979300029576,1.0,0.0,0.0,0.0,1.0,0.0,0.0,0.0,1.0,44.0243911743,7.01219511032,13.1707324982,1.0,0.0,0.0,0.0,1.0,0.0,0.0,0.0,1.0,-0.339976635742,-0.234631762695,-10.1514150391,1.0,0.0,0.0,0.0,1.0,0.0,0.0,0.0,1.0
1463577708020993921,849,1463577707986470778,,4.47184467316,-2.32529306412,-137.524688721,0.0101199997589,1.0,0.0,0.0,0.0,1.0,0.0,0.0,0.0,1.0,41.2195129395,6.89024400711,13.048781395,1.0,0.0,0.0,0.0,1.0,0.0,0.0,0.0,1.0,-0.229843359375,-0.215478149414,-10.1322614258,1.0,0.0,0.0,0.0,1.0,0.0,0.0,0.0,1.0
1463577708021497096,850,1463577707996545685,,4.86125612259,-2.22297167778,-137.537399292,0.0100769996643,1.0,0.0,0.0,0.0,1.0,0.0,0.0,0.0,1.0,40.4268302917,6.21951246262,11.4024391174,1.0,0.0,0.0,0.0,1.0,0.0,0.0,0.0,1.0,0.067037651051,0.129286889648,-9.98382092285,1.0,0.0,0.0,0.0,1.0,0.0,0.0,0.0,1.0
1463577708021798345,851,1463577708006685853,,5.24495124817,-2.12936139107,-137.556442261,0.0101469997317,1.0,0.0,0.0,0.0,1.0,0.0,0.0,0.0,1.0,39.634147644,7.13414621353,10.6707315445,1.0,0.0,0.0,0.0,1.0,0.0,0.0,0.0,1.0,-0.253785375977,0.0718260498047,-10.0364933594,1.0,0.0,0.0,0.0,1.0,0.0,0.0,0.0,1.0
1463577708022231312,852,1463577708017175186,,5.63304662704,-2.06072187424,-137.580093384,0.0101319998503,1.0,0.0,0.0,0.0,1.0,0.0,0.0,0.0,1.0,40.6707344055,6.7682929039,10.1829271317,1.0,0.0,0.0,0.0,1.0,0.0,0.0,0.0,1.0,-0.61770402832,0.105344873047,-10.0317049561,1.0,0.0,0.0,0.0,1.0,0.0,0.0,0.0,1.0
1463577708036765003,853,1463577708027201656,,6.02122592926,-1.98483073711,-137.604446411,0.0100440001115,1.0,0.0,0.0,0.0,1.0,0.0,0.0,0.0,1.0,42.682926178,7.19512224197,9.93902492523,1.0,0.0,0.0,0.0,1.0,0.0,0.0,0.0,1.0,-0.541089611728,0.330399829102,-9.89284125977,1.0,0.0,0.0,0.0,1.0,0.0,0.0,0.0,1.0
1463577708122453515,854,1463577708037073492,,6.4474439621,-1.90818548203,-137.634780884,0.0101070003584,1.0,0.0,0.0,0.0,1.0,0.0,0.0,0.0,1.0,45.6707344055,8.35365867615,9.20731735229,1.0,0.0,0.0,0.0,1.0,0.0,0.0,0.0,1.0,-0.742202514648,0.172382519531,-9.88805285645,1.0,0.0,0.0,0.0,1.0,0.0,0.0,0.0,1.0
1463577708122730649,855,1463577708047109650,,6.87684869766,-1.81073486805,-137.661087036,0.0100899999961,1.0,0.0,0.0,0.0,1.0,0.0,0.0,0.0,1.0,45.8536605835,9.08536529541,9.45121955872,1.0,0.0,0.0,0.0,1.0,0.0,0.0,0.0,1.0,-0.493205541992,0.0574608398438,-9.91678327637,1.0,0.0,0.0,0.0,1.0,0.0,0.0,0.0,1.0
1463577708122997992,856,1463577708057356796,,7.33021259308,-1.69831633568,-137.69102478,0.0100990002975,1.0,0.0,0.0,0.0,1.0,0.0,0.0,0.0,1.0,45.9756088257,9.63414573669,9.02439117432,1.0,0.0,0.0,0.0,1.0,0.0,0.0,0.0,1.0,-0.335188232422,-0.416591088867,-10.1370498291,1.0,0.0,0.0,0.0,1.0,0.0,0.0,0.0,1.0
1463577708123258564,857,1463577708067392329,,7.76330471039,-1.58409905434,-137.722595215,0.0101250000298,1.0,0.0,0.0,0.0,1.0,0.0,0.0,0.0,1.0,45.0,8.96341514587,8.84146404266,1.0,0.0,0.0,0.0,1.0,0.0,0.0,0.0,1.0,-0.177170922852,-0.292092584273,-10.1226846191,1.0,0.0,0.0,0.0,1.0,0.0,0.0,0.0,1.0
1463577708123510334,858,1463577708077404893,,8.20303821564,-1.45560979843,-137.747711182,0.0100739998743,1.0,0.0,0.0,0.0,1.0,0.0,0.0,0.0,1.0,44.9390258789,9.63414573669,9.32926845551,1.0,0.0,0.0,0.0,1.0,0.0,0.0,0.0,1.0,-0.00478840332031,-0.536301208408,-10.0221281494,1.0,0.0,0.0,0.0,1.0,0.0,0.0,0.0,1.0
1463577708123857572,859,1463577708087454592,,8.6244020462,-1.3390917778,-137.761398315,0.0100969998166,1.0,0.0,0.0,0.0,1.0,0.0,0.0,0.0,1.0,44.7560997009,9.14634132385,10.4268293381,1.0,0.0,0.0,0.0,1.0,0.0,0.0,0.0,1.0,-0.0861912597656,-0.31124621582,-10.0412817627,1.0,0.0,0.0,0.0,1.0,0.0,0.0,0.0,1.0
1463577708123916061,860,1463577708097736166,,9.07521247864,-1.2215681076,-137.774276733,0.0100999996066,1.0,0.0,0.0,0.0,1.0,0.0,0.0,0.0,1.0,46.9512214661,7.74390268326,10.6707315445,1.0,0.0,0.0,0.0,1.0,0.0,0.0,0.0,1.0,0.201112939453,-0.512359155273,-10.0269165527,1.0,0.0,0.0,0.0,1.0,0.0,0.0,0.0,1.0
1463577708124169081,861,1463577708107944823,,9.57430362701,-1.06295001507,-137.831817627,0.0101380003616,1.0,0.0,0.0,0.0,1.0,0.0,0.0,0.0,1.0,52.7439041138,7.56097555161,6.15853643417,1.0,0.0,0.0,0.0,1.0,0.0,0.0,0.0,1.0,0.804451757813,-0.344765039063,-9.63905646831,1.0,0.0,0.0,0.0,1.0,0.0,0.0,0.0,1.0
1463577708222487802,862,1463577708118220459,,10.1004934311,-0.961408317089,-137.881607056,0.0101129999384,1.0,0.0,0.0,0.0,1.0,0.0,0.0,0.0,1.0,53.5975608826,5.48780488968,7.25609779358,1.0,0.0,0.0,0.0,1.0,0.0,0.0,0.0,1.0,0.258573779297,-0.823605371094,-10.2567599121,1.0,0.0,0.0,0.0,1.0,0.0,0.0,0.0,1.0
1463577708222770978,863,1463577708128219221,,10.6132459641,-0.870747745037,-137.936767578,0.0100419996306,1.0,0.0,0.0,0.0,1.0,0.0,0.0,0.0,1.0,54.3292694092,2.5,7.13414621353,1.0,0.0,0.0,0.0,1.0,0.0,0.0,0.0,1.0,0.603338854892,-0.593762048251,-10.060435376,1.0,0.0,0.0,0.0,1.0,0.0,0.0,0.0,1.0
1463577708223130300,864,1463577708138155796,,11.1194000244,-0.804071545601,-138.021270752,0.0101070003584,1.0,0.0,0.0,0.0,1.0,0.0,0.0,0.0,1.0,53.8414649963,0.18292683363,4.63414621353,1.0,0.0,0.0,0.0,1.0,0.0,0.0,0.0,1.0,0.493205541992,-0.584185168546,-9.95987890625,1.0,0.0,0.0,0.0,1.0,0.0,0.0,0.0,1.0
1463577708223419986,865,1463577708148241120,,11.663895607,-0.756459891796,-138.103530884,0.0101020000875,1.0,0.0,0.0,0.0,1.0,0.0,0.0,0.0,1.0,56.0365867615,-0.792682945728,5.06097555161,1.0,0.0,0.0,0.0,1.0,0.0,0.0,0.0,1.0,0.335188232422,-0.943315454102,-9.7348239502,1.0,0.0,0.0,0.0,1.0,0.0,0.0,0.0,1.0
1463577708223692485,866,1463577708158379882,,12.2133150101,-0.729465961456,-138.205734253,0.0100969998166,1.0,0.0,0.0,0.0,1.0,0.0,0.0,0.0,1.0,57.6219482422,-1.76829278469,3.23170733452,1.0,0.0,0.0,0.0,1.0,0.0,0.0,0.0,1.0,0.076614453125,-0.847547387695,-9.7348239502,1.0,0.0,0.0,0.0,1.0,0.0,0.0,0.0,1.0
1463577708223953213,867,1463577708168507029,,12.7819738388,-0.72989076376,-138.301605225,0.0101129999384,1.0,0.0,0.0,0.0,1.0,0.0,0.0,0.0,1.0,59.1463394165,-1.8292683363,3.90243911743,1.0,0.0,0.0,0.0,1.0,0.0,0.0,0.0,1.0,-0.368707055664,-0.991199487305,-9.70130512695,1.0,0.0,0.0,0.0,1.0,0.0,0.0,0.0,1.0
