%time,field.header.seq,field.header.stamp,field.header.frame_id,field.orientation.x,field.orientation.y,field.orientation.z,field.orientation.w,field.orientation_covariance0,field.orientation_covariance1,field.orientation_covariance2,field.orientation_covariance3,field.orientation_covariance4,field.orientation_covariance5,field.orientation_covariance6,field.orientation_covariance7,field.orientation_covariance8,field.angular_velocity.x,field.angular_velocity.y,field.angular_velocity.z,field.angular_velocity_covariance0,field.angular_velocity_covariance1,field.angular_velocity_covariance2,field.angular_velocity_covariance3,field.angular_velocity_covariance4,field.angular_velocity_covariance5,field.angular_velocity_covariance6,field.angular_velocity_covariance7,field.angular_velocity_covariance8,field.linear_acceleration.x,field.linear_acceleration.y,field.linear_acceleration.z,field.linear_acceleration_covariance0,field.linear_acceleration_covariance1,field.linear_acceleration_covariance2,field.linear_acceleration_covariance3,field.linear_acceleration_covariance4,field.linear_acceleration_covariance5,field.linear_acceleration_covariance6,field.linear_acceleration_covariance7,field.linear_acceleration_covariance8
1463081038908827243,391,1463081038809944154,,-3.46306180954,-24.8855857849,-42.1624336243,0.0100050000474,1.0,0.0,0.0,0.0,1.0,0.0,0.0,0.0,1.0,-35.0609741211,-19.8780498505,-49.207321167,1.0,0.0,0.0,0.0,1.0,0.0,0.0,0.0,1.0,-5.50666381836,-0.746990917969,-13.737929126,1.0,0.0,0.0,0.0,1.0,0.0,0.0,0.0,1.0
1463081038908864795,392,1463081038816746537,,-3.45184493065,-25.024936676,-42.6862220764,0.0100159998983,1.0,0.0,0.0,0.0,1.0,0.0,0.0,0.0,1.0,-36.6463432312,-14.2073173523,-50.7317085266,1.0,0.0,0.0,0.0,1.0,0.0,0.0,0.0,1.0,-5.92804331055,-0.292092584273,-13.9294652588,1.0,0.0,0.0,0.0,1.0,0.0,0.0,0.0,1.0
1463081038908966461,393,1463081038826123133,,-3.46537995338,-25.0894374847,-43.2243804932,0.0099849998951,1.0,0.0,0.0,0.0,1.0,0.0,0.0,0.0,1.0,-38.9634132385,-6.21951246262,-52.0731697083,1.0,0.0,0.0,0.0,1.0,0.0,0.0,0.0,1.0,-6.32069238281,-0.0287304199219,-14.4322476074,1.0,0.0,0.0,0.0,1.0,0.0,0.0,0.0,1.0
1463081038909025159,394,1463081038836534936,,-3.46014332771,-25.0321750641,-43.8008346558,0.0100130001083,1.0,0.0,0.0,0.0,1.0,0.0,0.0,0.0,1.0,-39.3292694092,4.81707286835,-54.390247345,1.0,0.0,0.0,0.0,1.0,0.0,0.0,0.0,1.0,-5.99508095703,-0.229843359375,-14.575899707,1.0,0.0,0.0,0.0,1.0,0.0,0.0,0.0,1.0
1463081038909066617,395,1463081038846529187,,-3.43982958794,-24.8689022064,-44.4148330688,0.00998200010508,1.0,0.0,0.0,0.0,1.0,0.0,0.0,0.0,1.0,-40.0609741211,12.8658542633,-57.1951217651,1.0,0.0,0.0,0.0,1.0,0.0,0.0,0.0,1.0,-5.14753356934,-0.416591088867,-14.5663229004,1.0,0.0,0.0,0.0,1.0,0.0,0.0,0.0,1.0
1463081038909139846,396,1463081038856687448,,-3.46629071236,-24.6020736694,-45.0358428955,0.0102159995586,1.0,0.0,0.0,0.0,1.0,0.0,0.0,0.0,1.0,-42.0731697083,16.8292694092,-57.3780479431,1.0,0.0,0.0,0.0,1.0,0.0,0.0,0.0,1.0,-3.34230551758,0.225054956055,-14.0252333252,1.0,0.0,0.0,0.0,1.0,0.0,0.0,0.0,1.0
1463081038909183596,397,1463081038866995137,,-3.50733065605,-24.3071308136,-45.6041069031,0.00980500038713,1.0,0.0,0.0,0.0,1.0,0.0,0.0,0.0,1.0,-42.3780517578,17.317073822,-54.817073822,1.0,0.0,0.0,0.0,1.0,0.0,0.0,0.0,1.0,-2.19787712402,0.181959326172,-12.9382657715,1.0,0.0,0.0,0.0,1.0,0.0,0.0,0.0,1.0
1463081038909243231,398,1463081038876684545,,-3.56196546555,-24.00182724,-46.1815261841,0.0102009996772,1.0,0.0,0.0,0.0,1.0,0.0,0.0,0.0,1.0,-43.4146347046,14.8780498505,-53.5365867615,1.0,0.0,0.0,0.0,1.0,0.0,0.0,0.0,1.0,-1.53707746582,0.0191536132812,-12.6030775391,1.0,0.0,0.0,0.0,1.0,0.0,0.0,0.0,1.0
1463081038909338335,399,1463081038886487442,,-3.6259086132,-23.7559585571,-46.6935768127,0.00977199990302,1.0,0.0,0.0,0.0,1.0,0.0,0.0,0.0,1.0,-42.682926178,9.69512176514,-50.1219520569,1.0,0.0,0.0,0.0,1.0,0.0,0.0,0.0,1.0,-1.28808049316,0.0239420166016,-11.4634375488,1.0,0.0,0.0,0.0,1.0,0.0,0.0,0.0,1.0
1463081038909385367,400,1463081038896367371,,-3.68239545822,-23.5452423096,-47.1999969482,0.0100050000474,1.0,0.0,0.0,0.0,1.0,0.0,0.0,0.0,1.0,-44.9390258789,7.92682981491,-46.8902435303,1.0,0.0,0.0,0.0,1.0,0.0,0.0,0.0,1.0,-1.6041151123,-0.809240161133,-10.553640918,1.0,0.0,0.0,0.0,1.0,0.0,0.0,0.0,1.0
1463081038909434950,401,1463081038906305112,,-3.78153181076,-23.4163341522,-47.6679039001,0.0100050000474,1.0,0.0,0.0,0.0,1.0,0.0,0.0,0.0,1.0,-48.9634170532,5.30487823486,-42.9878044128,1.0,0.0,0.0,0.0,1.0,0.0,0.0,0.0,1.0,-2.56658417969,-1.07739082014,-10.0412817627,1.0,0.0,0.0,0.0,1.0,0.0,0.0,0.0,1.0
1463081038925554762,402,1463081038916311447,,-3.94845819473,-23.2923984528,-48.1102638245,0.00999199971557,1.0,0.0,0.0,0.0,1.0,0.0,0.0,0.0,1.0,-54.207321167,9.51219558716,-40.6707344055,1.0,0.0,0.0,0.0,1.0,0.0,0.0,0.0,1.0,-3.26090266113,-0.943315454102,-9.43315395649,1.0,0.0,0.0,0.0,1.0,0.0,0.0,0.0,1.0
1463081038928435017,403,1463081038927223353,,-4.2006983757,-23.1629562378,-48.5189361572,0.0100279999897,1.0,0.0,0.0,0.0,1.0,0.0,0.0,0.0,1.0,-57.8048820496,14.2073173523,-38.5975608826,1.0,0.0,0.0,0.0,1.0,0.0,0.0,0.0,1.0,-4.02704719238,-0.282515795898,-9.35175110005,1.0,0.0,0.0,0.0,1.0,0.0,0.0,0.0,1.0
1463081038937474166,404,1463081038936040471,,-4.47301864624,-22.9922294617,-48.9290924072,0.00997000001371,1.0,0.0,0.0,0.0,1.0,0.0,0.0,0.0,1.0,-57.134147644,20.7926826477,-39.6951217651,1.0,0.0,0.0,0.0,1.0,0.0,0.0,0.0,1.0,-4.39575424805,0.316034619141,-9.2655604248,1.0,0.0,0.0,0.0,1.0,0.0,0.0,0.0,1.0
1463081038947668365,405,1463081038946169097,,-4.69483566284,-22.7731571198,-49.3666572571,0.00998300034553,1.0,0.0,0.0,0.0,1.0,0.0,0.0,0.0,1.0,-52.5,26.4634151459,-41.8902435303,1.0,0.0,0.0,0.0,1.0,0.0,0.0,0.0,1.0,-4.61602080078,0.46447512207,-9.58159562847,1.0,0.0,0.0,0.0,1.0,0.0,0.0,0.0,1.0
1463081038961588702,406,1463081038956160067,,-4.88028383255,-22.4945812225,-49.846282959,0.0100039998069,1.0,0.0,0.0,0.0,1.0,0.0,0.0,0.0,1.0,-47.9268302917,33.8414649963,-46.0365867615,1.0,0.0,0.0,0.0,1.0,0.0,0.0,0.0,1.0,-4.8793829834,0.991199487305,-9.7587659668,1.0,0.0,0.0,0.0,1.0,0.0,0.0,0.0,1.0
1463081038968155304,407,1463081038966284110,,-5.00072813034,-22.14427948,-50.3660774231,0.0100269997492,1.0,0.0,0.0,0.0,1.0,0.0,0.0,0.0,1.0,-43.4756126404,41.2195129395,-48.6585388184,1.0,0.0,0.0,0.0,1.0,0.0,0.0,0.0,1.0,-5.26724365234,0.928950244141,-10.7212350342,1.0,0.0,0.0,0.0,1.0,0.0,0.0,0.0,1.0
1463081038977751119,408,1463081038976054247,,-5.02987480164,-21.7344856262,-50.9319877625,0.00996899977326,1.0,0.0,0.0,0.0,1.0,0.0,0.0,0.0,1.0,-37.317073822,47.317073822,-52.1951255798,1.0,0.0,0.0,0.0,1.0,0.0,0.0,0.0,1.0,-5.11401474609,0.636857641602,-10.8313683105,1.0,0.0,0.0,0.0,1.0,0.0,0.0,0.0,1.0
1463081038987731203,409,1463081038986088655,,-4.99441146851,-21.2533035278,-51.5593643188,0.00999899953604,1.0,0.0,0.0,0.0,1.0,0.0,0.0,0.0,1.0,-32.5,53.5975608826,-57.4390220642,1.0,0.0,0.0,0.0,1.0,0.0,0.0,0.0,1.0,-4.87459458008,0.694318481445,-11.1426145264,1.0,0.0,0.0,0.0,1.0,0.0,0.0,0.0,1.0
1463081038997656497,410,1463081038996086135,,-4.87458515167,-20.7013530731,-52.2402915955,0.00999800022691,1.0,0.0,0.0,0.0,1.0,0.0,0.0,0.0,1.0,-27.317073822,59.8170700073,-61.4634132385,1.0,0.0,0.0,0.0,1.0,0.0,0.0,0.0,1.0,-4.61602080078,0.272938989258,-11.4825911621,1.0,0.0,0.0,0.0,1.0,0.0,0.0,0.0,1.0
1463081039007773925,411,1463081039006198355,,-4.69771766663,-20.0934333801,-52.9640655518,0.0100339995697,1.0,0.0,0.0,0.0,1.0,0.0,0.0,0.0,1.0,-24.2682933807,63.7804908752,-64.634147644,1.0,0.0,0.0,0.0,1.0,0.0,0.0,0.0,1.0,-4.11323845215,-0.162805712891,-11.4682259521,1.0,0.0,0.0,0.0,1.0,0.0,0.0,0.0,1.0
1463081039017800676,412,1463081039016046409,,-4.53256845474,-19.427898407,-53.6918373108,0.00997000001371,1.0,0.0,0.0,0.0,1.0,0.0,0.0,0.0,1.0,-24.5121955872,65.3048782349,-65.9756088257,1.0,0.0,0.0,0.0,1.0,0.0,0.0,0.0,1.0,-2.93529123535,-0.0814028564453,-11.3389390625,1.0,0.0,0.0,0.0,1.0,0.0,0.0,0.0,1.0
1463081039027860032,413,1463081039026115452,,-4.38462686539,-18.7512378693,-54.391620636,0.00999999977648,1.0,0.0,0.0,0.0,1.0,0.0,0.0,0.0,1.0,-26.0365848541,63.4146385193,-63.2317123413,1.0,0.0,0.0,0.0,1.0,0.0,0.0,0.0,1.0,-2.14041643031,-0.407014282227,-10.6494089844,1.0,0.0,0.0,0.0,1.0,0.0,0.0,0.0,1.0
1463081039042412347,414,1463081039037257722,,-4.2750005722,-18.0812911987,-55.0357971191,0.0100109996274,1.0,0.0,0.0,0.0,1.0,0.0,0.0,0.0,1.0,-28.9634151459,60.1219520569,-58.0487823486,1.0,0.0,0.0,0.0,1.0,0.0,0.0,0.0,1.0,-1.52271225586,-0.713472094727,-10.0939541992,1.0,0.0,0.0,0.0,1.0,0.0,0.0,0.0,1.0
1463081039049923895,415,1463081039047266400,,-4.20556592941,-17.4168014526,-55.6599006653,0.0103489998728,1.0,0.0,0.0,0.0,1.0,0.0,0.0,0.0,1.0,-32.9268302917,56.6463394165,-54.3292694092,1.0,0.0,0.0,0.0,1.0,0.0,0.0,0.0,1.0,-1.25935007324,-1.00077629395,-9.65342167827,1.0,0.0,0.0,0.0,1.0,0.0,0.0,0.0,1.0
1463081039058046483,416,1463081039056387580,,-4.20326042175,-16.8362102509,-56.1801757812,0.00966299977154,1.0,0.0,0.0,0.0,1.0,0.0,0.0,0.0,1.0,-36.2195129395,52.1951255798,-49.0243911743,1.0,0.0,0.0,0.0,1.0,0.0,0.0,0.0,1.0,-1.13006318359,-0.852335791016,-9.30865547017,1.0,0.0,0.0,0.0,1.0,0.0,0.0,0.0,1.0
1463081039068765160,417,1463081039066198863,,-4.25781106949,-16.2916851044,-56.6671714783,0.00997900031507,1.0,0.0,0.0,0.0,1.0,0.0,0.0,0.0,1.0,-39.817073822,47.5,-44.817073822,1.0,0.0,0.0,0.0,1.0,0.0,0.0,0.0,1.0,-1.1875240965,-0.790086547852,-8.98783303223,1.0,0.0,0.0,0.0,1.0,0.0,0.0,0.0,1.0
1463081039077895924,418,1463081039076246187,,-4.34067201614,-15.7842082977,-57.1145248413,0.00999800022691,1.0,0.0,0.0,0.0,1.0,0.0,0.0,0.0,1.0,-41.4634170532,44.0853652954,-41.2195129395,1.0,0.0,0.0,0.0,1.0,0.0,0.0,0.0,1.0,-1.12527478027,-0.790086547852,-8.42758925923,1.0,0.0,0.0,0.0,1.0,0.0,0.0,0.0,1.0
1463081039088116060,419,1463081039086381220,,-4.4757642746,-15.3287067413,-57.5187263489,0.0100020002574,1.0,0.0,0.0,0.0,1.0,0.0,0.0,0.0,1.0,-40.8536605835,40.4878044128,-38.6585388184,1.0,0.0,0.0,0.0,1.0,0.0,0.0,0.0,1.0,-1.30723410645,-0.0957680664062,-8.23605371094,1.0,0.0,0.0,0.0,1.0,0.0,0.0,0.0,1.0
1463081039098769477,420,1463081039096317294,,-4.59604692459,-14.9078435898,-57.9017028809,0.00997599959373,1.0,0.0,0.0,0.0,1.0,0.0,0.0,0.0,1.0,-39.2073173523,37.9878044128,-36.7682952881,1.0,0.0,0.0,0.0,1.0,0.0,0.0,0.0,1.0,-1.2976572998,-0.162805712891,-7.76200178223,1.0,0.0,0.0,0.0,1.0,0.0,0.0,0.0,1.0
1463081039108657582,421,1463081039106257014,,-4.69294548035,-14.5230693817,-58.2721862793,0.0100309997797,1.0,0.0,0.0,0.0,1.0,0.0,0.0,0.0,1.0,-36.8902435303,36.0975646973,-35.3658561707,1.0,0.0,0.0,0.0,1.0,0.0,0.0,0.0,1.0,-1.47003981934,-0.244208569336,-7.50821640625,1.0,0.0,0.0,0.0,1.0,0.0,0.0,0.0,1.0
1463081039120063133,422,1463081039116053506,,-4.79257011414,-14.1640424728,-58.6197509766,0.00999199971557,1.0,0.0,0.0,0.0,1.0,0.0,0.0,0.0,1.0,-35.2439041138,34.3902435303,-33.7804870605,1.0,0.0,0.0,0.0,1.0,0.0,0.0,0.0,1.0,-1.49877023926,-0.0622492431641,-7.34541069336,1.0,0.0,0.0,0.0,1.0,0.0,0.0,0.0,1.0
1463081039128579575,423,1463081039126032757,,-4.87505531311,-13.8429422379,-58.9572944641,0.0100100003183,1.0,0.0,0.0,0.0,1.0,0.0,0.0,0.0,1.0,-32.9268302917,33.7804870605,-32.865852356,1.0,0.0,0.0,0.0,1.0,0.0,0.0,0.0,1.0,-1.88184250488,-0.0383072265625,-7.2831614502,1.0,0.0,0.0,0.0,1.0,0.0,0.0,0.0,1.0
1463081039143583035,424,1463081039137509245,,-4.94578456879,-13.547296524,-59.2852668762,0.0100130001083,1.0,0.0,0.0,0.0,1.0,0.0,0.0,0.0,1.0,-30.1829280853,33.6585388184,-32.2560958862,1.0,0.0,0.0,0.0,1.0,0.0,0.0,0.0,1.0,-2.2170307373,0.129286889648,-7.40765993652,1.0,0.0,0.0,0.0,1.0,0.0,0.0,0.0,1.0
1463081039148740421,425,1463081039146291780,,-4.96639919281,-13.2471370697,-59.6196899414,0.00999899953604,1.0,0.0,0.0,0.0,1.0,0.0,0.0,0.0,1.0,-27.1341457367,36.2804908752,-32.2560958862,1.0,0.0,0.0,0.0,1.0,0.0,0.0,0.0,1.0,-2.5234885498,-0.148440512063,-7.56567724609,1.0,0.0,0.0,0.0,1.0,0.0,0.0,0.0,1.0
1463081039158792641,426,1463081039156023324,,-4.97661066055,-12.9386224747,-59.9466056824,0.00998700037599,1.0,0.0,0.0,0.0,1.0,0.0,0.0,0.0,1.0,-25.6097564697,37.8048782349,-31.5243930817,1.0,0.0,0.0,0.0,1.0,0.0,0.0,0.0,1.0,-2.57616098633,-0.124498486328,-7.54173522949,1.0,0.0,0.0,0.0,1.0,0.0,0.0,0.0,1.0
1463081039169804599,427,1463081039167076062,,-4.96459341049,-12.559135437,-60.3038635254,0.0110600003973,1.0,0.0,0.0,0.0,1.0,0.0,0.0,0.0,1.0,-23.9024391174,41.0365867615,-30.7317066193,1.0,0.0,0.0,0.0,1.0,0.0,0.0,0.0,1.0,-2.50912333984,-0.220266552734,-7.54173522949,1.0,0.0,0.0,0.0,1.0,0.0,0.0,0.0,1.0
1463081039178916248,428,1463081039176047920,,-4.94383955002,-12.2453966141,-60.5875167847,0.00893899984658,1.0,0.0,0.0,0.0,1.0,0.0,0.0,0.0,1.0,-23.1097564697,42.1951255798,-30.0000019073,1.0,0.0,0.0,0.0,1.0,0.0,0.0,0.0,1.0,-2.59052619629,-0.339976635742,-7.76200178223,1.0,0.0,0.0,0.0,1.0,0.0,0.0,0.0,1.0
1463081039188495864,429,1463081039186033005,,-4.92359113693,-11.8905849457,-60.8942985535,0.00999800022691,1.0,0.0,0.0,0.0,1.0,0.0,0.0,0.0,1.0,-22.5609760284,45.182926178,-28.9024410248,1.0,0.0,0.0,0.0,1.0,0.0,0.0,0.0,1.0,-3.0406361084,-0.296881024126,-7.967903125,1.0,0.0,0.0,0.0,1.0,0.0,0.0,0.0,1.0
1463081039198808032,430,1463081039196136214,,-4.90042161942,-11.4975233078,-61.1913757324,0.00999999977648,1.0,0.0,0.0,0.0,1.0,0.0,0.0,0.0,1.0,-22.9878044128,48.7195129395,-27.5,1.0,0.0,0.0,0.0,1.0,0.0,0.0,0.0,1.0,-3.03105930176,-0.478840332031,-8.17380446777,1.0,0.0,0.0,0.0,1.0,0.0,0.0,0.0,1.0
1463081039208621190,431,1463081039206127080,,-4.89775657654,-11.0661811829,-61.4641799927,0.0100060002878,1.0,0.0,0.0,0.0,1.0,0.0,0.0,0.0,1.0,-23.3536586761,52.0731697083,-25.1219520569,1.0,0.0,0.0,0.0,1.0,0.0,0.0,0.0,1.0,-2.99754047852,-0.325611425781,-8.37012841938,1.0,0.0,0.0,0.0,1.0,0.0,0.0,0.0,1.0
1463081039218632056,432,1463081039216071279,,-4.89831256866,-10.6035804749,-61.7155189514,0.00999599974602,1.0,0.0,0.0,0.0,1.0,0.0,0.0,0.0,1.0,-23.2317085266,54.0243911743,-22.9268302917,1.0,0.0,0.0,0.0,1.0,0.0,0.0,0.0,1.0,-2.70065947266,-0.335188232422,-8.20732329102,1.0,0.0,0.0,0.0,1.0,0.0,0.0,0.0,1.0
1463081039228842296,433,1463081039226175426,,-4.90140390396,-10.1010131836,-61.9382019043,0.0100010000169,1.0,0.0,0.0,0.0,1.0,0.0,0.0,0.0,1.0,-22.8658542633,54.5121955872,-20.1219520569,1.0,0.0,0.0,0.0,1.0,0.0,0.0,0.0,1.0,-2.21224233398,-0.344765039063,-8.58560773784,1.0,0.0,0.0,0.0,1.0,0.0,0.0,0.0,1.0
1463081039238315142,434,1463081039236130459,,-4.90605354309,-9.6009016037,-62.133392334,0.00999100040644,1.0,0.0,0.0,0.0,1.0,0.0,0.0,0.0,1.0,-22.1951236725,53.6585388184,-17.6219520569,1.0,0.0,0.0,0.0,1.0,0.0,0.0,0.0,1.0,-2.09253210485,-0.316034619141,-8.71489404297,1.0,0.0,0.0,0.0,1.0,0.0,0.0,0.0,1.0
1463081039248694028,435,1463081039246134242,,-4.90564775467,-9.12220096588,-62.30311203,0.0100079998374,1.0,0.0,0.0,0.0,1.0,0.0,0.0,0.0,1.0,-20.6097564697,52.2560997009,-15.3658533096,1.0,0.0,0.0,0.0,1.0,0.0,0.0,0.0,1.0,-2.32716386754,-0.253785375977,-9.29907866352,1.0,0.0,0.0,0.0,1.0,0.0,0.0,0.0,1.0
1463081039258735936,436,1463081039256073181,,-4.88589334488,-8.65419769287,-62.4441070557,0.00999699998647,1.0,0.0,0.0,0.0,1.0,0.0,0.0,0.0,1.0,-18.1097564697,51.5243911743,-12.6829271317,1.0,0.0,0.0,0.0,1.0,0.0,0.0,0.0,1.0,-2.46123930664,-0.268150604204,-9.80186159668,1.0,0.0,0.0,0.0,1.0,0.0,0.0,0.0,1.0
1463081039268902635,437,1463081039266159515,,-4.82769727707,-8.20530414581,-62.5805282593,0.00999899953604,1.0,0.0,0.0,0.0,1.0,0.0,0.0,0.0,1.0,-16.2804889679,49.8780479431,-12.1341466904,1.0,0.0,0.0,0.0,1.0,0.0,0.0,0.0,1.0,-2.52827695312,-0.694318481445,-10.180145459,1.0,0.0,0.0,0.0,1.0,0.0,0.0,0.0,1.0
1463081039278692043,438,1463081039276152673,,-4.78005886078,-7.7934179306,-62.6966438293,0.0100029995665,1.0,0.0,0.0,0.0,1.0,0.0,0.0,0.0,1.0,-14.8170728683,47.8048782349,-10.7317075729,1.0,0.0,0.0,0.0,1.0,0.0,0.0,0.0,1.0,-2.95923325195,-0.325611425781,-10.793061084,1.0,0.0,0.0,0.0,1.0,0.0,0.0,0.0,1.0
1463081039288594992,439,1463081039286050414,,-4.78525066376,-7.38702392578,-62.7526054382,0.00999800022691,1.0,0.0,0.0,0.0,1.0,0.0,0.0,0.0,1.0,-15.6097564697,45.3048782349,-5.54878091812,1.0,0.0,0.0,0.0,1.0,0.0,0.0,0.0,1.0,-2.69587106934,0.411802685547,-11.3006318359,1.0,0.0,0.0,0.0,1.0,0.0,0.0,0.0,1.0
1463081039298778775,440,1463081039296084665,,-4.8004026413,-6.99950695038,-62.7576789856,0.00999899953604,1.0,0.0,0.0,0.0,1.0,0.0,0.0,0.0,1.0,-15.6707315445,45.182926178,-0.548780500889,1.0,0.0,0.0,0.0,1.0,0.0,0.0,0.0,1.0,-3.25132585449,0.488417138672,-11.9279126709,1.0,0.0,0.0,0.0,1.0,0.0,0.0,0.0,1.0
1463081039308655005,441,1463081039306104073,,-4.7630739212,-6.60755729675,-62.7471427917,0.00999699998647,1.0,0.0,0.0,0.0,1.0,0.0,0.0,0.0,1.0,-11.4024391174,45.5487823486,1.15853655338,1.0,0.0,0.0,0.0,1.0,0.0,0.0,0.0,1.0,-3.23696064453,0.239420166016,-12.1673328369,1.0,0.0,0.0,0.0,1.0,0.0,0.0,0.0,1.0
1463081039318690663,442,1463081039316141137,,-4.68004894257,-6.22132778168,-62.7271881104,0.0100109996274,1.0,0.0,0.0,0.0,1.0,0.0,0.0,0.0,1.0,-7.86585378647,45.3048782349,2.13414645195,1.0,0.0,0.0,0.0,1.0,0.0,0.0,0.0,1.0,-3.09809694824,-0.0191536132812,-11.5927244385,1.0,0.0,0.0,0.0,1.0,0.0,0.0,0.0,1.0
1463081039328757831,443,1463081039326088982,,-4.56296110153,-5.82691049576,-62.6964797974,0.00999199971557,1.0,0.0,0.0,0.0,1.0,0.0,0.0,0.0,1.0,-4.69512224197,44.2073173523,3.04878044128,1.0,0.0,0.0,0.0,1.0,0.0,0.0,0.0,1.0,-2.59052619629,-0.100556469727,-11.5735708252,1.0,0.0,0.0,0.0,1.0,0.0,0.0,0.0,1.0
1463081039342808168,444,1463081039336047764,,-4.40735054016,-5.47803020477,-62.6612014771,0.00999199971557,1.0,0.0,0.0,0.0,1.0,0.0,0.0,0.0,1.0,-1.03658533096,41.4634170532,3.17073178291,1.0,0.0,0.0,0.0,1.0,0.0,0.0,0.0,1.0,-3.04542451172,-0.186747729492,-12.138602417,1.0,0.0,0.0,0.0,1.0,0.0,0.0,0.0,1.0
1463081039348550813,445,1463081039346102224,,-4.30085468292,-5.16683578491,-62.5988769531,0.010006999597,1.0,0.0,0.0,0.0,1.0,0.0,0.0,0.0,1.0,-0.914634168148,38.8414649963,5.06097555161,1.0,0.0,0.0,0.0,1.0,0.0,0.0,0.0,1.0,-3.20823022461,0.833182177734,-11.8369330078,1.0,0.0,0.0,0.0,1.0,0.0,0.0,0.0,1.0
1463081039361171465,446,1463081039356141840,,-4.15573501587,-4.86025571823,-62.4726676941,0.0100050000474,1.0,0.0,0.0,0.0,1.0,0.0,0.0,0.0,1.0,1.8292683363,41.5853652954,11.7073173523,1.0,0.0,0.0,0.0,1.0,0.0,0.0,0.0,1.0,-4.17069899973,0.46447512207,-12.3875993896,1.0,0.0,0.0,0.0,1.0,0.0,0.0,0.0,1.0
1463081039368207858,447,1463081039366147393,,-4.00052976608,-4.54913520813,-62.3228302002,0.00999800022691,1.0,0.0,0.0,0.0,1.0,0.0,0.0,0.0,1.0,6.64634132385,41.0365867615,13.5975618362,1.0,0.0,0.0,0.0,1.0,0.0,0.0,0.0,1.0,-4.01268198242,1.32638771973,-12.7946136719,1.0,0.0,0.0,0.0,1.0,0.0,0.0,0.0,1.0
1463081039377857683,448,1463081039376156020,,-3.77249574661,-4.18587636948,-62.1885948181,0.00999899953604,1.0,0.0,0.0,0.0,1.0,0.0,0.0,0.0,1.0,12.5,45.4878082275,12.3170728683,1.0,0.0,0.0,0.0,1.0,0.0,0.0,0.0,1.0,-3.55299526367,0.957680664062,-12.2870429199,1.0,0.0,0.0,0.0,1.0,0.0,0.0,0.0,1.0
1463081039387869330,449,1463081039386114594,,-3.48251533508,-3.82766199112,-62.0332870483,0.0100090000778,1.0,0.0,0.0,0.0,1.0,0.0,0.0,0.0,1.0,19.3292694092,42.5,13.9634151459,1.0,0.0,0.0,0.0,1.0,0.0,0.0,0.0,1.0,-2.97838686523,1.06781401349,-12.6030775391,1.0,0.0,0.0,0.0,1.0,0.0,0.0,0.0,1.0
1463081039397983165,450,1463081039396133793,,-3.12965941429,-3.44604039192,-61.8720474243,0.00999999977648,1.0,0.0,0.0,0.0,1.0,0.0,0.0,0.0,1.0,26.4024391174,39.4512214661,14.0853662491,1.0,0.0,0.0,0.0,1.0,0.0,0.0,0.0,1.0,-1.47482822266,1.07739082014,-11.4730143555,1.0,0.0,0.0,0.0,1.0,0.0,0.0,0.0,1.0
1463081039407766271,451,1463081039406023670,,-2.69883656502,-3.06579756737,-61.7105293274,0.009990000166,1.0,0.0,0.0,0.0,1.0,0.0,0.0,0.0,1.0,33.8414649963,35.3658561707,13.658536911,1.0,0.0,0.0,0.0,1.0,0.0,0.0,0.0,1.0,-0.526724328702,0.895431420898,-10.9175595703,1.0,0.0,0.0,0.0,1.0,0.0,0.0,0.0,1.0
1463081039418031719,452,1463081039416009171,,-2.22264432907,-2.76390862465,-61.5301017761,0.00999999977648,1.0,0.0,0.0,0.0,1.0,0.0,0.0,0.0,1.0,39.4512214661,25.6097564697,14.7560987473,1.0,0.0,0.0,0.0,1.0,0.0,0.0,0.0,1.0,-0.0718260498047,0.967257470703,-10.2711251221,1.0,0.0,0.0,0.0,1.0,0.0,0.0,0.0,1.0
1463081039427976023,453,1463081039426030402,,-1.73014438152,-2.51950573921,-61.3202095032,0.00999800022691,1.0,0.0,0.0,0.0,1.0,0.0,0.0,0.0,1.0,41.6463432312,16.5243911743,17.134147644,1.0,0.0,0.0,0.0,1.0,0.0,0.0,0.0,1.0,0.541089611728,0.871489404297,-9.193734375,1.0,0.0,0.0,0.0,1.0,0.0,0.0,0.0,1.0
1463081039437954337,454,1463081039436012101,,-1.22520911694,-2.37612700462,-61.0576515198,0.00999699998647,1.0,0.0,0.0,0.0,1.0,0.0,0.0,0.0,1.0,41.9512214661,7.62195110321,22.0731716156,1.0,0.0,0.0,0.0,1.0,0.0,0.0,0.0,1.0,0.387860668945,0.60812722168,-9.15063874512,1.0,0.0,0.0,0.0,1.0,0.0,0.0,0.0,1.0
1463081039447954994,455,1463081039446034269,,-0.700422585011,-2.35716629028,-60.7576675415,0.010006999597,1.0,0.0,0.0,0.0,1.0,0.0,0.0,0.0,1.0,40.1219520569,-1.15853655338,25.7317085266,1.0,0.0,0.0,0.0,1.0,0.0,0.0,0.0,1.0,-0.148440512063,-0.0957680664062,-8.69574042969,1.0,0.0,0.0,0.0,1.0,0.0,0.0,0.0,1.0
1463081039458320339,456,1463081039456006333,,-0.227286309004,-2.43067407608,-60.3979721069,0.0099950004369,1.0,0.0,0.0,0.0,1.0,0.0,0.0,0.0,1.0,35.2439041138,-5.91463422775,31.7073192596,1.0,0.0,0.0,0.0,1.0,0.0,0.0,0.0,1.0,-0.823605371094,-0.186747729492,-8.89685336914,1.0,0.0,0.0,0.0,1.0,0.0,0.0,0.0,1.0
1463081039468473236,457,1463081039465998761,,0.184473633766,-2.58604168892,-59.9876213074,0.00999899953604,1.0,0.0,0.0,0.0,1.0,0.0,0.0,0.0,1.0,30.0609760284,-9.14634132385,36.7682952881,1.0,0.0,0.0,0.0,1.0,0.0,0.0,0.0,1.0,-1.61848032227,-0.15801730957,-9.07402429199,1.0,0.0,0.0,0.0,1.0,0.0,0.0,0.0,1.0
1463081039478523476,458,1463081039476042596,,0.549242973328,-2.78096461296,-59.5546264648,0.00999899953604,1.0,0.0,0.0,0.0,1.0,0.0,0.0,0.0,1.0,27.0731716156,-9.75609779358,39.0243911743,1.0,0.0,0.0,0.0,1.0,0.0,0.0,0.0,1.0,-2.28406838379,0.0191536132812,-9.58159562847,1.0,0.0,0.0,0.0,1.0,0.0,0.0,0.0,1.0
1463081039488064239,459,1463081039486022524,,0.892181396484,-2.97428011894,-59.1165122986,0.0100079998374,1.0,0.0,0.0,0.0,1.0,0.0,0.0,0.0,1.0,28.0487804413,-9.45121955872,39.390247345,1.0,0.0,0.0,0.0,1.0,0.0,0.0,0.0,1.0,-2.4516625,0.517147558594,-10.2519715088,1.0,0.0,0.0,0.0,1.0,0.0,0.0,0.0,1.0
1463081039499026145,460,1463081039496014328,,1.24140298367,-3.18289709091,-58.6910896301,0.00999599974602,1.0,0.0,0.0,0.0,1.0,0.0,0.0,0.0,1.0,30.8536605835,-9.51219558716,38.1097564697,1.0,0.0,0.0,0.0,1.0,0.0,0.0,0.0,1.0,-2.77727392578,0.857124194336,-10.3956236084,1.0,0.0,0.0,0.0,1.0,0.0,0.0,0.0,1.0
1463081039508131648,461,1463081039506011652,,1.62520003319,-3.37118935585,-58.2854652405,0.00999699998647,1.0,0.0,0.0,0.0,1.0,0.0,0.0,0.0,1.0,35.3658561707,-9.39024448395,36.0975646973,1.0,0.0,0.0,0.0,1.0,0.0,0.0,0.0,1.0,-2.49475812988,1.01992990723,-10.8265799072,1.0,0.0,0.0,0.0,1.0,0.0,0.0,0.0,1.0
1463081039518641002,462,1463081039516026580,,2.03332638741,-3.55283546448,-57.9014091492,0.0100050000474,1.0,0.0,0.0,0.0,1.0,0.0,0.0,0.0,1.0,39.0243911743,-10.3048782349,33.9024391174,1.0,0.0,0.0,0.0,1.0,0.0,0.0,0.0,1.0,-2.1930887207,1.20188930646,-10.9510783936,1.0,0.0,0.0,0.0,1.0,0.0,0.0,0.0,1.0
1463081039528485827,463,1463081039526063905,,2.46548199654,-3.72754478455,-57.5323867798,0.00999699998647,1.0,0.0,0.0,0.0,1.0,0.0,0.0,0.0,1.0,43.9024391174,-11.7682924271,32.3780517578,1.0,0.0,0.0,0.0,1.0,0.0,0.0,0.0,1.0,-1.70467158203,1.55144267578,-10.6350437744,1.0,0.0,0.0,0.0,1.0,0.0,0.0,0.0,1.0
1463081039537936486,464,1463081039536127322,,2.94920682907,-3.90558099747,-57.18775177,0.0100130001083,1.0,0.0,0.0,0.0,1.0,0.0,0.0,0.0,1.0,47.9878044128,-14.2682924271,30.1219520569,1.0,0.0,0.0,0.0,1.0,0.0,0.0,0.0,1.0,-1.16837033709,1.16837033709,-9.7348239502,1.0,0.0,0.0,0.0,1.0,0.0,0.0,0.0,1.0
1463081039547746675,465,1463081039546139803,,3.45488452911,-4.10332965851,-56.8530197144,0.00998899992555,1.0,0.0,0.0,0.0,1.0,0.0,0.0,0.0,1.0,50.365852356,-18.1097564697,29.5121974945,1.0,0.0,0.0,0.0,1.0,0.0,0.0,0.0,1.0,-0.809240161133,1.04866025408,-9.43315395649,1.0,0.0,0.0,0.0,1.0,0.0,0.0,0.0,1.0
1463081039557661864,466,1463081039556056138,,3.98422455788,-4.32738018036,-56.5326576233,0.0100029995665,1.0,0.0,0.0,0.0,1.0,0.0,0.0,0.0,1.0,52.1951255798,-23.475610733,28.5365848541,1.0,0.0,0.0,0.0,1.0,0.0,0.0,0.0,1.0,-0.31124621582,0.799663354492,-8.61433815776,1.0,0.0,0.0,0.0,1.0,0.0,0.0,0.0,1.0
1463081039568112104,467,1463081039566057993,,4.56996917725,-4.60036182404,-56.2628974915,0.00999400019646,1.0,0.0,0.0,0.0,1.0,0.0,0.0,0.0,1.0,54.6951217651,-28.0487804413,24.2682933807,1.0,0.0,0.0,0.0,1.0,0.0,0.0,0.0,1.0,-0.392649072266,0.258573779297,-8.3509748061,1.0,0.0,0.0,0.0,1.0,0.0,0.0,0.0,1.0
1463081039578002658,468,1463081039576018547,,5.15189933777,-4.90362739563,-56.0198326111,0.0100029995665,1.0,0.0,0.0,0.0,1.0,0.0,0.0,0.0,1.0,52.8658561707,-32.5,22.3170719147,1.0,0.0,0.0,0.0,1.0,0.0,0.0,0.0,1.0,-0.181959326172,-0.0191536132812,-7.32146867676,1.0,0.0,0.0,0.0,1.0,0.0,0.0,0.0,1.0
1463081039587749618,469,1463081039586058215,,5.6731710434,-5.23884963989,-55.7748985291,0.00999999977648,1.0,0.0,0.0,0.0,1.0,0.0,0.0,0.0,1.0,48.2317085266,-36.2804908752,23.0487823486,1.0,0.0,0.0,0.0,1.0,0.0,0.0,0.0,1.0,-0.110133276367,0.0718260498047,-7.4028715332,1.0,0.0,0.0,0.0,1.0,0.0,0.0,0.0,1.0
1463081039597788817,470,1463081039596137414,,6.15725278854,-5.60113096237,-55.5185546875,0.0100050000474,1.0,0.0,0.0,0.0,1.0,0.0,0.0,0.0,1.0,42.9268302917,-42.317073822,25.2439041138,1.0,0.0,0.0,0.0,1.0,0.0,0.0,0.0,1.0,0.296881024126,-0.205901342773,-6.51222851562,1.0,0.0,0.0,0.0,1.0,0.0,0.0,0.0,1.0
1463081039607743381,471,1463081039606059165,,6.56367778778,-5.99348402023,-55.2596817017,0.0099950004369,1.0,0.0,0.0,0.0,1.0,0.0,0.0,0.0,1.0,36.8902435303,-44.9390258789,25.975610733,1.0,0.0,0.0,0.0,1.0,0.0,0.0,0.0,1.0,0.244208569336,-0.0909796630859,-6.70855305176,1.0,0.0,0.0,0.0,1.0,0.0,0.0,0.0,1.0
1463081039618211902,472,1463081039616136229,,6.89106369019,-6.48104667664,-54.9963264465,0.00999899953604,1.0,0.0,0.0,0.0,1.0,0.0,0.0,0.0,1.0,31.2804889679,-50.182926178,27.0731716156,1.0,0.0,0.0,0.0,1.0,0.0,0.0,0.0,1.0,-0.277727392578,0.110133276367,-6.73249506836,1.0,0.0,0.0,0.0,1.0,0.0,0.0,0.0,1.0
1463081039628034852,473,1463081039626039387,,7.15451908112,-6.98457431793,-54.7353401184,0.0100010000169,1.0,0.0,0.0,0.0,1.0,0.0,0.0,0.0,1.0,27.5,-52.4390258789,27.0121955872,1.0,0.0,0.0,0.0,1.0,0.0,0.0,0.0,1.0,-0.229843359375,0.354341845703,-6.51222851562,1.0,0.0,0.0,0.0,1.0,0.0,0.0,0.0,1.0
1463081039637990614,474,1463081039636290877,,7.39544200897,-7.54572105408,-54.4876098633,0.0100180003792,1.0,0.0,0.0,0.0,1.0,0.0,0.0,0.0,1.0,24.6341457367,-54.817073822,26.158536911,1.0,0.0,0.0,0.0,1.0,0.0,0.0,0.0,1.0,-0.708683691406,0.268150604204,-6.87135876465,1.0,0.0,0.0,0.0,1.0,0.0,0.0,0.0,1.0
1463081039647832678,475,1463081039646140441,,7.58169794083,-8.13237285614,-54.2518692017,0.00998399965465,1.0,0.0,0.0,0.0,1.0,0.0,0.0,0.0,1.0,21.5853652954,-55.182926178,24.8780498505,1.0,0.0,0.0,0.0,1.0,0.0,0.0,0.0,1.0,-1.09175595703,0.541089611728,-6.97191523437,1.0,0.0,0.0,0.0,1.0,0.0,0.0,0.0,1.0
1463081039657834117,476,1463081039656150109,,7.74324607849,-8.73096370697,-54.0246887207,0.0100029995665,1.0,0.0,0.0,0.0,1.0,0.0,0.0,0.0,1.0,19.7560977936,-55.0609779358,23.9024391174,1.0,0.0,0.0,0.0,1.0,0.0,0.0,0.0,1.0,-1.33596452637,0.60812722168,-7.03416447754,1.0,0.0,0.0,0.0,1.0,0.0,0.0,0.0,1.0
1463081039668200346,477,1463081039666149048,,7.88611936569,-9.3169927597,-53.8145217896,0.00999199971557,1.0,0.0,0.0,0.0,1.0,0.0,0.0,0.0,1.0,18.2926826477,-53.1707305908,21.8902435303,1.0,0.0,0.0,0.0,1.0,0.0,0.0,0.0,1.0,-1.5083470459,0.646434448242,-6.94797321777,1.0,0.0,0.0,0.0,1.0,0.0,0.0,0.0,1.0
1463081039678087879,478,1463081039676074289,,8.0167350769,-9.89369487762,-53.6223220825,0.00999899953604,1.0,0.0,0.0,0.0,1.0,0.0,0.0,0.0,1.0,17.6829280853,-51.0365867615,19.6341457367,1.0,0.0,0.0,0.0,1.0,0.0,0.0,0.0,1.0,-1.80043964844,0.756567724609,-7.09162531738,1.0,0.0,0.0,0.0,1.0,0.0,0.0,0.0,1.0
1463081039687770412,479,1463081039686138853,,8.15466403961,-10.4507665634,-53.4549980164,0.0100029995665,1.0,0.0,0.0,0.0,1.0,0.0,0.0,0.0,1.0,17.6829280853,-48.4756126404,16.8292694092,1.0,0.0,0.0,0.0,1.0,0.0,0.0,0.0,1.0,-2.11647412145,0.732625708008,-7.50821640625,1.0,0.0,0.0,0.0,1.0,0.0,0.0,0.0,1.0
1463081039697797164,480,1463081039696144146,,8.26930332184,-10.9612512589,-53.3037261963,0.0100050000474,1.0,0.0,0.0,0.0,1.0,0.0,0.0,0.0,1.0,16.5853652954,-45.6097564697,14.5121955872,1.0,0.0,0.0,0.0,1.0,0.0,0.0,0.0,1.0,-1.99197578125,0.9193734375,-7.59440766602,1.0,0.0,0.0,0.0,1.0,0.0,0.0,0.0,1.0
1463081039710002452,481,1463081039706140481,,8.38124752045,-11.4314031601,-53.1543045044,0.0100010000169,1.0,0.0,0.0,0.0,1.0,0.0,0.0,0.0,1.0,14.8780498505,-40.6097564697,13.841463089,1.0,0.0,0.0,0.0,1.0,0.0,0.0,0.0,1.0,-2.35110588414,0.737414111328,-8.06845959473,1.0,0.0,0.0,0.0,1.0,0.0,0.0,0.0,1.0
1463081039719924360,482,1463081039716210305,,8.4986333847,-11.8703327179,-53.0201263428,0.0100199999288,1.0,0.0,0.0,0.0,1.0,0.0,0.0,0.0,1.0,15.3048791885,-37.4390220642,11.7682924271,1.0,0.0,0.0,0.0,1.0,0.0,0.0,0.0,1.0,-2.60010300293,0.790086547852,-8.5520889146,1.0,0.0,0.0,0.0,1.0,0.0,0.0,0.0,1.0
1463081039728125750,483,1463081039726082317,,8.63325405121,-12.2708082199,-52.9070625305,0.00998099986464,1.0,0.0,0.0,0.0,1.0,0.0,0.0,0.0,1.0,15.3048791885,-34.2073173523,9.51219558716,1.0,0.0,0.0,0.0,1.0,0.0,0.0,0.0,1.0,-2.71981308594,0.555454785156,-8.78672009277,1.0,0.0,0.0,0.0,1.0,0.0,0.0,0.0,1.0
1463081039737897086,484,1463081039736298495,,8.78353404999,-12.6036930084,-52.8155059814,0.00999400019646,1.0,0.0,0.0,0.0,1.0,0.0,0.0,0.0,1.0,14.1463422775,-28.1707324982,6.95121955872,1.0,0.0,0.0,0.0,1.0,0.0,0.0,0.0,1.0,-2.8060043457,0.15322890625,-9.07881269531,1.0,0.0,0.0,0.0,1.0,0.0,0.0,0.0,1.0
1463081039748005816,485,1463081039746060716,,8.86141872406,-12.8902292252,-52.7230110168,0.0100100003183,1.0,0.0,0.0,0.0,1.0,0.0,0.0,0.0,1.0,14.3292694092,-25.6097564697,4.93902444839,1.0,0.0,0.0,0.0,1.0,0.0,0.0,0.0,1.0,-2.39899020961,1.35990654297,-8.71968244629,1.0,0.0,0.0,0.0,1.0,0.0,0.0,0.0,1.0
1463081039757686005,486,1463081039756021998,,9.12140464783,-12.9413433075,-52.6885070801,0.00999100040644,1.0,0.0,0.0,0.0,1.0,0.0,0.0,0.0,1.0,17.9878044128,-10.548781395,-0.0609756112099,1.0,0.0,0.0,0.0,1.0,0.0,0.0,0.0,1.0,-1.838746875,-1.32159931641,-12.885593335,1.0,0.0,0.0,0.0,1.0,0.0,0.0,0.0,1.0
1463081039767665934,487,1463081039766034531,,9.17261981964,-13.0157575607,-52.6979179382,0.00999800022691,1.0,0.0,0.0,0.0,1.0,0.0,0.0,0.0,1.0,15.3658533096,-12.3170728683,-8.59756088257,1.0,0.0,0.0,0.0,1.0,0.0,0.0,0.0,1.0,-1.97282216797,3.18907661133,-12.0332575439,1.0,0.0,0.0,0.0,1.0,0.0,0.0,0.0,1.0
1463081039777707998,488,1463081039776037532,,9.38580322266,-12.9930877686,-52.7185020447,0.0100020002574,1.0,0.0,0.0,0.0,1.0,0.0,0.0,0.0,1.0,20.4268302917,-3.7804877758,-8.5365858078,1.0,0.0,0.0,0.0,1.0,0.0,0.0,0.0,1.0,-1.60890351563,0.502782348633,-10.6206785645,1.0,0.0,0.0,0.0,1.0,0.0,0.0,0.0,1.0
1463081039787656364,489,1463081039786044648,,9.64009094238,-13.147269249,-52.7865867615,0.0100029995665,1.0,0.0,0.0,0.0,1.0,0.0,0.0,0.0,1.0,16.2804889679,-12.0731716156,-10.1219511032,1.0,0.0,0.0,0.0,1.0,0.0,0.0,0.0,1.0,-3.69664736328,-0.933738647461,-10.8600987305,1.0,0.0,0.0,0.0,1.0,0.0,0.0,0.0,1.0
1463081039797682802,490,1463081039796035358,,9.84481906891,-13.1392707825,-52.8085708618,0.0100010000169,1.0,0.0,0.0,0.0,1.0,0.0,0.0,0.0,1.0,11.5853662491,-5.30487823486,-6.52439069748,1.0,0.0,0.0,0.0,1.0,0.0,0.0,0.0,1.0,-1.69030637207,-1.19710090314,-11.04684646,1.0,0.0,0.0,0.0,1.0,0.0,0.0,0.0,1.0
1463081039807684762,491,1463081039806022213,,9.91749572754,-13.104839325,-52.7730293274,0.00999199971557,1.0,0.0,0.0,0.0,1.0,0.0,0.0,0.0,1.0,7.13414621353,-1.34146344662,-3.29268312454,1.0,0.0,0.0,0.0,1.0,0.0,0.0,0.0,1.0,-1.83395847168,0.301669427446,-11.4155535156,1.0,0.0,0.0,0.0,1.0,0.0,0.0,0.0,1.0
1463081039817750576,492,1463081039816030683,,9.98388957977,-13.0439195633,-52.7649803162,0.0100029995665,1.0,0.0,0.0,0.0,1.0,0.0,0.0,0.0,1.0,4.14634132385,-1.58536589146,-5.54878091812,1.0,0.0,0.0,0.0,1.0,0.0,0.0,0.0,1.0,-1.65199914551,-0.114921679688,-14.202404248,1.0,0.0,0.0,0.0,1.0,0.0,0.0,0.0,1.0
1463081039827682119,493,1463081039826051549,,10.0109844208,-12.9959506989,-52.7763977051,0.0100029995665,1.0,0.0,0.0,0.0,1.0,0.0,0.0,0.0,1.0,5.73170757294,-4.51219558716,-8.35365867615,1.0,0.0,0.0,0.0,1.0,0.0,0.0,0.0,1.0,-0.986411083984,1.10612116699,-10.898405957,1.0,0.0,0.0,0.0,1.0,0.0,0.0,0.0,1.0
1463081039837653558,494,1463081039836052624,,10.0506372452,-13.0043678284,-52.8486442566,0.00999699998647,1.0,0.0,0.0,0.0,1.0,0.0,0.0,0.0,1.0,3.17073178291,-3.17073178291,-14.0243902206,1.0,0.0,0.0,0.0,1.0,0.0,0.0,0.0,1.0,-2.68150585937,0.684741674805,-11.3245738525,1.0,0.0,0.0,0.0,1.0,0.0,0.0,0.0,1.0
1463081039848176767,495,1463081039846019323,,10.0068368912,-13.0924139023,-52.9250869751,0.00999999977648,1.0,0.0,0.0,0.0,1.0,0.0,0.0,0.0,1.0,1.70731711388,-3.53658556938,-16.0365848541,1.0,0.0,0.0,0.0,1.0,0.0,0.0,0.0,1.0,-2.57616098633,1.42694418945,-6.62236179199,1.0,0.0,0.0,0.0,1.0,0.0,0.0,0.0,1.0
1463081039857685811,496,1463081039856023001,,10.1025600433,-13.1769504547,-53.0533714294,0.00999999977648,1.0,0.0,0.0,0.0,1.0,0.0,0.0,0.0,1.0,0.0,-8.29268264771,-16.8902435303,1.0,0.0,0.0,0.0,1.0,0.0,0.0,0.0,1.0,-3.04542451172,-0.799663354492,-10.0556469727,1.0,0.0,0.0,0.0,1.0,0.0,0.0,0.0,1.0
1463081039867705843,497,1463081039866015586,,10.0303449631,-13.1151046753,-53.1700973511,0.00999999977648,1.0,0.0,0.0,0.0,1.0,0.0,0.0,0.0,1.0,-5.24390268326,-0.609756112099,-19.817073822,1.0,0.0,0.0,0.0,1.0,0.0,0.0,0.0,1.0,-1.95366855469,1.46525141602,-11.3293622559,1.0,0.0,0.0,0.0,1.0,0.0,0.0,0.0,1.0
1463081039877775667,498,1463081039876051816,,10.0211381912,-13.1213502884,-53.3046760559,0.0100010000169,1.0,0.0,0.0,0.0,1.0,0.0,0.0,0.0,1.0,-8.35365867615,-0.792682945728,-19.3902435303,1.0,0.0,0.0,0.0,1.0,0.0,0.0,0.0,1.0,-3.97437475586,-0.478840332031,-13.2064163574,1.0,0.0,0.0,0.0,1.0,0.0,0.0,0.0,1.0
1463081039887830335,499,1463081039886040547,,10.0345230103,-13.0820064545,-53.4402008057,0.0100029995665,1.0,0.0,0.0,0.0,1.0,0.0,0.0,0.0,1.0,-12.4390249252,-1.70731711388,-17.8048782349,1.0,0.0,0.0,0.0,1.0,0.0,0.0,0.0,1.0,-2.88740720215,-2.30322199707,-14.5854765137,1.0,0.0,0.0,0.0,1.0,0.0,0.0,0.0,1.0
1463081039898077034,500,1463081039896052142,,9.9519739151,-12.9862670898,-53.5328216553,0.0100039998069,1.0,0.0,0.0,0.0,1.0,0.0,0.0,0.0,1.0,-15.0609760284,2.19512200356,-15.6707315445,1.0,0.0,0.0,0.0,1.0,0.0,0.0,0.0,1.0,-2.04943662109,-0.627280834961,-13.350068457,1.0,0.0,0.0,0.0,1.0,0.0,0.0,0.0,1.0
1463081039907907223,501,1463081039906008529,,9.86467933655,-12.9344301224,-53.6498451233,0.00998799968511,1.0,0.0,0.0,0.0,1.0,0.0,0.0,0.0,1.0,-16.9512195587,-4.14634132385,-16.7682933807,1.0,0.0,0.0,0.0,1.0,0.0,0.0,0.0,1.0,-1.99676418457,-1.01514150391,-16.3954929687,1.0,0.0,0.0,0.0,1.0,0.0,0.0,0.0,1.0
1463081039918103089,502,1463081039916312415,,9.8998708725,-12.9786872864,-53.8085174561,0.0100290002301,1.0,0.0,0.0,0.0,1.0,0.0,0.0,0.0,1.0,-18.5975627899,-5.79268312454,-17.5000019073,1.0,0.0,0.0,0.0,1.0,0.0,0.0,0.0,1.0,-3.47638081055,-3.83072265625,-12.3349269531,1.0,0.0,0.0,0.0,1.0,0.0,0.0,0.0,1.0
1463081039928041663,503,1463081039926037500,,9.87546443939,-12.9929885864,-53.9742851257,0.00997900031507,1.0,0.0,0.0,0.0,1.0,0.0,0.0,0.0,1.0,-14.8170728683,-10.3048782349,-19.817073822,1.0,0.0,0.0,0.0,1.0,0.0,0.0,0.0,1.0,-1.75734401855,-1.44130939941,-12.2918313232,1.0,0.0,0.0,0.0,1.0,0.0,0.0,0.0,1.0
1463081039937799717,504,1463081039936104564,,9.6972951889,-13.0878982544,-54.1264305115,0.00999599974602,1.0,0.0,0.0,0.0,1.0,0.0,0.0,0.0,1.0,-17.3780498505,-14.9390249252,-20.6097564697,1.0,0.0,0.0,0.0,1.0,0.0,0.0,0.0,1.0,-2.55700737305,1.53707746582,-12.7802484619,1.0,0.0,0.0,0.0,1.0,0.0,0.0,0.0,1.0
1463081039947848812,505,1463081039946044024,,9.65204620361,-13.1598024368,-54.3015403748,0.0100010000169,1.0,0.0,0.0,0.0,1.0,0.0,0.0,0.0,1.0,-19.2073173523,-13.4756097794,-19.6951236725,1.0,0.0,0.0,0.0,1.0,0.0,0.0,0.0,1.0,-2.23618435059,-1.76213242187,-11.5927244385,1.0,0.0,0.0,0.0,1.0,0.0,0.0,0.0,1.0
1463081039957733793,506,1463081039956077338,,9.40171432495,-13.2712726593,-54.4413032532,0.00999999977648,1.0,0.0,0.0,0.0,1.0,0.0,0.0,0.0,1.0,-19.6341457367,-15.6097564697,-20.4878044128,1.0,0.0,0.0,0.0,1.0,0.0,0.0,0.0,1.0,-2.47081611328,2.52827695312,-11.4490723389,1.0,0.0,0.0,0.0,1.0,0.0,0.0,0.0,1.0
1463081039968194189,507,1463081039966132266,,9.22832202911,-13.391913414,-54.5828094482,0.00999800022691,1.0,0.0,0.0,0.0,1.0,0.0,0.0,0.0,1.0,-19.1463432312,-16.341463089,-18.9024391174,1.0,0.0,0.0,0.0,1.0,0.0,0.0,0.0,1.0,-2.39899020961,0.900219824219,-10.8457335205,1.0,0.0,0.0,0.0,1.0,0.0,0.0,0.0,1.0
1463081039978096670,508,1463081039976051934,,9.07890033722,-13.4943208694,-54.7313575745,0.00999999977648,1.0,0.0,0.0,0.0,1.0,0.0,0.0,0.0,1.0,-18.7195110321,-20.4878044128,-18.5365848541,1.0,0.0,0.0,0.0,1.0,0.0,0.0,0.0,1.0,-1.42694418945,0.603338854892,-12.4259066162,1.0,0.0,0.0,0.0,1.0,0.0,0.0,0.0,1.0
1463081039987663839,509,1463081039986020561,,9.0042963028,-13.5981044769,-54.8888053894,0.0100010000169,1.0,0.0,0.0,0.0,1.0,0.0,0.0,0.0,1.0,-15.3048791885,-24.5731716156,-17.8658542633,1.0,0.0,0.0,0.0,1.0,0.0,0.0,0.0,1.0,-0.603338854892,-0.268150604204,-12.8903817383,1.0,0.0,0.0,0.0,1.0,0.0,0.0,0.0,1.0
1463081039997767673,510,1463081039996046062,,8.96969795227,-13.7131080627,-55.0155487061,0.00999899953604,1.0,0.0,0.0,0.0,1.0,0.0,0.0,0.0,1.0,-11.5853662491,-27.682926178,-14.1463422775,1.0,0.0,0.0,0.0,1.0,0.0,0.0,0.0,1.0,-0.0383072265625,-0.45489831543,-12.1194488037,1.0,0.0,0.0,0.0,1.0,0.0,0.0,0.0,1.0
1463081040007698487,511,1463081040006017188,,9.03249835968,-13.9389371872,-55.164691925,0.00999899953604,1.0,0.0,0.0,0.0,1.0,0.0,0.0,0.0,1.0,-10.3658542633,-39.9390258789,-12.4390249252,1.0,0.0,0.0,0.0,1.0,0.0,0.0,0.0,1.0,0.201112939453,-2.22181914063,-12.0955067871,1.0,0.0,0.0,0.0,1.0,0.0,0.0,0.0,1.0
1463081040018137321,512,1463081040016056127,,9.0216588974,-14.2795410156,-55.2573471069,0.0100029995665,1.0,0.0,0.0,0.0,1.0,0.0,0.0,0.0,1.0,-9.87804889679,-40.5487823486,-8.41463470459,1.0,0.0,0.0,0.0,1.0,0.0,0.0,0.0,1.0,-1.82438166504,-0.660799658203,-10.5919481445,1.0,0.0,0.0,0.0,1.0,0.0,0.0,0.0,1.0
1463081040028010947,513,1463081040026041472,,9.01987075806,-14.6149120331,-55.3444671631,0.0100029995665,1.0,0.0,0.0,0.0,1.0,0.0,0.0,0.0,1.0,-8.35365867615,-42.0121955872,-7.80487823486,1.0,0.0,0.0,0.0,1.0,0.0,0.0,0.0,1.0,-1.24019645996,-0.46447512207,-8.82502731934,1.0,0.0,0.0,0.0,1.0,0.0,0.0,0.0,1.0
1463081040037892803,514,1463081040036279942,,8.9858455658,-14.9845075607,-55.3929214478,0.00999400019646,1.0,0.0,0.0,0.0,1.0,0.0,0.0,0.0,1.0,-14.0243902206,-41.2195129395,-3.29268312454,1.0,0.0,0.0,0.0,1.0,0.0,0.0,0.0,1.0,-1.97761057129,-1.06302561017,-9.27513723145,1.0,0.0,0.0,0.0,1.0,0.0,0.0,0.0,1.0
1463081040047708357,515,1463081040046017058,,8.82597351074,-15.3688611984,-55.3585472107,0.0100029995665,1.0,0.0,0.0,0.0,1.0,0.0,0.0,0.0,1.0,-20.0609760284,-35.2439041138,2.56097555161,1.0,0.0,0.0,0.0,1.0,0.0,0.0,0.0,1.0,-3.71580097656,-0.292092584273,-10.9558667969,1.0,0.0,0.0,0.0,1.0,0.0,0.0,0.0,1.0
1463081040057669640,516,1463081040056011518,,8.64367961884,-15.7422294617,-55.2760353088,0.00999899953604,1.0,0.0,0.0,0.0,1.0,0.0,0.0,0.0,1.0,-24.2073173523,-34.817073822,7.92682981491,1.0,0.0,0.0,0.0,1.0,0.0,0.0,0.0,1.0,-3.22259543457,-0.871489404297,-10.0556469727,1.0,0.0,0.0,0.0,1.0,0.0,0.0,0.0,1.0
1463081040068028161,517,1463081040066016811,,8.3776473999,-16.0689716339,-55.1419296265,0.00999699998647,1.0,0.0,0.0,0.0,1.0,0.0,0.0,0.0,1.0,-26.8902454376,-25.7926845551,10.1829271317,1.0,0.0,0.0,0.0,1.0,0.0,0.0,0.0,1.0,-3.9121255127,0.0287304199219,-9.70609353027,1.0,0.0,0.0,0.0,1.0,0.0,0.0,0.0,1.0
1463081040078617568,518,1463081040076190072,,8.10571193695,-16.3728561401,-54.9988632202,0.0100060002878,1.0,0.0,0.0,0.0,1.0,0.0,0.0,0.0,1.0,-25.0,-21.4024391174,9.5731716156,1.0,0.0,0.0,0.0,1.0,0.0,0.0,0.0,1.0,-4.41969626465,0.531512805087,-9.74440075684,1.0,0.0,0.0,0.0,1.0,0.0,0.0,0.0,1.0
1463081040087857393,519,1463081040086161667,,7.87081813812,-16.5863628387,-54.8489532471,0.00999800022691,1.0,0.0,0.0,0.0,1.0,0.0,0.0,0.0,1.0,-21.158536911,-15.7926826477,9.32926845551,1.0,0.0,0.0,0.0,1.0,0.0,0.0,0.0,1.0,-4.14675698313,0.565031591797,-10.6541973877,1.0,0.0,0.0,0.0,1.0,0.0,0.0,0.0,1.0
1463081040098039353,520,1463081040096318783,,7.65818405151,-16.7170448303,-54.6960372925,0.00999999977648,1.0,0.0,0.0,0.0,1.0,0.0,0.0,0.0,1.0,-15.0000009537,-8.17073154449,7.31707334518,1.0,0.0,0.0,0.0,1.0,0.0,0.0,0.0,1.0,-4.0078935791,1.40779057617,-10.4866032715,1.0,0.0,0.0,0.0,1.0,0.0,0.0,0.0,1.0
1463081040108016000,521,1463081040106061056,,7.56451797485,-16.7904205322,-54.5721168518,0.00999899953604,1.0,0.0,0.0,0.0,1.0,0.0,0.0,0.0,1.0,-8.96341514587,-2.92682933807,5.30487823486,1.0,0.0,0.0,0.0,1.0,0.0,0.0,0.0,1.0,-4.42448466797,0.411802685547,-11.5352635986,1.0,0.0,0.0,0.0,1.0,0.0,0.0,0.0,1.0
1463081040121190558,522,1463081040116152182,,7.52274227142,-16.8640632629,-54.5249176025,0.0100029995665,1.0,0.0,0.0,0.0,1.0,0.0,0.0,0.0,1.0,-5.12195110321,2.5,-3.10975623131,1.0,0.0,0.0,0.0,1.0,0.0,0.0,0.0,1.0,-6.32069238281,0.780509741211,-12.0524111572,1.0,0.0,0.0,0.0,1.0,0.0,0.0,0.0,1.0
1463081040130972674,523,1463081040126261329,,7.56418037415,-16.5735187531,-54.43983078,0.0100020002574,1.0,0.0,0.0,0.0,1.0,0.0,0.0,0.0,1.0,4.08536577225,20.1829280853,-1.70731711388,1.0,0.0,0.0,0.0,1.0,0.0,0.0,0.0,1.0,-1.64242233887,0.45489831543,-11.1809217529,1.0,0.0,0.0,0.0,1.0,0.0,0.0,0.0,1.0
1463081040138250889,524,1463081040136518653,,7.58517694473,-16.2132911682,-54.2877044678,0.010006999597,1.0,0.0,0.0,0.0,1.0,0.0,0.0,0.0,1.0,9.69512176514,29.9390258789,1.76829278469,1.0,0.0,0.0,0.0,1.0,0.0,0.0,0.0,1.0,-1.96324536133,1.69509477539,-11.0707884766,1.0,0.0,0.0,0.0,1.0,0.0,0.0,0.0,1.0
1463081040147789464,525,1463081040146084832,,7.76947450638,-16.0533084869,-54.1835632324,0.009990000166,1.0,0.0,0.0,0.0,1.0,0.0,0.0,0.0,1.0,13.1097564697,19.5731716156,2.01219511032,1.0,0.0,0.0,0.0,1.0,0.0,0.0,0.0,1.0,-3.40934316406,-0.60812722168,-9.35175110005,1.0,0.0,0.0,0.0,1.0,0.0,0.0,0.0,1.0
1463081040164703389,526,1463081040156172000,,7.80383014679,-15.8476715088,-53.9927062988,0.00999400019646,1.0,0.0,0.0,0.0,1.0,0.0,0.0,0.0,1.0,8.29268264771,18.2317085266,8.29268264771,1.0,0.0,0.0,0.0,1.0,0.0,0.0,0.0,1.0,-2.55221896973,0.890643017578,-11.3197854492,1.0,0.0,0.0,0.0,1.0,0.0,0.0,0.0,1.0
1463081040171681761,527,1463081040166385886,,8.00197315216,-15.4908123016,-53.7970046997,0.0100199999288,1.0,0.0,0.0,0.0,1.0,0.0,0.0,0.0,1.0,6.58536624908,27.0121955872,12.7439022064,1.0,0.0,0.0,0.0,1.0,0.0,0.0,0.0,1.0,-1.02950671387,-2.72460148926,-10.1753570557,1.0,0.0,0.0,0.0,1.0,0.0,0.0,0.0,1.0
1463081040178131332,528,1463081040176443835,,7.86497449875,-15.2082366943,-53.4713630676,0.0100170001388,1.0,0.0,0.0,0.0,1.0,0.0,0.0,0.0,1.0,-3.90243911743,21.8292694092,20.5487823486,1.0,0.0,0.0,0.0,1.0,0.0,0.0,0.0,1.0,-0.780509741211,0.723048901367,-7.25443103027,1.0,0.0,0.0,0.0,1.0,0.0,0.0,0.0,1.0
1463081040187830844,529,1463081040186068348,,7.88499593735,-14.7696323395,-53.1322059631,0.00996499974281,1.0,0.0,0.0,0.0,1.0,0.0,0.0,0.0,1.0,-7.86585378647,29.2073173523,26.6463432312,1.0,0.0,0.0,0.0,1.0,0.0,0.0,0.0,1.0,0.588973571866,-2.47081611328,-9.06923588867,1.0,0.0,0.0,0.0,1.0,0.0,0.0,0.0,1.0
1463081040201730140,530,1463081040196187234,,7.70397806168,-14.605799675,-52.7094573975,0.00999299995601,1.0,0.0,0.0,0.0,1.0,0.0,0.0,0.0,1.0,-13.7195129395,14.2073173523,33.4756126404,1.0,0.0,0.0,0.0,1.0,0.0,0.0,0.0,1.0,-1.03908344744,-0.272938989258,-7.03895288086,1.0,0.0,0.0,0.0,1.0,0.0,0.0,0.0,1.0
1463081040208228461,531,1463081040206189246,,7.49322271347,-14.4206228256,-52.2318763733,0.0100109996274,1.0,0.0,0.0,0.0,1.0,0.0,0.0,0.0,1.0,-19.7560977936,22.6219520569,38.8414649963,1.0,0.0,0.0,0.0,1.0,0.0,0.0,0.0,1.0,-1.49877023926,-0.689530078125,-5.96156213379,1.0,0.0,0.0,0.0,1.0,0.0,0.0,0.0,1.0
1463081040218712399,532,1463081040216147404,,7.14808750153,-14.1365270615,-51.6702804565,0.0100010000169,1.0,0.0,0.0,0.0,1.0,0.0,0.0,0.0,1.0,-21.0975627899,25.182926178,44.2682914734,1.0,0.0,0.0,0.0,1.0,0.0,0.0,0.0,1.0,-0.684741674805,0.536301208408,-6.99106884766,1.0,0.0,0.0,0.0,1.0,0.0,0.0,0.0,1.0
1463081040231457791,533,1463081040226206238,,6.83464860916,-13.9716892242,-51.1010932922,0.00999400019646,1.0,0.0,0.0,0.0,1.0,0.0,0.0,0.0,1.0,-20.4878044128,19.0853652954,46.6463432312,1.0,0.0,0.0,0.0,1.0,0.0,0.0,0.0,1.0,-1.31681091309,0.248996972656,-6.53617053223,1.0,0.0,0.0,0.0,1.0,0.0,0.0,0.0,1.0
1463081040238149809,534,1463081040236229083,,6.46568536758,-13.8940153122,-50.4884529114,0.0100060002878,1.0,0.0,0.0,0.0,1.0,0.0,0.0,0.0,1.0,-17.8048782349,23.658536911,48.5365867615,1.0,0.0,0.0,0.0,1.0,0.0,0.0,0.0,1.0,-4.01268198242,1.81959326172,-8.69095202637,1.0,0.0,0.0,0.0,1.0,0.0,0.0,0.0,1.0
1463081040248099321,535,1463081040246084689,,6.14527177811,-13.6449623108,-49.8667907715,0.00999699998647,1.0,0.0,0.0,0.0,1.0,0.0,0.0,0.0,1.0,-13.5975618362,31.2804889679,49.0243911743,1.0,0.0,0.0,0.0,1.0,0.0,0.0,0.0,1.0,-1.98718737793,1.34075292969,-7.36456430664,1.0,0.0,0.0,0.0,1.0,0.0,0.0,0.0,1.0
1463081040258197843,536,1463081040256204565,,5.99178791046,-13.5658912659,-49.2703018188,0.00999599974602,1.0,0.0,0.0,0.0,1.0,0.0,0.0,0.0,1.0,-7.43902492523,28.0487804413,49.5121955872,1.0,0.0,0.0,0.0,1.0,0.0,0.0,0.0,1.0,-4.19942941965,0.067037651051,-7.44596716309,1.0,0.0,0.0,0.0,1.0,0.0,0.0,0.0,1.0
1463081040268107719,537,1463081040266077775,,5.66184234619,-13.3341341019,-48.6102523804,0.0100029995665,1.0,0.0,0.0,0.0,1.0,0.0,0.0,0.0,1.0,-0.792682945728,33.9024391174,49.634147644,1.0,0.0,0.0,0.0,1.0,0.0,0.0,0.0,1.0,-1.89620771484,2.67192905273,-5.24330163574,1.0,0.0,0.0,0.0,1.0,0.0,0.0,0.0,1.0
1463081040278452907,538,1463081040276436818,,5.64511632919,-13.0446891785,-48.0098075867,0.0100100003183,1.0,0.0,0.0,0.0,1.0,0.0,0.0,0.0,1.0,9.93902492523,28.5975608826,49.1463432312,1.0,0.0,0.0,0.0,1.0,0.0,0.0,0.0,1.0,-1.42694418945,0.742202514648,-9.47146118306,1.0,0.0,0.0,0.0,1.0,0.0,0.0,0.0,1.0
1463081040287835650,539,1463081040286098518,,5.54281282425,-12.8363542557,-47.3922920227,0.00999100040644,1.0,0.0,0.0,0.0,1.0,0.0,0.0,0.0,1.0,13.7804880142,29.9390258789,48.0487823486,1.0,0.0,0.0,0.0,1.0,0.0,0.0,0.0,1.0,-2.2170307373,2.33674067418,-6.85220515137,1.0,0.0,0.0,0.0,1.0,0.0,0.0,0.0,1.0
1463081040298322869,540,1463081040296332143,,5.12287282944,-12.7016239166,-46.6916999817,0.0099950004369,1.0,0.0,0.0,0.0,1.0,0.0,0.0,0.0,1.0,16.2804889679,26.158536911,49.207321167,1.0,0.0,0.0,0.0,1.0,0.0,0.0,0.0,1.0,-0.981622680664,6.10042583008,-0.584185168546,1.0,0.0,0.0,0.0,1.0,0.0,0.0,0.0,1.0
1463081040307708788,541,1463081040306094781,,5.51468038559,-12.474858284,-46.1949996948,0.0100039998069,1.0,0.0,0.0,0.0,1.0,0.0,0.0,0.0,1.0,23.1097564697,27.5,45.182926178,1.0,0.0,0.0,0.0,1.0,0.0,0.0,0.0,1.0,-1.93930334473,-2.95923325195,-7.48427438965,1.0,0.0,0.0,0.0,1.0,0.0,0.0,0.0,1.0
1463081040318387309,542,1463081040316357521,,5.70229196548,-12.2644195557,-45.6414222717,0.00999899953604,1.0,0.0,0.0,0.0,1.0,0.0,0.0,0.0,1.0,27.1951236725,26.5243911743,45.4878082275,1.0,0.0,0.0,0.0,1.0,0.0,0.0,0.0,1.0,-2.33674067418,0.541089611728,-9.33738589009,1.0,0.0,0.0,0.0,1.0,0.0,0.0,0.0,1.0
1463081040331305148,543,1463081040326449689,,5.91109037399,-12.1386213303,-45.0958137512,0.00999999977648,1.0,0.0,0.0,0.0,1.0,0.0,0.0,0.0,1.0,21.4024391174,24.3292694092,46.5853691101,1.0,0.0,0.0,0.0,1.0,0.0,0.0,0.0,1.0,-2.99754047852,-0.713472094727,-8.18816967773,1.0,0.0,0.0,0.0,1.0,0.0,0.0,0.0,1.0
1463081040342689345,544,1463081040336113837,,6.19504308701,-11.9621038437,-44.4889678955,0.0100199999288,1.0,0.0,0.0,0.0,1.0,0.0,0.0,0.0,1.0,20.1829280853,21.8902435303,54.817073822,1.0,0.0,0.0,0.0,1.0,0.0,0.0,0.0,1.0,-1.39821376953,-1.92014973145,-6.88093557129,1.0,0.0,0.0,0.0,1.0,0.0,0.0,0.0,1.0
1463081040348494594,545,1463081040346155067,,6.3111166954,-11.8115463257,-43.8573722839,0.00999299995601,1.0,0.0,0.0,0.0,1.0,0.0,0.0,0.0,1.0,15.3048791885,15.975610733,55.5487785339,1.0,0.0,0.0,0.0,1.0,0.0,0.0,0.0,1.0,-1.10612116699,-0.560243188477,-8.51378168804,1.0,0.0,0.0,0.0,1.0,0.0,0.0,0.0,1.0
1463081040358264158,546,1463081040356158121,,6.30310201645,-11.8449344635,-43.1350135803,0.00998700037599,1.0,0.0,0.0,0.0,1.0,0.0,0.0,0.0,1.0,10.0609760284,11.4024391174,63.9024429321,1.0,0.0,0.0,0.0,1.0,0.0,0.0,0.0,1.0,-3.0406361084,0.316034619141,-8.26478413086,1.0,0.0,0.0,0.0,1.0,0.0,0.0,0.0,1.0
1463081040368362888,547,1463081040366329351,,6.2768778801,-11.8668251038,-42.3934249878,0.00999400019646,1.0,0.0,0.0,0.0,1.0,0.0,0.0,0.0,1.0,9.20731735229,7.68292665482,66.0365829468,1.0,0.0,0.0,0.0,1.0,0.0,0.0,0.0,1.0,-1.90578452148,0.316034619141,-7.0724717041,1.0,0.0,0.0,0.0,1.0,0.0,0.0,0.0,1.0
1463081040378398338,548,1463081040376283758,,6.28406095505,-11.8209152222,-41.651763916,0.0100060002878,1.0,0.0,0.0,0.0,1.0,0.0,0.0,0.0,1.0,8.90243911743,5.73170757294,66.9512252808,1.0,0.0,0.0,0.0,1.0,0.0,0.0,0.0,1.0,-1.40779057617,-0.325611425781,-12.8185556885,1.0,0.0,0.0,0.0,1.0,0.0,0.0,0.0,1.0
1463081040388124569,549,1463081040386474676,,6.36288547516,-11.8746080399,-40.9375457764,0.0100159998983,1.0,0.0,0.0,0.0,1.0,0.0,0.0,0.0,1.0,12.1951217651,-1.40243899822,65.6707305908,1.0,0.0,0.0,0.0,1.0,0.0,0.0,0.0,1.0,-1.63284553223,-0.852335791016,-9.98382092285,1.0,0.0,0.0,0.0,1.0,0.0,0.0,0.0,1.0
1463081040398237570,550,1463081040396113668,,6.59986162186,-11.9174470901,-40.2922859192,0.00998700037599,1.0,0.0,0.0,0.0,1.0,0.0,0.0,0.0,1.0,14.5731706619,-0.609756112099,61.5853691101,1.0,0.0,0.0,0.0,1.0,0.0,0.0,0.0,1.0,-2.28885678711,-4.37181223145,-13.6517378662,1.0,0.0,0.0,0.0,1.0,0.0,0.0,0.0,1.0
1463081040408176665,551,1463081040406125784,,6.51633358002,-11.9362192154,-39.562412262,0.00999699998647,1.0,0.0,0.0,0.0,1.0,0.0,0.0,0.0,1.0,13.841463089,-1.03658533096,63.5975646973,1.0,0.0,0.0,0.0,1.0,0.0,0.0,0.0,1.0,-1.22583125,2.96402165527,-12.5504051025,1.0,0.0,0.0,0.0,1.0,0.0,0.0,0.0,1.0
1463081040421292942,552,1463081040416947325,,6.60484170914,-12.1949892044,-38.8713684082,0.0100039998069,1.0,0.0,0.0,0.0,1.0,0.0,0.0,0.0,1.0,18.7804889679,-10.3048782349,63.2317123413,1.0,0.0,0.0,0.0,1.0,0.0,0.0,0.0,1.0,-3.94564433594,0.253785375977,-10.2280294922,1.0,0.0,0.0,0.0,1.0,0.0,0.0,0.0,1.0
1463081040431866879,553,1463081040426752358,,6.75079154968,-12.3278255463,-38.194683075,0.0100079998374,1.0,0.0,0.0,0.0,1.0,0.0,0.0,0.0,1.0,18.7804889679,-4.57317066193,62.317073822,1.0,0.0,0.0,0.0,1.0,0.0,0.0,0.0,1.0,-3.26569106445,-1.11090957031,-12.6605383789,1.0,0.0,0.0,0.0,1.0,0.0,0.0,0.0,1.0
1463081040441085976,554,1463081040436134163,,6.84975337982,-12.4792480469,-37.4743423462,0.00998399965465,1.0,0.0,0.0,0.0,1.0,0.0,0.0,0.0,1.0,17.8658542633,-5.91463422775,66.3414611816,1.0,0.0,0.0,0.0,1.0,0.0,0.0,0.0,1.0,-2.81558115234,-0.450109912109,-10.912771167,1.0,0.0,0.0,0.0,1.0,0.0,0.0,0.0,1.0
1463081040448057264,555,1463081040446219664,,6.76222133636,-12.720703125,-36.6799087524,0.0100149996579,1.0,0.0,0.0,0.0,1.0,0.0,0.0,0.0,1.0,16.341463089,-6.46341466904,69.9390258789,1.0,0.0,0.0,0.0,1.0,0.0,0.0,0.0,1.0,-3.3949779541,2.24097275391,-8.15465085449,1.0,0.0,0.0,0.0,1.0,0.0,0.0,0.0,1.0
1463081040457828756,556,1463081040456084020,,6.66868448257,-12.9052753448,-35.8550491333,0.00998799968511,1.0,0.0,0.0,0.0,1.0,0.0,0.0,0.0,1.0,14.4512205124,-5.24390268326,73.3536605835,1.0,0.0,0.0,0.0,1.0,0.0,0.0,0.0,1.0,-2.88261879883,1.93451494141,-8.91600698242,1.0,0.0,0.0,0.0,1.0,0.0,0.0,0.0,1.0
1463081040468375194,557,1463081040466174052,,6.65965747833,-13.0575351715,-35.0238723755,0.00999999977648,1.0,0.0,0.0,0.0,1.0,0.0,0.0,0.0,1.0,15.8536596298,-7.86585378647,75.7926864624,1.0,0.0,0.0,0.0,1.0,0.0,0.0,0.0,1.0,-2.60010300293,0.790086547852,-12.1816980469,1.0,0.0,0.0,0.0,1.0,0.0,0.0,0.0,1.0
1463081040478837882,558,1463081040476171324,,6.69104242325,-13.2462263107,-34.1856040955,0.010006999597,1.0,0.0,0.0,0.0,1.0,0.0,0.0,0.0,1.0,18.1707305908,-8.23170757294,76.8902435303,1.0,0.0,0.0,0.0,1.0,0.0,0.0,0.0,1.0,-3.18428820801,0.316034619141,-11.5448404053,1.0,0.0,0.0,0.0,1.0,0.0,0.0,0.0,1.0
1463081040488684998,559,1463081040486059795,,6.74633216858,-13.433722496,-33.333442688,0.0099950004369,1.0,0.0,0.0,0.0,1.0,0.0,0.0,0.0,1.0,19.8780498505,-7.80487823486,78.5365829468,1.0,0.0,0.0,0.0,1.0,0.0,0.0,0.0,1.0,-3.0166940918,0.0239420166016,-10.7212350342,1.0,0.0,0.0,0.0,1.0,0.0,0.0,0.0,1.0
1463081040498995290,560,1463081040496240400,,6.80679655075,-13.6456336975,-32.4804916382,0.0100010000169,1.0,0.0,0.0,0.0,1.0,0.0,0.0,0.0,1.0,21.7073173523,-8.71951198578,78.3536605835,1.0,0.0,0.0,0.0,1.0,0.0,0.0,0.0,1.0,-3.60087929687,0.253785375977,-11.5208983887,1.0,0.0,0.0,0.0,1.0,0.0,0.0,0.0,1.0
1463081040509352510,561,1463081040506087047,,6.81722211838,-13.8732452393,-31.580406189,0.00999899953604,1.0,0.0,0.0,0.0,1.0,0.0,0.0,0.0,1.0,22.3170719147,-6.95121955872,81.6463394165,1.0,0.0,0.0,0.0,1.0,0.0,0.0,0.0,1.0,-4.44842668457,1.26892687988,-11.9566430908,1.0,0.0,0.0,0.0,1.0,0.0,0.0,0.0,1.0
1463081040518879835,562,1463081040516123330,,6.87287330627,-14.0643224716,-30.6718177795,0.0100020002574,1.0,0.0,0.0,0.0,1.0,0.0,0.0,0.0,1.0,26.3414649963,0.914634168148,81.6463394165,1.0,0.0,0.0,0.0,1.0,0.0,0.0,0.0,1.0,-5.48751020508,1.09654436035,-11.8465098145,1.0,0.0,0.0,0.0,1.0,0.0,0.0,0.0,1.0
1463081040528374608,563,1463081040526266643,,6.97909069061,-14.2131519318,-29.7493915558,0.00999800022691,1.0,0.0,0.0,0.0,1.0,0.0,0.0,0.0,1.0,29.0853672028,5.73170757294,83.1097564697,1.0,0.0,0.0,0.0,1.0,0.0,0.0,0.0,1.0,-5.88494768066,0.402225878906,-12.4163298096,1.0,0.0,0.0,0.0,1.0,0.0,0.0,0.0,1.0
1463081040538750734,564,1463081040536364592,,7.10098791122,-14.2499332428,-28.8092899323,0.00999999977648,1.0,0.0,0.0,0.0,1.0,0.0,0.0,0.0,1.0,32.9878044128,12.5609760284,83.4756088257,1.0,0.0,0.0,0.0,1.0,0.0,0.0,0.0,1.0,-4.6591161384,0.742202514648,-12.3301385498,1.0,0.0,0.0,0.0,1.0,0.0,0.0,0.0,1.0
1463081040547966028,565,1463081040546083219,,7.2590880394,-14.2461709976,-27.8776855469,0.00999999977648,1.0,0.0,0.0,0.0,1.0,0.0,0.0,0.0,1.0,35.9756088257,14.0243902206,82.5609817505,1.0,0.0,0.0,0.0,1.0,0.0,0.0,0.0,1.0,-3.73016618652,0.531512805087,-11.4825911621,1.0,0.0,0.0,0.0,1.0,0.0,0.0,0.0,1.0
1463081040558015488,566,1463081040556040492,,7.45669364929,-14.1813392639,-26.9348144531,0.00999699998647,1.0,0.0,0.0,0.0,1.0,0.0,0.0,0.0,1.0,37.682926178,14.0243902206,84.3292694092,1.0,0.0,0.0,0.0,1.0,0.0,0.0,0.0,1.0,-2.32237546422,-0.0957680664062,-11.5352635986,1.0,0.0,0.0,0.0,1.0,0.0,0.0,0.0,1.0
1463081040568134426,567,1463081040566127295,,7.65136909485,-14.1254844666,-25.9938087463,0.00999899953604,1.0,0.0,0.0,0.0,1.0,0.0,0.0,0.0,1.0,34.9390258789,9.75609779358,85.3048782349,1.0,0.0,0.0,0.0,1.0,0.0,0.0,0.0,1.0,-1.41736738281,-0.593762048251,-10.658985791,1.0,0.0,0.0,0.0,1.0,0.0,0.0,0.0,1.0
1463081040578230396,568,1463081040576243681,,7.76796245575,-14.1401920319,-25.0041408539,0.0100050000474,1.0,0.0,0.0,0.0,1.0,0.0,0.0,0.0,1.0,32.8048782349,3.23170733452,89.7560958862,1.0,0.0,0.0,0.0,1.0,0.0,0.0,0.0,1.0,-1.13963999023,0.225054956055,-9.12669672852,1.0,0.0,0.0,0.0,1.0,0.0,0.0,0.0,1.0
1463081040588428710,569,1463081040586156683,,7.87447500229,-14.1841468811,-23.9654750824,0.0100010000169,1.0,0.0,0.0,0.0,1.0,0.0,0.0,0.0,1.0,29.8780498505,-0.426829278469,95.9146347046,1.0,0.0,0.0,0.0,1.0,0.0,0.0,0.0,1.0,-0.9193734375,-0.349553442383,-9.59117243511,1.0,0.0,0.0,0.0,1.0,0.0,0.0,0.0,1.0
1463081040602788630,570,1463081040596031091,,7.93913888931,-14.3384656906,-22.8910045624,0.00999899953604,1.0,0.0,0.0,0.0,1.0,0.0,0.0,0.0,1.0,25.7317085266,-7.56097555161,100.67073822,1.0,0.0,0.0,0.0,1.0,0.0,0.0,0.0,1.0,-1.39821376953,-0.512359155273,-9.03092866211,1.0,0.0,0.0,0.0,1.0,0.0,0.0,0.0,1.0
1463081040610859031,571,1463081040606306539,,7.91805934906,-14.5468978882,-21.7499980927,0.0100299995393,1.0,0.0,0.0,0.0,1.0,0.0,0.0,0.0,1.0,22.8048782349,-8.10975551605,105.853660583,1.0,0.0,0.0,0.0,1.0,0.0,0.0,0.0,1.0,-2.07816689489,0.124498486328,-9.05487067871,1.0,0.0,0.0,0.0,1.0,0.0,0.0,0.0,1.0
1463081040622440466,572,1463081040616290791,,7.90265703201,-14.8098745346,-20.6040153503,0.00997900031507,1.0,0.0,0.0,0.0,1.0,0.0,0.0,0.0,1.0,22.6219520569,-8.5365858078,107.195121765,1.0,0.0,0.0,0.0,1.0,0.0,0.0,0.0,1.0,-3.1124621582,-0.0957680664062,-9.44273076313,1.0,0.0,0.0,0.0,1.0,0.0,0.0,0.0,1.0
1463081040628915245,573,1463081040626426813,,7.88786411285,-15.0782470703,-19.429567337,0.0101269995794,1.0,0.0,0.0,0.0,1.0,0.0,0.0,0.0,1.0,24.6341457367,-6.64634132385,107.56098175,1.0,0.0,0.0,0.0,1.0,0.0,0.0,0.0,1.0,-3.58651408691,0.134075302102,-9.60074924175,1.0,0.0,0.0,0.0,1.0,0.0,0.0,0.0,1.0
1463081040639015226,574,1463081040636704814,,7.90545320511,-15.3220691681,-18.2966461182,0.00987100042403,1.0,0.0,0.0,0.0,1.0,0.0,0.0,0.0,1.0,28.5365848541,-2.74390244484,105.548782349,1.0,0.0,0.0,0.0,1.0,0.0,0.0,0.0,1.0,-4.13718046875,0.258573779297,-9.69651672363,1.0,0.0,0.0,0.0,1.0,0.0,0.0,0.0,1.0
1463081040648649738,575,1463081040646408701,,7.98058223724,-15.4988660812,-17.1816196442,0.010006999597,1.0,0.0,0.0,0.0,1.0,0.0,0.0,0.0,1.0,33.7195129395,3.65853667259,101.280487061,1.0,0.0,0.0,0.0,1.0,0.0,0.0,0.0,1.0,-4.42927307129,0.263362164351,-10.3573163818,1.0,0.0,0.0,0.0,1.0,0.0,0.0,0.0,1.0
1463081040659071957,576,1463081040656086078,,8.12746429443,-15.6228151321,-16.1132125854,0.00998200010508,1.0,0.0,0.0,0.0,1.0,0.0,0.0,0.0,1.0,40.8536605835,8.29268264771,96.0365829468,1.0,0.0,0.0,0.0,1.0,0.0,0.0,0.0,1.0,-4.36702382812,0.416591088867,-10.2088758789,1.0,0.0,0.0,0.0,1.0,0.0,0.0,0.0,1.0
1463081040668506835,577,1463081040666051215,,8.36190319061,-15.6688575745,-15.1019363403,0.0100029995665,1.0,0.0,0.0,0.0,1.0,0.0,0.0,0.0,1.0,47.6829299927,12.3170728683,89.7560958862,1.0,0.0,0.0,0.0,1.0,0.0,0.0,0.0,1.0,-3.62003291016,0.253785375977,-9.95987890625,1.0,0.0,0.0,0.0,1.0,0.0,0.0,0.0,1.0
1463081040678742596,578,1463081040676306976,,8.62678527832,-15.6726875305,-14.0925197601,0.0100220004097,1.0,0.0,0.0,0.0,1.0,0.0,0.0,0.0,1.0,52.5609779358,13.3536586761,88.6585388184,1.0,0.0,0.0,0.0,1.0,0.0,0.0,0.0,1.0,-3.09330854492,0.584185168546,-10.4770264648,1.0,0.0,0.0,0.0,1.0,0.0,0.0,0.0,1.0
1463081040688599296,579,1463081040686164717,,8.95938873291,-15.6290607452,-13.1301326752,0.0100279999897,1.0,0.0,0.0,0.0,1.0,0.0,0.0,0.0,1.0,56.8292694092,14.3292694092,84.207321167,1.0,0.0,0.0,0.0,1.0,0.0,0.0,0.0,1.0,-2.14999323695,0.244208569336,-9.40442353657,1.0,0.0,0.0,0.0,1.0,0.0,0.0,0.0,1.0
1463081040698197610,580,1463081040696219489,,9.34673118591,-15.5914945602,-12.2127103806,0.00995900016278,1.0,0.0,0.0,0.0,1.0,0.0,0.0,0.0,1.0,59.1463394165,10.6707315445,81.707321167,1.0,0.0,0.0,0.0,1.0,0.0,0.0,0.0,1.0,-1.61369191895,-0.239420166016,-9.44751916645,1.0,0.0,0.0,0.0,1.0,0.0,0.0,0.0,1.0
1463081040707996185,581,1463081040706271032,,9.66069316864,-15.5842618942,-11.2733488083,0.00998700037599,1.0,0.0,0.0,0.0,1.0,0.0,0.0,0.0,1.0,55.7317085266,5.91463422775,83.4146347046,1.0,0.0,0.0,0.0,1.0,0.0,0.0,0.0,1.0,-1.05823706072,0.287304199219,-8.6239149644,1.0,0.0,0.0,0.0,1.0,0.0,0.0,0.0,1.0
1463081040718038405,582,1463081040716169242,,9.98601436615,-15.5879364014,-10.3492460251,0.0100020002574,1.0,0.0,0.0,0.0,1.0,0.0,0.0,0.0,1.0,54.4512214661,2.01219511032,83.0487823486,1.0,0.0,0.0,0.0,1.0,0.0,0.0,0.0,1.0,-0.541089611728,-0.0718260498047,-8.12592043457,1.0,0.0,0.0,0.0,1.0,0.0,0.0,0.0,1.0
1463081040728306562,583,1463081040726329326,,10.3031921387,-15.6595096588,-9.44462490082,0.00999800022691,1.0,0.0,0.0,0.0,1.0,0.0,0.0,0.0,1.0,51.4024391174,-4.93902444839,82.9878005981,1.0,0.0,0.0,0.0,1.0,0.0,0.0,0.0,1.0,-0.469263525391,-0.383072265625,-8.00621035156,1.0,0.0,0.0,0.0,1.0,0.0,0.0,0.0,1.0
1463081040737990241,584,1463081040736159151,,10.5781736374,-15.7781009674,-8.55669212341,0.0100029995665,1.0,0.0,0.0,0.0,1.0,0.0,0.0,0.0,1.0,45.6097564697,-10.4878053665,82.7439041138,1.0,0.0,0.0,0.0,1.0,0.0,0.0,0.0,1.0,-0.301669427446,-0.579396801758,-7.58004245605,1.0,0.0,0.0,0.0,1.0,0.0,0.0,0.0,1.0
1463081040747844232,585,1463081040746137830,,10.8046913147,-15.9692201614,-7.68341875076,0.00999899953604,1.0,0.0,0.0,0.0,1.0,0.0,0.0,0.0,1.0,39.2682914734,-17.5609760284,83.1097564697,1.0,0.0,0.0,0.0,1.0,0.0,0.0,0.0,1.0,-0.3064578125,-0.804451757813,-7.57525405273,1.0,0.0,0.0,0.0,1.0,0.0,0.0,0.0,1.0
1463081040757972963,586,1463081040756043696,,10.9854478836,-16.2058811188,-6.82715606689,0.00999599974602,1.0,0.0,0.0,0.0,1.0,0.0,0.0,0.0,1.0,33.9024391174,-23.1097564697,82.7439041138,1.0,0.0,0.0,0.0,1.0,0.0,0.0,0.0,1.0,-0.177170922852,-0.905008227539,-7.40765993652,1.0,0.0,0.0,0.0,1.0,0.0,0.0,0.0,1.0
1463081040768443099,587,1463081040766047791,,11.1847848892,-16.5003490448,-6.02447128296,0.0100010000169,1.0,0.0,0.0,0.0,1.0,0.0,0.0,0.0,1.0,29.3902435303,-27.8048782349,79.9390258789,1.0,0.0,0.0,0.0,1.0,0.0,0.0,0.0,1.0,-0.426167895508,-1.70945998535,-7.61834968262,1.0,0.0,0.0,0.0,1.0,0.0,0.0,0.0,1.0
1463081040778572141,588,1463081040776299542,,11.2511081696,-16.8501758575,-5.21781587601,0.0100090000778,1.0,0.0,0.0,0.0,1.0,0.0,0.0,0.0,1.0,21.6463432312,-32.9878044128,79.7560958862,1.0,0.0,0.0,0.0,1.0,0.0,0.0,0.0,1.0,-0.488417138672,-0.991199487305,-7.50821640625,1.0,0.0,0.0,0.0,1.0,0.0,0.0,0.0,1.0
1463081040788116550,589,1463081040786017543,,11.2267341614,-17.2469825745,-4.39967727661,0.00999699998647,1.0,0.0,0.0,0.0,1.0,0.0,0.0,0.0,1.0,14.8170728683,-35.9146347046,80.9756088257,1.0,0.0,0.0,0.0,1.0,0.0,0.0,0.0,1.0,-0.737414111328,-0.790086547852,-7.3789295166,1.0,0.0,0.0,0.0,1.0,0.0,0.0,0.0,1.0
1463081040798121114,590,1463081040796018409,,11.1205787659,-17.6885490417,-3.57467699051,0.00999999977648,1.0,0.0,0.0,0.0,1.0,0.0,0.0,0.0,1.0,10.1219511032,-40.8536605835,81.4634170532,1.0,0.0,0.0,0.0,1.0,0.0,0.0,0.0,1.0,-0.76135612793,-0.430956298828,-7.79073220215,1.0,0.0,0.0,0.0,1.0,0.0,0.0,0.0,1.0
1463081040808168594,591,1463081040806060838,,10.9232397079,-18.1510353088,-2.72533488274,0.00999899953604,1.0,0.0,0.0,0.0,1.0,0.0,0.0,0.0,1.0,6.95121955872,-43.4756126404,82.4390258789,1.0,0.0,0.0,0.0,1.0,0.0,0.0,0.0,1.0,-0.684741674805,0.248996972656,-7.4268135498,1.0,0.0,0.0,0.0,1.0,0.0,0.0,0.0,1.0
1463081040818492220,592,1463081040816043058,,10.7275285721,-18.6273975372,-1.88493680954,0.00999899953604,1.0,0.0,0.0,0.0,1.0,0.0,0.0,0.0,1.0,8.10975551605,-45.182926178,81.1585388184,1.0,0.0,0.0,0.0,1.0,0.0,0.0,0.0,1.0,-0.804451757813,0.387860668945,-7.79073220215,1.0,0.0,0.0,0.0,1.0,0.0,0.0,0.0,1.0
1463081040828562356,593,1463081040826058299,,10.5992002487,-19.1162166595,-1.0824662447,0.0100010000169,1.0,0.0,0.0,0.0,1.0,0.0,0.0,0.0,1.0,9.93902492523,-48.7804870605,79.1463470459,1.0,0.0,0.0,0.0,1.0,0.0,0.0,0.0,1.0,-0.689530078125,-0.239420166016,-8.05888278809,1.0,0.0,0.0,0.0,1.0,0.0,0.0,0.0,1.0
1463081040838454993,594,1463081040836037915,,10.1743812561,-20.2150802612,-0.246631249785,0.00999999977648,1.0,0.0,0.0,0.0,1.0,0.0,0.0,0.0,1.0,8.35365867615,-54.817073822,73.2926864624,1.0,0.0,0.0,0.0,1.0,0.0,0.0,0.0,1.0,-7.0245876709,6.24407792969,0.517147558594,1.0,0.0,0.0,0.0,1.0,0.0,0.0,0.0,1.0
1463081040848581588,595,1463081040846060864,,10.1940031052,-20.3784370422,0.549629688263,0.00999899953604,1.0,0.0,0.0,0.0,1.0,0.0,0.0,0.0,1.0,17.5609760284,-30.9146327972,77.1951217651,1.0,0.0,0.0,0.0,1.0,0.0,0.0,0.0,1.0,1.10133276367,-1.35990654297,-7.21133540039,1.0,0.0,0.0,0.0,1.0,0.0,0.0,0.0,1.0
1463081040858366361,596,1463081040856061886,,9.92647075653,-20.7609996796,1.42289149761,0.0100020002574,1.0,0.0,0.0,0.0,1.0,0.0,0.0,0.0,1.0,14.5121955872,-34.9390258789,76.4024353027,1.0,0.0,0.0,0.0,1.0,0.0,0.0,0.0,1.0,-1.45088620605,2.23618435059,-8.46589648579,1.0,0.0,0.0,0.0,1.0,0.0,0.0,0.0,1.0
1463081040868388737,597,1463081040866217596,,9.83508396149,-21.1119403839,2.20882916451,0.0100060002878,1.0,0.0,0.0,0.0,1.0,0.0,0.0,0.0,1.0,17.8658542633,-34.9390258789,72.0731735229,1.0,0.0,0.0,0.0,1.0,0.0,0.0,0.0,1.0,-1.43173259277,0.258573779297,-9.05008227539,1.0,0.0,0.0,0.0,1.0,0.0,0.0,0.0,1.0
1463081040878587988,598,1463081040876842783,,9.79868793488,-21.486246109,3.01384186745,0.0100130001083,1.0,0.0,0.0,0.0,1.0,0.0,0.0,0.0,1.0,19.8780498505,-29.8780498505,74.4512252808,1.0,0.0,0.0,0.0,1.0,0.0,0.0,0.0,1.0,-2.51391174316,-0.46447512207,-8.3509748061,1.0,0.0,0.0,0.0,1.0,0.0,0.0,0.0,1.0
1463081040888110574,599,1463081040886176671,,9.63829708099,-21.6368865967,3.85886573792,0.0099849998951,1.0,0.0,0.0,0.0,1.0,0.0,0.0,0.0,1.0,20.6097564697,-20.8536586761,72.134147644,1.0,0.0,0.0,0.0,1.0,0.0,0.0,0.0,1.0,-0.445321508789,1.5083470459,-9.30865547017,1.0,0.0,0.0,0.0,1.0,0.0,0.0,0.0,1.0
1463081040897952534,600,1463081040896175298,,9.64005947113,-21.9812088013,4.66632413864,0.00999599974602,1.0,0.0,0.0,0.0,1.0,0.0,0.0,0.0,1.0,23.9024391174,-23.3536586761,73.4756088257,1.0,0.0,0.0,0.0,1.0,0.0,0.0,0.0,1.0,-3.39976635742,-0.531512805087,-8.74841286621,1.0,0.0,0.0,0.0,1.0,0.0,0.0,0.0,1.0
1463081040907975795,601,1463081040906055226,,9.59992313385,-22.1338882446,5.49032449722,0.0100029995665,1.0,0.0,0.0,0.0,1.0,0.0,0.0,0.0,1.0,25.3658542633,-11.2804880142,70.792678833,1.0,0.0,0.0,0.0,1.0,0.0,0.0,0.0,1.0,-2.49475812988,0.287304199219,-9.7587659668,1.0,0.0,0.0,0.0,1.0,0.0,0.0,0.0,1.0
1463081040922520350,602,1463081040917497496,,9.62699890137,-22.3952198029,6.36445856094,0.0108580002561,1.0,0.0,0.0,0.0,1.0,0.0,0.0,0.0,1.0,24.3902435303,-9.5731716156,71.5243911743,1.0,0.0,0.0,0.0,1.0,0.0,0.0,0.0,1.0,-4.38138903809,-0.972045874023,-9.18894597168,1.0,0.0,0.0,0.0,1.0,0.0,0.0,0.0,1.0
1463081040930649397,603,1463081040926098729,,9.44684314728,-22.5096549988,7.21252155304,0.00914500001818,1.0,0.0,0.0,0.0,1.0,0.0,0.0,0.0,1.0,20.7317085266,0.731707334518,75.365852356,1.0,0.0,0.0,0.0,1.0,0.0,0.0,0.0,1.0,-3.43328518066,1.49398183594,-8.15943925781,1.0,0.0,0.0,0.0,1.0,0.0,0.0,0.0,1.0
1463081040940492555,604,1463081040936191886,,9.28513431549,-22.6328887939,8.15787506104,0.00999199971557,1.0,0.0,0.0,0.0,1.0,0.0,0.0,0.0,1.0,22.8048782349,1.34146344662,77.865852356,1.0,0.0,0.0,0.0,1.0,0.0,0.0,0.0,1.0,-4.20421782297,1.32159931641,-9.7348239502,1.0,0.0,0.0,0.0,1.0,0.0,0.0,0.0,1.0
1463081040948580456,605,1463081040946251763,,9.14991283417,-22.616979599,9.12698078156,0.0100180003792,1.0,0.0,0.0,0.0,1.0,0.0,0.0,0.0,1.0,24.6951236725,11.4024391174,78.841468811,1.0,0.0,0.0,0.0,1.0,0.0,0.0,0.0,1.0,-3.50032282715,0.933738647461,-9.8305920166,1.0,0.0,0.0,0.0,1.0,0.0,0.0,0.0,1.0
1463081040960212256,606,1463081040956363930,,9.00276660919,-22.4724082947,10.1085281372,0.009990000166,1.0,0.0,0.0,0.0,1.0,0.0,0.0,0.0,1.0,25.3048782349,22.9878044128,77.865852356,1.0,0.0,0.0,0.0,1.0,0.0,0.0,0.0,1.0,-2.8060043457,1.0534486574,-8.45153127583,1.0,0.0,0.0,0.0,1.0,0.0,0.0,0.0,1.0
1463081040968576823,607,1463081040966169692,,8.92282581329,-22.300151825,11.078127861,0.00999999977648,1.0,0.0,0.0,0.0,1.0,0.0,0.0,0.0,1.0,27.0731716156,23.0487823486,78.5975570679,1.0,0.0,0.0,0.0,1.0,0.0,0.0,0.0,1.0,-3.45243879395,0.445321508789,-12.1577560303,1.0,0.0,0.0,0.0,1.0,0.0,0.0,0.0,1.0
1463081040983198201,608,1463081040976203631,,8.97077941895,-22.1401863098,11.9905529022,0.00999100040644,1.0,0.0,0.0,0.0,1.0,0.0,0.0,0.0,1.0,26.2804889679,28.2317066193,77.3170776367,1.0,0.0,0.0,0.0,1.0,0.0,0.0,0.0,1.0,-4.27125605398,-1.89620771484,-10.0317049561,1.0,0.0,0.0,0.0,1.0,0.0,0.0,0.0,1.0
1463081040987771317,609,1463081040986046373,,8.92359733582,-21.8989658356,12.957195282,0.0100100003183,1.0,0.0,0.0,0.0,1.0,0.0,0.0,0.0,1.0,28.9634151459,33.2317085266,77.1951217651,1.0,0.0,0.0,0.0,1.0,0.0,0.0,0.0,1.0,-4.17548740305,0.320823022461,-12.1002951904,1.0,0.0,0.0,0.0,1.0,0.0,0.0,0.0,1.0
1463081040997639214,610,1463081040996001561,,8.90899658203,-21.5869121552,13.9072227478,0.00999400019646,1.0,0.0,0.0,0.0,1.0,0.0,0.0,0.0,1.0,28.8414649963,33.8414649963,76.8902435303,1.0,0.0,0.0,0.0,1.0,0.0,0.0,0.0,1.0,-2.76769711914,-0.325611425781,-12.5791355225,1.0,0.0,0.0,0.0,1.0,0.0,0.0,0.0,1.0
1463081041007721643,611,1463081041006001854,,8.4149980545,-21.4039478302,15.0439624786,0.00999999977648,1.0,0.0,0.0,0.0,1.0,0.0,0.0,0.0,1.0,27.9878063202,36.1585350037,77.9268264771,1.0,0.0,0.0,0.0,1.0,0.0,0.0,0.0,1.0,-2.35110588414,7.53215842285,-4.44363828125,1.0,0.0,0.0,0.0,1.0,0.0,0.0,0.0,1.0
1463081041018240893,612,1463081041016049595,,8.27779388428,-21.1873397827,16.0472240448,0.00999400019646,1.0,0.0,0.0,0.0,1.0,0.0,0.0,0.0,1.0,26.8902454376,34.6951217651,78.7195129395,1.0,0.0,0.0,0.0,1.0,0.0,0.0,0.0,1.0,-3.86902988281,1.70467158203,-9.32302068013,1.0,0.0,0.0,0.0,1.0,0.0,0.0,0.0,1.0
1463081041028193686,613,1463081041026137076,,8.28088569641,-20.8134174347,16.9336967468,0.0100039998069,1.0,0.0,0.0,0.0,1.0,0.0,0.0,0.0,1.0,23.5365848541,34.0853691101,72.9878082275,1.0,0.0,0.0,0.0,1.0,0.0,0.0,0.0,1.0,-1.82917006836,-1.23061965332,-14.231134668,1.0,0.0,0.0,0.0,1.0,0.0,0.0,0.0,1.0
1463081041038010907,614,1463081041036229816,,8.25082397461,-20.4154949188,17.8454856873,0.00999899953604,1.0,0.0,0.0,0.0,1.0,0.0,0.0,0.0,1.0,24.5121955872,34.0853691101,74.1463394165,1.0,0.0,0.0,0.0,1.0,0.0,0.0,0.0,1.0,-0.957680664062,-0.15801730957,-13.4314713135,1.0,0.0,0.0,0.0,1.0,0.0,0.0,0.0,1.0
1463081041047732867,615,1463081041046036724,,8.09495544434,-20.0190563202,18.7425060272,0.0100010000169,1.0,0.0,0.0,0.0,1.0,0.0,0.0,0.0,1.0,22.8048782349,30.6097583771,69.0243911743,1.0,0.0,0.0,0.0,1.0,0.0,0.0,0.0,1.0,0.0191536132812,2.43729729004,-10.8217915039,1.0,0.0,0.0,0.0,1.0,0.0,0.0,0.0,1.0
1463081041057681754,616,1463081041056047590,,8.10863304138,-19.7615737915,19.5374832153,0.00999999977648,1.0,0.0,0.0,0.0,1.0,0.0,0.0,0.0,1.0,20.7926826477,24.1463432312,66.1585388184,1.0,0.0,0.0,0.0,1.0,0.0,0.0,0.0,1.0,-1.95845695801,-0.790086547852,-12.0380459473,1.0,0.0,0.0,0.0,1.0,0.0,0.0,0.0,1.0
1463081041068057254,617,1463081041066032831,,8.162981987,-19.5499382019,20.2850494385,0.00999999977648,1.0,0.0,0.0,0.0,1.0,0.0,0.0,0.0,1.0,17.0731716156,20.0,64.5121917725,1.0,0.0,0.0,0.0,1.0,0.0,0.0,0.0,1.0,-2.26491477051,-2.3415290775,-13.0292454346,1.0,0.0,0.0,0.0,1.0,0.0,0.0,0.0,1.0
1463081041077753798,618,1463081041076014739,,8.07769870758,-19.3577346802,21.050201416,0.0100010000169,1.0,0.0,0.0,0.0,1.0,0.0,0.0,0.0,1.0,13.658536911,15.4878053665,63.2317123413,1.0,0.0,0.0,0.0,1.0,0.0,0.0,0.0,1.0,-1.45088620605,0.181959326172,-12.0428343506,1.0,0.0,0.0,0.0,1.0,0.0,0.0,0.0,1.0
1463081041088392684,619,1463081041086231386,,8.06641674042,-19.2126216888,21.7572956085,0.00999599974602,1.0,0.0,0.0,0.0,1.0,0.0,0.0,0.0,1.0,9.02439117432,11.8902444839,61.890247345,1.0,0.0,0.0,0.0,1.0,0.0,0.0,0.0,1.0,-1.81001645508,-2.10210891149,-12.1577560303,1.0,0.0,0.0,0.0,1.0,0.0,0.0,0.0,1.0
1463081041098183967,620,1463081041096014075,,7.98933506012,-19.1548061371,22.4548873901,0.0100029995665,1.0,0.0,0.0,0.0,1.0,0.0,0.0,0.0,1.0,4.57317066193,7.19512224197,60.7317085266,1.0,0.0,0.0,0.0,1.0,0.0,0.0,0.0,1.0,-2.69587106934,-1.46525141602,-11.9518546875,1.0,0.0,0.0,0.0,1.0,0.0,0.0,0.0,1.0
1463081041108393634,621,1463081041106034003,,7.85575485229,-19.1629390717,23.130153656,0.010006999597,1.0,0.0,0.0,0.0,1.0,0.0,0.0,0.0,1.0,2.07317066193,1.58536589146,57.9878082275,1.0,0.0,0.0,0.0,1.0,0.0,0.0,0.0,1.0,-3.25611425781,-0.584185168546,-12.990938208,1.0,0.0,0.0,0.0,1.0,0.0,0.0,0.0,1.0
1463081041118676583,622,1463081041116030338,,7.70095968246,-19.1669044495,23.7790927887,0.0099950004369,1.0,0.0,0.0,0.0,1.0,0.0,0.0,0.0,1.0,0.304878056049,-1.58536589146,55.5487785339,1.0,0.0,0.0,0.0,1.0,0.0,0.0,0.0,1.0,-2.09253210485,-0.225054956055,-10.8600987305,1.0,0.0,0.0,0.0,1.0,0.0,0.0,0.0,1.0
1463081041130394789,623,1463081041126041256,,7.53219842911,-19.1677398682,24.4235210419,0.0100010000169,1.0,0.0,0.0,0.0,1.0,0.0,0.0,0.0,1.0,-0.914634168148,-6.95121955872,55.6707344055,1.0,0.0,0.0,0.0,1.0,0.0,0.0,0.0,1.0,-0.981622680664,-0.143652099609,-10.6685625977,1.0,0.0,0.0,0.0,1.0,0.0,0.0,0.0,1.0
1463081041138489044,624,1463081041136276132,,7.40592861176,-19.2427253723,25.0254459381,0.0100090000778,1.0,0.0,0.0,0.0,1.0,0.0,0.0,0.0,1.0,-0.426829278469,-12.1341466904,53.0487823486,1.0,0.0,0.0,0.0,1.0,0.0,0.0,0.0,1.0,-1.75255561523,-0.670376464844,-12.1577560303,1.0,0.0,0.0,0.0,1.0,0.0,0.0,0.0,1.0
1463081041148176630,625,1463081041146012988,,7.36412906647,-19.3273353577,25.5795135498,0.00998799968511,1.0,0.0,0.0,0.0,1.0,0.0,0.0,0.0,1.0,1.52439022064,-18.1097564697,51.0975608826,1.0,0.0,0.0,0.0,1.0,0.0,0.0,0.0,1.0,-0.76135612793,-1.81959326172,-12.2391588867,1.0,0.0,0.0,0.0,1.0,0.0,0.0,0.0,1.0
1463081041158178433,626,1463081041156026718,,7.24637269974,-19.5232429504,26.1280021667,0.0100039998069,1.0,0.0,0.0,0.0,1.0,0.0,0.0,0.0,1.0,1.40243899822,-22.5609760284,48.2926864624,1.0,0.0,0.0,0.0,1.0,0.0,0.0,0.0,1.0,-2.12605122035,-0.0335188255255,-11.0803652832,1.0,0.0,0.0,0.0,1.0,0.0,0.0,0.0,1.0
1463081041168608413,627,1463081041166035657,,7.18060588837,-19.7513160706,26.6529273987,0.00999699998647,1.0,0.0,0.0,0.0,1.0,0.0,0.0,0.0,1.0,2.07317066193,-25.0609760284,47.6829299927,1.0,0.0,0.0,0.0,1.0,0.0,0.0,0.0,1.0,-2.46602770996,-0.871489404297,-11.4634375488,1.0,0.0,0.0,0.0,1.0,0.0,0.0,0.0,1.0
1463081041178251154,628,1463081041176070950,,7.13970136642,-19.9931411743,27.1705665588,0.0100029995665,1.0,0.0,0.0,0.0,1.0,0.0,0.0,0.0,1.0,2.98780488968,-25.3658542633,47.4390258789,1.0,0.0,0.0,0.0,1.0,0.0,0.0,0.0,1.0,-2.91134921875,-1.25456166992,-12.0524111572,1.0,0.0,0.0,0.0,1.0,0.0,0.0,0.0,1.0
1463081041187780250,629,1463081041186028170,,7.00413513184,-20.2094593048,27.7002353668,0.00999599974602,1.0,0.0,0.0,0.0,1.0,0.0,0.0,0.0,1.0,2.01219511032,-22.682926178,45.2439041138,1.0,0.0,0.0,0.0,1.0,0.0,0.0,0.0,1.0,-2.7581203125,0.560243188477,-11.0899420898,1.0,0.0,0.0,0.0,1.0,0.0,0.0,0.0,1.0
1463081041197686377,630,1463081041196007474,,6.96774482727,-20.3833312988,28.217748642,0.00999999977648,1.0,0.0,0.0,0.0,1.0,0.0,0.0,0.0,1.0,5.24390268326,-20.7926826477,46.0975646973,1.0,0.0,0.0,0.0,1.0,0.0,0.0,0.0,1.0,-2.23139594727,-0.76614453125,-10.4866032715,1.0,0.0,0.0,0.0,1.0,0.0,0.0,0.0,1.0
1463081041207719274,631,1463081041206013027,,6.91032218933,-20.5944442749,28.7013511658,0.00999899953604,1.0,0.0,0.0,0.0,1.0,0.0,0.0,0.0,1.0,4.32926845551,-17.134147644,41.5243911743,1.0,0.0,0.0,0.0,1.0,0.0,0.0,0.0,1.0,-3.84987626953,-0.268150604204,-10.4866032715,1.0,0.0,0.0,0.0,1.0,0.0,0.0,0.0,1.0
1463081041218264462,632,1463081041216024570,,6.90696763992,-20.7260723114,29.147485733,0.0100020002574,1.0,0.0,0.0,0.0,1.0,0.0,0.0,0.0,1.0,3.29268312454,-15.4878053665,39.6951217651,1.0,0.0,0.0,0.0,1.0,0.0,0.0,0.0,1.0,-3.064578125,-1.5562310791,-11.9327010742,1.0,0.0,0.0,0.0,1.0,0.0,0.0,0.0,1.0
1463081041228139182,633,1463081041226023249,,6.84661483765,-20.8795490265,29.6104354858,0.00999800022691,1.0,0.0,0.0,0.0,1.0,0.0,0.0,0.0,1.0,2.31707310677,-13.4146347046,39.4512214661,1.0,0.0,0.0,0.0,1.0,0.0,0.0,0.0,1.0,-3.69664736328,-0.541089611728,-10.8840407471,1.0,0.0,0.0,0.0,1.0,0.0,0.0,0.0,1.0
1463081041237839684,634,1463081041236091719,,6.69847154617,-20.9841518402,30.126449585,0.0100020002574,1.0,0.0,0.0,0.0,1.0,0.0,0.0,0.0,1.0,-0.304878056049,-9.45121955872,42.2560958862,1.0,0.0,0.0,0.0,1.0,0.0,0.0,0.0,1.0,-3.3710359375,0.363918652344,-10.6972930176,1.0,0.0,0.0,0.0,1.0,0.0,0.0,0.0,1.0
1463081041247701436,635,1463081041246011856,,6.54863595963,-21.024772644,30.6468296051,0.0100010000169,1.0,0.0,0.0,0.0,1.0,0.0,0.0,0.0,1.0,0.243902444839,-8.17073154449,42.2560958862,1.0,0.0,0.0,0.0,1.0,0.0,0.0,0.0,1.0,-2.39420180629,0.46447512207,-10.8170031006,1.0,0.0,0.0,0.0,1.0,0.0,0.0,0.0,1.0
1463081041257715583,636,1463081041256008347,,6.42513895035,-21.035150528,31.1553459167,0.00999400019646,1.0,0.0,0.0,0.0,1.0,0.0,0.0,0.0,1.0,2.19512200356,-5.36585378647,40.9146385193,1.0,0.0,0.0,0.0,1.0,0.0,0.0,0.0,1.0,-2.44208569336,0.440533105469,-10.9654436035,1.0,0.0,0.0,0.0,1.0,0.0,0.0,0.0,1.0
1463081041268150771,637,1463081041266015462,,6.36323547363,-21.0874099731,31.6461486816,0.0100010000169,1.0,0.0,0.0,0.0,1.0,0.0,0.0,0.0,1.0,9.63414573669,-8.84146404266,38.8414649963,1.0,0.0,0.0,0.0,1.0,0.0,0.0,0.0,1.0,-2.67671745605,0.895431420898,-11.1282493164,1.0,0.0,0.0,0.0,1.0,0.0,0.0,0.0,1.0
1463081041278615907,638,1463081041276030860,,6.40044927597,-21.105884552,32.1121025085,0.0100039998069,1.0,0.0,0.0,0.0,1.0,0.0,0.0,0.0,1.0,16.5853652954,-5.36585378647,36.8902435303,1.0,0.0,0.0,0.0,1.0,0.0,0.0,0.0,1.0,-2.65756384277,0.430956298828,-10.6637741943,1.0,0.0,0.0,0.0,1.0,0.0,0.0,0.0,1.0
1463081041287732712,639,1463081041286014278,,6.49439287186,-21.0896205902,32.5538864136,0.00999999977648,1.0,0.0,0.0,0.0,1.0,0.0,0.0,0.0,1.0,17.4390239716,-1.34146344662,35.7317085266,1.0,0.0,0.0,0.0,1.0,0.0,0.0,0.0,1.0,-2.79163913574,-0.397437475586,-10.5632177246,1.0,0.0,0.0,0.0,1.0,0.0,0.0,0.0,1.0
1463081041297769671,640,1463081041296019258,,6.57239723206,-21.0598468781,33.0182723999,0.00999699998647,1.0,0.0,0.0,0.0,1.0,0.0,0.0,0.0,1.0,16.2195110321,-1.34146344662,38.0487823486,1.0,0.0,0.0,0.0,1.0,0.0,0.0,0.0,1.0,-2.37983659633,-0.493205541992,-10.2280294922,1.0,0.0,0.0,0.0,1.0,0.0,0.0,0.0,1.0
1463081041308476473,641,1463081041306026009,,6.54366016388,-21.0169219971,33.551612854,0.0100029995665,1.0,0.0,0.0,0.0,1.0,0.0,0.0,0.0,1.0,10.9756097794,0.731707334518,43.1097564697,1.0,0.0,0.0,0.0,1.0,0.0,0.0,0.0,1.0,-2.2170307373,0.0861912597656,-9.5432884019,1.0,0.0,0.0,0.0,1.0,0.0,0.0,0.0,1.0
1463081041318682026,642,1463081041316019896,,6.45784521103,-20.9522819519,34.1589050293,0.0100020002574,1.0,0.0,0.0,0.0,1.0,0.0,0.0,0.0,1.0,9.32926845551,2.92682933807,49.2682914734,1.0,0.0,0.0,0.0,1.0,0.0,0.0,0.0,1.0,-2.00634099121,0.344765039063,-9.193734375,1.0,0.0,0.0,0.0,1.0,0.0,0.0,0.0,1.0
1463081041328525341,643,1463081041326065345,,6.36749124527,-20.9069499969,34.7955513,0.0100079998374,1.0,0.0,0.0,0.0,1.0,0.0,0.0,0.0,1.0,9.45121955872,3.29268312454,52.134147644,1.0,0.0,0.0,0.0,1.0,0.0,0.0,0.0,1.0,-2.33195227086,0.292092584273,-9.10275471191,1.0,0.0,0.0,0.0,1.0,0.0,0.0,0.0,1.0
1463081041337713552,644,1463081041336022461,,6.27490663528,-20.81798172,35.4543571472,0.009990000166,1.0,0.0,0.0,0.0,1.0,0.0,0.0,0.0,1.0,10.0609760284,5.97560977936,54.0243911743,1.0,0.0,0.0,0.0,1.0,0.0,0.0,0.0,1.0,-1.89620771484,0.292092584273,-8.58081933452,1.0,0.0,0.0,0.0,1.0,0.0,0.0,0.0,1.0
1463081041347722126,645,1463081041346013848,,6.20258903503,-20.7479457855,36.1345863342,0.0100010000169,1.0,0.0,0.0,0.0,1.0,0.0,0.0,0.0,1.0,11.8292684555,7.86585378647,56.1585388184,1.0,0.0,0.0,0.0,1.0,0.0,0.0,0.0,1.0,-2.52827695312,0.172382519531,-8.75320126953,1.0,0.0,0.0,0.0,1.0,0.0,0.0,0.0,1.0
1463081041357818409,646,1463081041356029610,,6.15426826477,-20.6746883392,36.8178024292,0.0100010000169,1.0,0.0,0.0,0.0,1.0,0.0,0.0,0.0,1.0,15.6707315445,10.3048782349,55.6707344055,1.0,0.0,0.0,0.0,1.0,0.0,0.0,0.0,1.0,-2.82515795898,0.435744702148,-8.58081933452,1.0,0.0,0.0,0.0,1.0,0.0,0.0,0.0,1.0
1463081041368118493,647,1463081041366010632,,6.16588878632,-20.5545520782,37.5058670044,0.00999699998647,1.0,0.0,0.0,0.0,1.0,0.0,0.0,0.0,1.0,18.7195110321,16.2804889679,56.7073173523,1.0,0.0,0.0,0.0,1.0,0.0,0.0,0.0,1.0,-2.90177241211,-0.067037651051,-8.22168850098,1.0,0.0,0.0,0.0,1.0,0.0,0.0,0.0,1.0
1463081041378186806,648,1463081041376097123,,6.1357755661,-20.3803672791,38.2239112854,0.0100010000169,1.0,0.0,0.0,0.0,1.0,0.0,0.0,0.0,1.0,19.3292694092,20.0609760284,57.6829299927,1.0,0.0,0.0,0.0,1.0,0.0,0.0,0.0,1.0,-2.56179577637,0.560243188477,-8.17859287109,1.0,0.0,0.0,0.0,1.0,0.0,0.0,0.0,1.0
1463081041387697882,649,1463081041386037833,,6.13775634766,-20.1812152863,38.9624404907,0.0100039998069,1.0,0.0,0.0,0.0,1.0,0.0,0.0,0.0,1.0,21.7682933807,23.9634151459,59.7560997009,1.0,0.0,0.0,0.0,1.0,0.0,0.0,0.0,1.0,-2.64798703613,0.354341845703,-7.92959589844,1.0,0.0,0.0,0.0,1.0,0.0,0.0,0.0,1.0
1463081041397721925,650,1463081041395999063,,6.18872070312,-19.9708461761,39.7026481628,0.00999199971557,1.0,0.0,0.0,0.0,1.0,0.0,0.0,0.0,1.0,21.9512195587,26.0365848541,61.5853691101,1.0,0.0,0.0,0.0,1.0,0.0,0.0,0.0,1.0,-2.72460148926,-0.363918652344,-7.84819304199,1.0,0.0,0.0,0.0,1.0,0.0,0.0,0.0,1.0
1463081041407830915,651,1463081041406013992,,6.20469236374,-19.7259635925,40.4775047302,0.0100050000474,1.0,0.0,0.0,0.0,1.0,0.0,0.0,0.0,1.0,20.3048782349,30.975610733,63.9634170532,1.0,0.0,0.0,0.0,1.0,0.0,0.0,0.0,1.0,-3.03584770508,-0.225054956055,-8.29830236958,1.0,0.0,0.0,0.0,1.0,0.0,0.0,0.0,1.0
1463081041418345791,652,1463081041416075483,,6.21131420135,-19.4386425018,41.2702217102,0.0100039998069,1.0,0.0,0.0,0.0,1.0,0.0,0.0,0.0,1.0,19.2073173523,35.7317085266,65.4268341064,1.0,0.0,0.0,0.0,1.0,0.0,0.0,0.0,1.0,-3.13161577148,-0.3064578125,-8.52335849468,1.0,0.0,0.0,0.0,1.0,0.0,0.0,0.0,1.0
1463081041428334313,653,1463081041426221192,,6.21639251709,-19.117193222,42.0775375366,0.00999199971557,1.0,0.0,0.0,0.0,1.0,0.0,0.0,0.0,1.0,18.7195110321,40.4268302917,66.707321167,1.0,0.0,0.0,0.0,1.0,0.0,0.0,0.0,1.0,-3.31836350098,-0.387860668945,-8.65264538433,1.0,0.0,0.0,0.0,1.0,0.0,0.0,0.0,1.0
1463081041437797576,654,1463081041436043725,,6.2276763916,-18.752204895,42.8925247192,0.00999699998647,1.0,0.0,0.0,0.0,1.0,0.0,0.0,0.0,1.0,16.7682933807,44.6951217651,67.9268264771,1.0,0.0,0.0,0.0,1.0,0.0,0.0,0.0,1.0,-3.2992098877,-0.814028564453,-8.82023891602,1.0,0.0,0.0,0.0,1.0,0.0,0.0,0.0,1.0
1463081041447838389,655,1463081041446051622,,6.19925546646,-18.33801651,43.7225837708,0.00999999977648,1.0,0.0,0.0,0.0,1.0,0.0,0.0,0.0,1.0,13.841463089,49.1463432312,68.6585388184,1.0,0.0,0.0,0.0,1.0,0.0,0.0,0.0,1.0,-3.19865341797,-0.636857641602,-9.01656345215,1.0,0.0,0.0,0.0,1.0,0.0,0.0,0.0,1.0
1463081041457886807,656,1463081041456006342,,6.14210271835,-17.885175705,44.5612373352,0.0100039998069,1.0,0.0,0.0,0.0,1.0,0.0,0.0,0.0,1.0,11.5243911743,51.9512214661,69.0853652954,1.0,0.0,0.0,0.0,1.0,0.0,0.0,0.0,1.0,-2.97359846191,-0.483628735352,-9.14106193848,1.0,0.0,0.0,0.0,1.0,0.0,0.0,0.0,1.0
1463081041467902882,657,1463081041466083718,,6.09477949142,-17.3991470337,45.3907318115,0.0100220004097,1.0,0.0,0.0,0.0,1.0,0.0,0.0,0.0,1.0,9.69512176514,54.0243911743,68.7195129395,1.0,0.0,0.0,0.0,1.0,0.0,0.0,0.0,1.0,-2.69108266602,-0.799663354492,-9.05487067871,1.0,0.0,0.0,0.0,1.0,0.0,0.0,0.0,1.0
1463081041478267757,658,1463081041476130053,,6.02010154724,-16.8977146149,46.2074394226,0.00997199956328,1.0,0.0,0.0,0.0,1.0,0.0,0.0,0.0,1.0,7.07317113876,54.6951217651,67.7439041138,1.0,0.0,0.0,0.0,1.0,0.0,0.0,0.0,1.0,-2.4756045166,-0.612915625,-9.18894597168,1.0,0.0,0.0,0.0,1.0,0.0,0.0,0.0,1.0
1463081041487950603,659,1463081041486055815,,5.93906259537,-16.3844661713,47.0134353638,0.0100090000778,1.0,0.0,0.0,0.0,1.0,0.0,0.0,0.0,1.0,4.81707286835,54.6951217651,66.8902435303,1.0,0.0,0.0,0.0,1.0,0.0,0.0,0.0,1.0,-2.26012636719,-0.703895288086,-9.2176763916,1.0,0.0,0.0,0.0,1.0,0.0,0.0,0.0,1.0
1463081041497898969,660,1463081041496080587,,5.84736967087,-15.876247406,47.8070640564,0.00999999977648,1.0,0.0,0.0,0.0,1.0,0.0,0.0,0.0,1.0,2.74390244484,54.2682914734,66.0975646973,1.0,0.0,0.0,0.0,1.0,0.0,0.0,0.0,1.0,-2.19787712402,-0.684741674805,-9.16021555176,1.0,0.0,0.0,0.0,1.0,0.0,0.0,0.0,1.0
1463081041507768273,661,1463081041506074318,,5.7533864975,-15.3855772018,48.5814170837,0.0100010000169,1.0,0.0,0.0,0.0,1.0,0.0,0.0,0.0,1.0,-0.243902444839,52.6829299927,65.1219558716,1.0,0.0,0.0,0.0,1.0,0.0,0.0,0.0,1.0,-2.27449157715,-0.981622680664,-9.52413478862,1.0,0.0,0.0,0.0,1.0,0.0,0.0,0.0,1.0
1463081041517857263,662,1463081041516099559,,5.63973283768,-14.9047336578,49.3415412903,0.00999199971557,1.0,0.0,0.0,0.0,1.0,0.0,0.0,0.0,1.0,-2.68292689323,51.6463432312,64.0243911743,1.0,0.0,0.0,0.0,1.0,0.0,0.0,0.0,1.0,-2.26491477051,-0.890643017578,-9.74918916016,1.0,0.0,0.0,0.0,1.0,0.0,0.0,0.0,1.0
1463081041528272035,663,1463081041526296466,,5.52347278595,-14.4412965775,50.0885009766,0.00999800022691,1.0,0.0,0.0,0.0,1.0,0.0,0.0,0.0,1.0,-5.24390268326,51.3414649963,63.3536567688,1.0,0.0,0.0,0.0,1.0,0.0,0.0,0.0,1.0,-2.46602770996,-1.11090957031,-9.65342167827,1.0,0.0,0.0,0.0,1.0,0.0,0.0,0.0,1.0
1463081041538267953,664,1463081041536116082,,5.37710571289,-13.9887361526,50.8285751343,0.00999999977648,1.0,0.0,0.0,0.0,1.0,0.0,0.0,0.0,1.0,-8.04878044128,51.1585388184,62.682926178,1.0,0.0,0.0,0.0,1.0,0.0,0.0,0.0,1.0,-2.66714064941,-0.943315454102,-9.95509050293,1.0,0.0,0.0,0.0,1.0,0.0,0.0,0.0,1.0
1463081041548202308,665,1463081041546236479,,5.23034906387,-13.5378541946,51.541103363,0.0100189996883,1.0,0.0,0.0,0.0,1.0,0.0,0.0,0.0,1.0,-9.81707286835,49.9390258789,60.3658561707,1.0,0.0,0.0,0.0,1.0,0.0,0.0,0.0,1.0,-2.58094938965,-1.0534486574,-10.3668931885,1.0,0.0,0.0,0.0,1.0,0.0,0.0,0.0,1.0
1463081041558292914,666,1463081041556416511,,5.09349107742,-13.0874004364,52.2327003479,0.00998200010508,1.0,0.0,0.0,0.0,1.0,0.0,0.0,0.0,1.0,-8.71951198578,49.3292694092,58.5975608826,1.0,0.0,0.0,0.0,1.0,0.0,0.0,0.0,1.0,-2.48996972656,-0.833182177734,-10.7068698242,1.0,0.0,0.0,0.0,1.0,0.0,0.0,0.0,1.0
1463081041568346800,667,1463081041566224096,,4.94867801666,-12.6627664566,52.906211853,0.0100140003487,1.0,0.0,0.0,0.0,1.0,0.0,0.0,0.0,1.0,-9.75609779358,48.4146347046,56.7682952881,1.0,0.0,0.0,0.0,1.0,0.0,0.0,0.0,1.0,-2.85388837891,-0.675164868164,-10.8122146973,1.0,0.0,0.0,0.0,1.0,0.0,0.0,0.0,1.0
1463081041578321989,668,1463081041576232410,,4.77938842773,-12.2586631775,53.599822998,0.00998600013554,1.0,0.0,0.0,0.0,1.0,0.0,0.0,0.0,1.0,-11.2195119858,47.9878044128,58.9634132385,1.0,0.0,0.0,0.0,1.0,0.0,0.0,0.0,1.0,-3.27047946777,-0.46447512207,-11.511321582,1.0,0.0,0.0,0.0,1.0,0.0,0.0,0.0,1.0
1463081041588192699,669,1463081041586089110,,4.59236860275,-11.8441343307,54.3026275635,0.010006999597,1.0,0.0,0.0,0.0,1.0,0.0,0.0,0.0,1.0,-11.4024391174,50.1219520569,59.390247345,1.0,0.0,0.0,0.0,1.0,0.0,0.0,0.0,1.0,-3.36624753418,-0.0191536132812,-11.166556543,1.0,0.0,0.0,0.0,1.0,0.0,0.0,0.0,1.0
1463081041598532262,670,1463081041596522214,,4.40220499039,-11.4280147552,55.0081329346,0.0100029995665,1.0,0.0,0.0,0.0,1.0,0.0,0.0,0.0,1.0,-11.2195119858,51.8292694092,59.6341438293,1.0,0.0,0.0,0.0,1.0,0.0,0.0,0.0,1.0,-3.74453139648,0.229843359375,-11.4538607422,1.0,0.0,0.0,0.0,1.0,0.0,0.0,0.0,1.0
1463081041608073754,671,1463081041606159643,,4.23935985565,-10.9833164215,55.7167701721,0.0100029995665,1.0,0.0,0.0,0.0,1.0,0.0,0.0,0.0,1.0,-9.75609779358,53.1097602844,60.3048782349,1.0,0.0,0.0,0.0,1.0,0.0,0.0,0.0,1.0,-3.38540114746,0.0814028564453,-11.6118780518,1.0,0.0,0.0,0.0,1.0,0.0,0.0,0.0,1.0
1463081041618164308,672,1463081041616164728,,4.07679700851,-10.537147522,56.433883667,0.0100010000169,1.0,0.0,0.0,0.0,1.0,0.0,0.0,0.0,1.0,-8.71951198578,53.1707305908,61.1585350037,1.0,0.0,0.0,0.0,1.0,0.0,0.0,0.0,1.0,-3.27047946777,0.411802685547,-11.5352635986,1.0,0.0,0.0,0.0,1.0,0.0,0.0,0.0,1.0
1463081041631610375,673,1463081041626055282,,3.94623851776,-10.0766906738,57.1538276672,0.00999299995601,1.0,0.0,0.0,0.0,1.0,0.0,0.0,0.0,1.0,-6.34146356583,53.2317085266,61.8292655945,1.0,0.0,0.0,0.0,1.0,0.0,0.0,0.0,1.0,-2.85388837891,0.359130249023,-11.3676694824,1.0,0.0,0.0,0.0,1.0,0.0,0.0,0.0,1.0
1463081041638026717,674,1463081041636045627,,3.82286477089,-9.61180877686,57.8893928528,0.0100100003183,1.0,0.0,0.0,0.0,1.0,0.0,0.0,0.0,1.0,-5.36585378647,51.3414649963,63.5365829468,1.0,0.0,0.0,0.0,1.0,0.0,0.0,0.0,1.0,-2.28885678711,0.488417138672,-11.3628810791,1.0,0.0,0.0,0.0,1.0,0.0,0.0,0.0,1.0
1463081041648050343,675,1463081041646045191,,3.66749191284,-9.16474723816,58.6732368469,0.00998899992555,1.0,0.0,0.0,0.0,1.0,0.0,0.0,0.0,1.0,-6.0365858078,48.2926864624,68.5365905762,1.0,0.0,0.0,0.0,1.0,0.0,0.0,0.0,1.0,-1.88184250488,0.991199487305,-11.4011883057,1.0,0.0,0.0,0.0,1.0,0.0,0.0,0.0,1.0
1463081041658110323,676,1463081041656028036,,3.53816485405,-8.75103378296,59.4742469788,0.00999899953604,1.0,0.0,0.0,0.0,1.0,0.0,0.0,0.0,1.0,-3.96341490746,44.0853652954,70.7317123413,1.0,0.0,0.0,0.0,1.0,0.0,0.0,0.0,1.0,-1.60890351563,0.952892260742,-11.2288057861,1.0,0.0,0.0,0.0,1.0,0.0,0.0,0.0,1.0
1463081041667573274,677,1463081041666016350,,3.45176768303,-8.40051555634,60.2815475464,0.0100010000169,1.0,0.0,0.0,0.0,1.0,0.0,0.0,0.0,1.0,-0.18292683363,37.865852356,71.9512176514,1.0,0.0,0.0,0.0,1.0,0.0,0.0,0.0,1.0,-1.59453830566,0.976834277344,-11.4299187256,1.0,0.0,0.0,0.0,1.0,0.0,0.0,0.0,1.0
1463081041678183357,678,1463081041676182632,,3.40040135384,-8.11470413208,61.0947418213,0.0100010000169,1.0,0.0,0.0,0.0,1.0,0.0,0.0,0.0,1.0,3.90243911743,33.6585388184,72.8048782349,1.0,0.0,0.0,0.0,1.0,0.0,0.0,0.0,1.0,-1.99676418457,1.19710090314,-11.3963999023,1.0,0.0,0.0,0.0,1.0,0.0,0.0,0.0,1.0
1463081041688156463,679,1463081041686179019,,3.45952510834,-7.86599779129,61.8745498657,0.00999999977648,1.0,0.0,0.0,0.0,1.0,0.0,0.0,0.0,1.0,9.02439117432,29.0853672028,70.6097564697,1.0,0.0,0.0,0.0,1.0,0.0,0.0,0.0,1.0,-1.81959326172,0.143652099609,-11.5496288086,1.0,0.0,0.0,0.0,1.0,0.0,0.0,0.0,1.0
1463081041698450870,680,1463081041696047906,,3.52651429176,-7.65652656555,62.6661453247,0.00999899953604,1.0,0.0,0.0,0.0,1.0,0.0,0.0,0.0,1.0,9.26829242706,24.817073822,72.134147644,1.0,0.0,0.0,0.0,1.0,0.0,0.0,0.0,1.0,-1.54186586914,0.0430956298828,-10.7164466309,1.0,0.0,0.0,0.0,1.0,0.0,0.0,0.0,1.0
1463081041707473925,681,1463081041706028095,,3.55026483536,-7.47854566574,63.4941940308,0.00999999977648,1.0,0.0,0.0,0.0,1.0,0.0,0.0,0.0,1.0,6.46341466904,20.6707324982,75.8536605835,1.0,0.0,0.0,0.0,1.0,0.0,0.0,0.0,1.0,-1.28808049316,0.287304199219,-11.0037508301,1.0,0.0,0.0,0.0,1.0,0.0,0.0,0.0,1.0
1463081041718711768,682,1463081041716187762,,3.5431804657,-7.33946084976,64.3797073364,0.00999699998647,1.0,0.0,0.0,0.0,1.0,0.0,0.0,0.0,1.0,5.36585378647,13.2926826477,81.8902435303,1.0,0.0,0.0,0.0,1.0,0.0,0.0,0.0,1.0,-0.46447512207,0.531512805087,-10.3285859619,1.0,0.0,0.0,0.0,1.0,0.0,0.0,0.0,1.0
1463081041728539197,683,1463081041726172639,,3.49250459671,-7.21461343765,65.3122634888,0.0100029995665,1.0,0.0,0.0,0.0,1.0,0.0,0.0,0.0,1.0,3.53658556938,8.23170757294,86.5853729248,1.0,0.0,0.0,0.0,1.0,0.0,0.0,0.0,1.0,0.263362164351,0.876277807617,-9.69651672363,1.0,0.0,0.0,0.0,1.0,0.0,0.0,0.0,1.0
1463081041738090688,684,1463081041736032047,,3.436160326,-7.19020700455,66.286857605,0.00999999977648,1.0,0.0,0.0,0.0,1.0,0.0,0.0,0.0,1.0,4.39024400711,-1.40243899822,91.2804870605,1.0,0.0,0.0,0.0,1.0,0.0,0.0,0.0,1.0,0.234631762695,1.01035310059,-9.23204160156,1.0,0.0,0.0,0.0,1.0,0.0,0.0,0.0,1.0
1463081041748245044,685,1463081041746226714,,3.36315703392,-7.22598028183,67.3067092896,0.00999899953604,1.0,0.0,0.0,0.0,1.0,0.0,0.0,0.0,1.0,4.57317066193,-10.4878053665,96.1585388184,1.0,0.0,0.0,0.0,1.0,0.0,0.0,0.0,1.0,0.718260498047,1.13485158691,-8.44195446919,1.0,0.0,0.0,0.0,1.0,0.0,0.0,0.0,1.0
1463081041758140962,686,1463081041756046331,,3.29329109192,-7.34282922745,68.3592758179,0.00999800022691,1.0,0.0,0.0,0.0,1.0,0.0,0.0,0.0,1.0,6.7682929039,-17.9268302917,99.634147644,1.0,0.0,0.0,0.0,1.0,0.0,0.0,0.0,1.0,0.603338854892,1.30244570312,-8.11634362793,1.0,0.0,0.0,0.0,1.0,0.0,0.0,0.0,1.0
1463081041768045943,687,1463081041766079957,,3.23045778275,-7.54935789108,69.4358901978,0.0100020002574,1.0,0.0,0.0,0.0,1.0,0.0,0.0,0.0,1.0,9.20731735229,-27.0121955872,102.256095886,1.0,0.0,0.0,0.0,1.0,0.0,0.0,0.0,1.0,0.603338854892,1.4604630127,-7.97269152832,1.0,0.0,0.0,0.0,1.0,0.0,0.0,0.0,1.0
1463081041778205506,688,1463081041776187021,,3.18970131874,-7.83899927139,70.5244979858,0.0100010000169,1.0,0.0,0.0,0.0,1.0,0.0,0.0,0.0,1.0,14.6341466904,-32.865852356,103.292686462,1.0,0.0,0.0,0.0,1.0,0.0,0.0,0.0,1.0,0.225054956055,1.87226569824,-8.01099875488,1.0,0.0,0.0,0.0,1.0,0.0,0.0,0.0,1.0
1463081041788040956,689,1463081041786018199,,3.21181702614,-8.19411945343,71.6128463745,0.0100010000169,1.0,0.0,0.0,0.0,1.0,0.0,0.0,0.0,1.0,21.5853652954,-38.8414649963,103.414634705,1.0,0.0,0.0,0.0,1.0,0.0,0.0,0.0,1.0,0.0957680664062,1.84353527832,-7.81946262207,1.0,0.0,0.0,0.0,1.0,0.0,0.0,0.0,1.0
1463081041798013801,690,1463081041796014378,,3.26751279831,-8.60314369202,72.6960983276,0.00999699998647,1.0,0.0,0.0,0.0,1.0,0.0,0.0,0.0,1.0,27.6219520569,-43.5365867615,102.743904114,1.0,0.0,0.0,0.0,1.0,0.0,0.0,0.0,1.0,-0.0383072265625,2.1691467041,-7.86255825195,1.0,0.0,0.0,0.0,1.0,0.0,0.0,0.0,1.0
1463081041807973990,691,1463081041806008785,,3.35345482826,-9.07996940613,73.7889251709,0.00999800022691,1.0,0.0,0.0,0.0,1.0,0.0,0.0,0.0,1.0,33.7804870605,-48.0487823486,103.414634705,1.0,0.0,0.0,0.0,1.0,0.0,0.0,0.0,1.0,-0.383072265625,2.48996972656,-7.77636699219,1.0,0.0,0.0,0.0,1.0,0.0,0.0,0.0,1.0
1463081041823441876,692,1463081041816187568,,3.53455519676,-9.59547042847,74.8575592041,0.0100010000169,1.0,0.0,0.0,0.0,1.0,0.0,0.0,0.0,1.0,42.5,-50.6097564697,101.158538818,1.0,0.0,0.0,0.0,1.0,0.0,0.0,0.0,1.0,-0.646434448242,2.3415290775,-8.02536396484,1.0,0.0,0.0,0.0,1.0,0.0,0.0,0.0,1.0
1463081041828457596,693,1463081041826478902,,3.82989311218,-10.1780824661,75.9018554688,0.0100269997492,1.0,0.0,0.0,0.0,1.0,0.0,0.0,0.0,1.0,50.6707344055,-53.4756126404,99.207321167,1.0,0.0,0.0,0.0,1.0,0.0,0.0,0.0,1.0,-1.2737152832,1.7908628418,-8.2743609375,1.0,0.0,0.0,0.0,1.0,0.0,0.0,0.0,1.0
1463081041838523566,694,1463081041836559767,,4.21363258362,-10.7552213669,76.8916015625,0.00997900031507,1.0,0.0,0.0,0.0,1.0,0.0,0.0,0.0,1.0,54.4512214661,-53.6585388184,95.3048782349,1.0,0.0,0.0,0.0,1.0,0.0,0.0,0.0,1.0,-1.33117612305,0.957680664062,-8.78193168945,1.0,0.0,0.0,0.0,1.0,0.0,0.0,0.0,1.0
1463081041848275630,695,1463081041846286363,,4.62877559662,-11.3336763382,77.8465652466,0.010006999597,1.0,0.0,0.0,0.0,1.0,0.0,0.0,0.0,1.0,56.3414649963,-53.6585388184,92.0121994019,1.0,0.0,0.0,0.0,1.0,0.0,0.0,0.0,1.0,-1.36948334961,0.679953271484,-8.88248815918,1.0,0.0,0.0,0.0,1.0,0.0,0.0,0.0,1.0
1463081041858292225,696,1463081041856155458,,5.06974744797,-11.8887052536,78.750213623,0.00998799968511,1.0,0.0,0.0,0.0,1.0,0.0,0.0,0.0,1.0,55.8536605835,-54.2682914734,87.9878082275,1.0,0.0,0.0,0.0,1.0,0.0,0.0,0.0,1.0,-0.962469067383,0.110133276367,-8.90643017578,1.0,0.0,0.0,0.0,1.0,0.0,0.0,0.0,1.0
1463081041867691946,697,1463081041866043252,,5.51394271851,-12.4399385452,79.6123504639,0.0100020002574,1.0,0.0,0.0,0.0,1.0,0.0,0.0,0.0,1.0,53.2317085266,-54.9390258789,84.6951217651,1.0,0.0,0.0,0.0,1.0,0.0,0.0,0.0,1.0,-0.809240161133,-0.411802685547,-8.80108530273,1.0,0.0,0.0,0.0,1.0,0.0,0.0,0.0,1.0
1463081041878390884,698,1463081041876328492,,5.89427900314,-13.0031480789,80.4490356445,0.00999999977648,1.0,0.0,0.0,0.0,1.0,0.0,0.0,0.0,1.0,47.7439041138,-56.0365867615,82.4390258789,1.0,0.0,0.0,0.0,1.0,0.0,0.0,0.0,1.0,-0.895431420898,-0.397437475586,-9.2416184082,1.0,0.0,0.0,0.0,1.0,0.0,0.0,0.0,1.0
1463081041891973670,699,1463081041886618837,,6.27118873596,-13.5777683258,81.2244873047,0.0100050000474,1.0,0.0,0.0,0.0,1.0,0.0,0.0,0.0,1.0,42.317073822,-56.1585388184,77.6829299927,1.0,0.0,0.0,0.0,1.0,0.0,0.0,0.0,1.0,-1.17794714373,-1.23540805664,-9.39484672993,1.0,0.0,0.0,0.0,1.0,0.0,0.0,0.0,1.0
1463081041902045734,700,1463081041897015952,,6.59548997879,-14.1504983902,81.940574646,0.0100140003487,1.0,0.0,0.0,0.0,1.0,0.0,0.0,0.0,1.0,33.1097564697,-54.634147644,72.6829223633,1.0,0.0,0.0,0.0,1.0,0.0,0.0,0.0,1.0,-1.44130939941,-1.77649763184,-8.90164177246,1.0,0.0,0.0,0.0,1.0,0.0,0.0,0.0,1.0
1463081041910905039,701,1463081041906133382,,6.80468845367,-14.701622963,82.6308441162,0.00998700037599,1.0,0.0,0.0,0.0,1.0,0.0,0.0,0.0,1.0,22.9878044128,-51.2804870605,69.8170776367,1.0,0.0,0.0,0.0,1.0,0.0,0.0,0.0,1.0,-1.838746875,-1.70467158203,-9.34217429341,1.0,0.0,0.0,0.0,1.0,0.0,0.0,0.0,1.0
1463081041921462050,702,1463081041916711486,,6.87804222107,-15.2128095627,83.3225631714,0.0100060002878,1.0,0.0,0.0,0.0,1.0,0.0,0.0,0.0,1.0,9.81707286835,-46.5853691101,69.3292694092,1.0,0.0,0.0,0.0,1.0,0.0,0.0,0.0,1.0,-1.86747729492,-1.64242233887,-8.65264538433,1.0,0.0,0.0,0.0,1.0,0.0,0.0,0.0,1.0
1463081041931370156,703,1463081041927505267,,6.7272439003,-15.6506538391,84.0366592407,0.0100159998983,1.0,0.0,0.0,0.0,1.0,0.0,0.0,0.0,1.0,-2.92682933807,-44.390247345,68.6585388184,1.0,0.0,0.0,0.0,1.0,0.0,0.0,0.0,1.0,-1.15879360352,-0.277727392578,-9.02614025879,1.0,0.0,0.0,0.0,1.0,0.0,0.0,0.0,1.0
1463081041938235819,704,1463081041936183011,,6.50921154022,-16.0603733063,84.7400741577,0.00997900031507,1.0,0.0,0.0,0.0,1.0,0.0,0.0,0.0,1.0,-9.63414573669,-40.5487823486,67.134147644,1.0,0.0,0.0,0.0,1.0,0.0,0.0,0.0,1.0,-1.52271225586,-0.287304199219,-9.2655604248,1.0,0.0,0.0,0.0,1.0,0.0,0.0,0.0,1.0
1463081041948132935,705,1463081041946137627,,6.23721551895,-16.4326457977,85.4184341431,0.0099950004369,1.0,0.0,0.0,0.0,1.0,0.0,0.0,0.0,1.0,-14.7560987473,-37.317073822,63.7195167542,1.0,0.0,0.0,0.0,1.0,0.0,0.0,0.0,1.0,-1.5322890625,-0.15322890625,-8.87291135254,1.0,0.0,0.0,0.0,1.0,0.0,0.0,0.0,1.0
1463081041957674896,706,1463081041956053753,,5.99104642868,-16.7587814331,86.0253143311,0.00999100040644,1.0,0.0,0.0,0.0,1.0,0.0,0.0,0.0,1.0,-14.9390249252,-33.2926826477,56.4024429321,1.0,0.0,0.0,0.0,1.0,0.0,0.0,0.0,1.0,-1.75734401855,-0.3064578125,-9.33259748677,1.0,0.0,0.0,0.0,1.0,0.0,0.0,0.0,1.0
1463081041967746908,707,1463081041966196702,,5.76938295364,-17.0376815796,86.5545425415,0.0100079998374,1.0,0.0,0.0,0.0,1.0,0.0,0.0,0.0,1.0,-14.1463422775,-29.5731697083,48.1097602844,1.0,0.0,0.0,0.0,1.0,0.0,0.0,0.0,1.0,-1.81959326172,-0.215478149414,-9.37090471333,1.0,0.0,0.0,0.0,1.0,0.0,0.0,0.0,1.0
1463081041978370064,708,1463081041976391474,,5.56194782257,-17.2516727448,86.9923095703,0.00999699998647,1.0,0.0,0.0,0.0,1.0,0.0,0.0,0.0,1.0,-13.2317075729,-23.8414649963,37.9878044128,1.0,0.0,0.0,0.0,1.0,0.0,0.0,0.0,1.0,-1.93930334473,0.177170922852,-9.41878874653,1.0,0.0,0.0,0.0,1.0,0.0,0.0,0.0,1.0
1463081041988109628,709,1463081041986116976,,5.4283452034,-17.4047451019,87.336769104,0.0100020002574,1.0,0.0,0.0,0.0,1.0,0.0,0.0,0.0,1.0,-11.5243911743,-18.5365848541,29.3292694092,1.0,0.0,0.0,0.0,1.0,0.0,0.0,0.0,1.0,-2.02549460449,-0.330399829102,-9.47624958638,1.0,0.0,0.0,0.0,1.0,0.0,0.0,0.0,1.0
1463081041998097421,710,1463081041996097842,,5.30308771133,-17.4653244019,87.6331253052,0.0100010000169,1.0,0.0,0.0,0.0,1.0,0.0,0.0,0.0,1.0,-15.548781395,-13.1097564697,25.2439041138,1.0,0.0,0.0,0.0,1.0,0.0,0.0,0.0,1.0,-1.49398183594,-0.948103857422,-9.62469125835,1.0,0.0,0.0,0.0,1.0,0.0,0.0,0.0,1.0
1463081042007823653,711,1463081042006224281,,5.04848575592,-17.4811496735,87.9292373657,0.00999999977648,1.0,0.0,0.0,0.0,1.0,0.0,0.0,0.0,1.0,-21.7682933807,-7.25609779358,22.5,1.0,0.0,0.0,0.0,1.0,0.0,0.0,0.0,1.0,-1.78128603516,0.296881024126,-9.65821008159,1.0,0.0,0.0,0.0,1.0,0.0,0.0,0.0,1.0
1463081042017674727,712,1463081042016076866,,4.81575918198,-17.4535064697,88.1755142212,0.00999999977648,1.0,0.0,0.0,0.0,1.0,0.0,0.0,0.0,1.0,-24.1463432312,-2.19512200356,18.2317085266,1.0,0.0,0.0,0.0,1.0,0.0,0.0,0.0,1.0,-2.07816689489,-0.225054956055,-9.98860932617,1.0,0.0,0.0,0.0,1.0,0.0,0.0,0.0,1.0
1463081042028247259,713,1463081042026234971,,4.57411336899,-17.332988739,88.3759689331,0.00999899953604,1.0,0.0,0.0,0.0,1.0,0.0,0.0,0.0,1.0,-27.5609760284,5.91463422775,13.5365858078,1.0,0.0,0.0,0.0,1.0,0.0,0.0,0.0,1.0,-1.90099611816,-0.387860668945,-9.7827079834,1.0,0.0,0.0,0.0,1.0,0.0,0.0,0.0,1.0
1463081042038188698,714,1463081042036182191,,4.34851169586,-17.1517486572,88.5257339478,0.0100020002574,1.0,0.0,0.0,0.0,1.0,0.0,0.0,0.0,1.0,-27.682926178,11.4024391174,8.35365867615,1.0,0.0,0.0,0.0,1.0,0.0,0.0,0.0,1.0,-1.96803376465,-0.402225878906,-10.3573163818,1.0,0.0,0.0,0.0,1.0,0.0,0.0,0.0,1.0
1463081042048175293,715,1463081042046184099,,4.14338302612,-16.9215869904,88.6362304688,0.00999999977648,1.0,0.0,0.0,0.0,1.0,0.0,0.0,0.0,1.0,-28.1707324982,15.7317075729,4.75609779358,1.0,0.0,0.0,0.0,1.0,0.0,0.0,0.0,1.0,-1.83395847168,-0.603338854892,-10.0652237793,1.0,0.0,0.0,0.0,1.0,0.0,0.0,0.0,1.0
1463081042057865326,716,1463081042056182777,,3.89113092422,-16.6287288666,88.758644104,0.00999400019646,1.0,0.0,0.0,0.0,1.0,0.0,0.0,0.0,1.0,-30.4878044128,21.341463089,4.93902444839,1.0,0.0,0.0,0.0,1.0,0.0,0.0,0.0,1.0,-1.69988317871,-0.172382519531,-10.2950671387,1.0,0.0,0.0,0.0,1.0,0.0,0.0,0.0,1.0
1463081042067658380,717,1463081042066059008,,3.5842218399,-16.2932262421,88.9136428833,0.0100050000474,1.0,0.0,0.0,0.0,1.0,0.0,0.0,0.0,1.0,-32.7439041138,24.9390239716,7.25609779358,1.0,0.0,0.0,0.0,1.0,0.0,0.0,0.0,1.0,-1.5562310791,0.330399829102,-10.7020814209,1.0,0.0,0.0,0.0,1.0,0.0,0.0,0.0,1.0
1463081042078126172,718,1463081042076137217,,3.27308344841,-15.9418134689,89.1044540405,0.00999599974602,1.0,0.0,0.0,0.0,1.0,0.0,0.0,0.0,1.0,-32.1951217651,27.317073822,10.7317075729,1.0,0.0,0.0,0.0,1.0,0.0,0.0,0.0,1.0,-1.61848032227,0.407014282227,-10.7499654541,1.0,0.0,0.0,0.0,1.0,0.0,0.0,0.0,1.0
1463081042088304850,719,1463081042086281312,,2.99866294861,-15.5823574066,89.3129425049,0.0100050000474,1.0,0.0,0.0,0.0,1.0,0.0,0.0,0.0,1.0,-28.9024410248,30.1219520569,12.6829271317,1.0,0.0,0.0,0.0,1.0,0.0,0.0,0.0,1.0,-1.95845695801,0.316034619141,-10.8122146973,1.0,0.0,0.0,0.0,1.0,0.0,0.0,0.0,1.0
1463081042098369570,720,1463081042096370199,,2.75470852852,-15.1893177032,89.5296173096,0.00999899953604,1.0,0.0,0.0,0.0,1.0,0.0,0.0,0.0,1.0,-25.7926845551,32.0121955872,13.5975618362,1.0,0.0,0.0,0.0,1.0,0.0,0.0,0.0,1.0,-1.64242233887,0.368707055664,-11.0899420898,1.0,0.0,0.0,0.0,1.0,0.0,0.0,0.0,1.0
1463081042107799551,721,1463081042106183825,,2.55803489685,-14.7905044556,89.7472305298,0.0100029995665,1.0,0.0,0.0,0.0,1.0,0.0,0.0,0.0,1.0,-20.7317085266,31.5243930817,13.7804880142,1.0,0.0,0.0,0.0,1.0,0.0,0.0,0.0,1.0,-1.41736738281,0.521935925381,-11.5161099854,1.0,0.0,0.0,0.0,1.0,0.0,0.0,0.0,1.0
1463081042117811511,722,1463081042116192921,,2.41693973541,-14.3957576752,89.9570617676,0.0100020002574,1.0,0.0,0.0,0.0,1.0,0.0,0.0,0.0,1.0,-15.4268302917,30.2439022064,13.2317075729,1.0,0.0,0.0,0.0,1.0,0.0,0.0,0.0,1.0,-1.16837033709,0.574608398438,-11.4969563721,1.0,0.0,0.0,0.0,1.0,0.0,0.0,0.0,1.0
1463081042128180397,723,1463081042126156547,,2.33348274231,-14.0423078537,90.1740646362,0.00999199971557,1.0,0.0,0.0,0.0,1.0,0.0,0.0,0.0,1.0,-11.2195119858,26.8292694092,14.6341466904,1.0,0.0,0.0,0.0,1.0,0.0,0.0,0.0,1.0,-1.25456166992,0.268150604204,-11.7172229248,1.0,0.0,0.0,0.0,1.0,0.0,0.0,0.0,1.0
1463081042138144805,724,1463081042136149809,,2.2761361599,-13.6916599274,90.4097061157,0.0100010000169,1.0,0.0,0.0,0.0,1.0,0.0,0.0,0.0,1.0,-8.04878044128,27.9878063202,16.4024391174,1.0,0.0,0.0,0.0,1.0,0.0,0.0,0.0,1.0,-1.28808049316,0.292092584273,-10.180145459,1.0,0.0,0.0,0.0,1.0,0.0,0.0,0.0,1.0
1463081042148641034,725,1463081042146055206,,2.24719905853,-13.3740768433,90.6590957642,0.0100010000169,1.0,0.0,0.0,0.0,1.0,0.0,0.0,0.0,1.0,-6.64634132385,23.0487823486,18.4146347046,1.0,0.0,0.0,0.0,1.0,0.0,0.0,0.0,1.0,-0.986411083984,-0.00478840332031,-10.927136377,1.0,0.0,0.0,0.0,1.0,0.0,0.0,0.0,1.0
1463081042158402422,726,1463081042156053989,,2.2430961132,-13.0617198944,90.9176635742,0.0100020002574,1.0,0.0,0.0,0.0,1.0,0.0,0.0,0.0,1.0,-7.68292665482,20.7317085266,20.3048782349,1.0,0.0,0.0,0.0,1.0,0.0,0.0,0.0,1.0,-0.531512805087,-0.675164868164,-10.314220752,1.0,0.0,0.0,0.0,1.0,0.0,0.0,0.0,1.0
1463081042168293652,727,1463081042166068344,,2.19545483589,-12.7998285294,91.2000961304,0.0100180003792,1.0,0.0,0.0,0.0,1.0,0.0,0.0,0.0,1.0,-10.9146347046,16.4024391174,22.6219520569,1.0,0.0,0.0,0.0,1.0,0.0,0.0,0.0,1.0,-0.598550451572,-0.536301208408,-10.2519715088,1.0,0.0,0.0,0.0,1.0,0.0,0.0,0.0,1.0
1463081042181284408,728,1463081042176051658,,2.13418769836,-12.5703907013,91.4839630127,0.00999100040644,1.0,0.0,0.0,0.0,1.0,0.0,0.0,0.0,1.0,-13.5365858078,12.5609760284,23.2926845551,1.0,0.0,0.0,0.0,1.0,0.0,0.0,0.0,1.0,-0.402225878906,-0.703895288086,-9.66299848491,1.0,0.0,0.0,0.0,1.0,0.0,0.0,0.0,1.0
1463081042188674029,729,1463081042186019816,,2.02642273903,-12.3995838165,91.7869873047,0.00999299995601,1.0,0.0,0.0,0.0,1.0,0.0,0.0,0.0,1.0,-17.8658542633,9.45121955872,25.3048782349,1.0,0.0,0.0,0.0,1.0,0.0,0.0,0.0,1.0,-0.823605371094,-0.679953271484,-9.48582756206,1.0,0.0,0.0,0.0,1.0,0.0,0.0,0.0,1.0
1463081042198641822,730,1463081042196065890,,1.88011658192,-12.2605142593,92.097984314,0.0100109996274,1.0,0.0,0.0,0.0,1.0,0.0,0.0,0.0,1.0,-20.5487823486,6.89024400711,25.9146347046,1.0,0.0,0.0,0.0,1.0,0.0,0.0,0.0,1.0,-0.890643017578,-0.46447512207,-9.24640681152,1.0,0.0,0.0,0.0,1.0,0.0,0.0,0.0,1.0
1463081042208525761,731,1463081042206046339,,1.73561966419,-12.1492624283,92.3893356323,0.0100029995665,1.0,0.0,0.0,0.0,1.0,0.0,0.0,0.0,1.0,-20.5487823486,3.90243911743,24.0853652954,1.0,0.0,0.0,0.0,1.0,0.0,0.0,0.0,1.0,-0.871489404297,-0.397437475586,-9.44273076313,1.0,0.0,0.0,0.0,1.0,0.0,0.0,0.0,1.0
1463081042218460846,732,1463081042216078247,,1.58631312847,-12.0667190552,92.6660385132,0.00998899992555,1.0,0.0,0.0,0.0,1.0,0.0,0.0,0.0,1.0,-19.0853652954,2.37804889679,22.2560977936,1.0,0.0,0.0,0.0,1.0,0.0,0.0,0.0,1.0,-1.11090957031,0.0239420166016,-9.5432884019,1.0,0.0,0.0,0.0,1.0,0.0,0.0,0.0,1.0
1463081042228099213,733,1463081042226029894,,1.48970258236,-12.0365743637,92.9112930298,0.00999699998647,1.0,0.0,0.0,0.0,1.0,0.0,0.0,0.0,1.0,-16.8902435303,0.12195122242,19.7560977936,1.0,0.0,0.0,0.0,1.0,0.0,0.0,0.0,1.0,-1.55144267578,-0.349553442383,-9.04050546875,1.0,0.0,0.0,0.0,1.0,0.0,0.0,0.0,1.0
1463081042238554922,734,1463081042236015708,,1.37564659119,-12.0129261017,93.1604003906,0.00999800022691,1.0,0.0,0.0,0.0,1.0,0.0,0.0,0.0,1.0,-16.0975608826,-1.03658533096,19.6341457367,1.0,0.0,0.0,0.0,1.0,0.0,0.0,0.0,1.0,-1.43173259277,0.0718260498047,-8.81066210937,1.0,0.0,0.0,0.0,1.0,0.0,0.0,0.0,1.0
1463081042248484382,735,1463081042246034959,,1.23481714725,-11.9689722061,93.4270782471,0.010006999597,1.0,0.0,0.0,0.0,1.0,0.0,0.0,0.0,1.0,-16.2195110321,-0.914634168148,20.8536586761,1.0,0.0,0.0,0.0,1.0,0.0,0.0,0.0,1.0,-1.12527478027,0.440533105469,-8.80108530273,1.0,0.0,0.0,0.0,1.0,0.0,0.0,0.0,1.0
1463081042258625872,736,1463081042256019367,,1.08658051491,-11.9579763412,93.7058029175,0.00998600013554,1.0,0.0,0.0,0.0,1.0,0.0,0.0,0.0,1.0,-16.8292694092,-2.19512200356,22.1341457367,1.0,0.0,0.0,0.0,1.0,0.0,0.0,0.0,1.0,-1.45567460937,0.45489831543,-8.86812294922,1.0,0.0,0.0,0.0,1.0,0.0,0.0,0.0,1.0
1463081042267875698,737,1463081042266225076,,0.972384333611,-11.951505661,93.993057251,0.0100079998374,1.0,0.0,0.0,0.0,1.0,0.0,0.0,0.0,1.0,-15.3048791885,-2.62195134163,23.3536586761,1.0,0.0,0.0,0.0,1.0,0.0,0.0,0.0,1.0,-1.43652099609,0.138863696289,-8.68616362305,1.0,0.0,0.0,0.0,1.0,0.0,0.0,0.0,1.0
1463081042278153178,738,1463081042276134067,,0.881370842457,-11.9488916397,94.2915420532,0.009990000166,1.0,0.0,0.0,0.0,1.0,0.0,0.0,0.0,1.0,-12.1341466904,-4.2682929039,24.3902435303,1.0,0.0,0.0,0.0,1.0,0.0,0.0,0.0,1.0,-1.39821376953,0.287304199219,-9.7827079834,1.0,0.0,0.0,0.0,1.0,0.0,0.0,0.0,1.0
1463081042288107169,739,1463081042286051340,,0.800673305988,-11.9601964951,94.5958251953,0.0100010000169,1.0,0.0,0.0,0.0,1.0,0.0,0.0,0.0,1.0,-8.71951198578,-5.24390268326,24.4512195587,1.0,0.0,0.0,0.0,1.0,0.0,0.0,0.0,1.0,-1.34075292969,0.641646044922,-8.87769975586,1.0,0.0,0.0,0.0,1.0,0.0,0.0,0.0,1.0
1463081042298056160,740,1463081042296076528,,0.766737878323,-11.9926357269,94.9114456177,0.00999999977648,1.0,0.0,0.0,0.0,1.0,0.0,0.0,0.0,1.0,-5.42682933807,-6.21951246262,25.9146347046,1.0,0.0,0.0,0.0,1.0,0.0,0.0,0.0,1.0,-1.64721074219,0.421379492187,-9.56723041851,1.0,0.0,0.0,0.0,1.0,0.0,0.0,0.0,1.0
1463081042308488483,741,1463081042306078801,,0.74185103178,-12.0400533676,95.2355194092,0.0100010000169,1.0,0.0,0.0,0.0,1.0,0.0,0.0,0.0,1.0,-3.29268312454,-7.56097555161,26.5243911743,1.0,0.0,0.0,0.0,1.0,0.0,0.0,0.0,1.0,-1.61369191895,0.584185168546,-9.18415756836,1.0,0.0,0.0,0.0,1.0,0.0,0.0,0.0,1.0
1463081042317779507,742,1463081042316067479,,0.748349785805,-12.084980011,95.5699005127,0.0100010000169,1.0,0.0,0.0,0.0,1.0,0.0,0.0,0.0,1.0,-1.2804877758,-7.19512224197,27.8048782349,1.0,0.0,0.0,0.0,1.0,0.0,0.0,0.0,1.0,-1.69030637207,0.368707055664,-9.46667277974,1.0,0.0,0.0,0.0,1.0,0.0,0.0,0.0,1.0
1463081042327783394,743,1463081042326100116,,0.758079111576,-12.142209053,95.9202194214,0.00999800022691,1.0,0.0,0.0,0.0,1.0,0.0,0.0,0.0,1.0,1.34146344662,-8.78048801422,28.9634151459,1.0,0.0,0.0,0.0,1.0,0.0,0.0,0.0,1.0,-1.60890351563,0.694318481445,-9.33259748677,1.0,0.0,0.0,0.0,1.0,0.0,0.0,0.0,1.0
1463081042338590404,744,1463081042336054576,,0.805974781513,-12.2002334595,96.2730941772,0.00999800022691,1.0,0.0,0.0,0.0,1.0,0.0,0.0,0.0,1.0,4.75609779358,-9.87804889679,29.3292694092,1.0,0.0,0.0,0.0,1.0,0.0,0.0,0.0,1.0,-1.4604630127,0.612915625,-9.44751916645,1.0,0.0,0.0,0.0,1.0,0.0,0.0,0.0,1.0
1463081042348442103,745,1463081042346073306,,0.879809677601,-12.2754898071,96.6282424927,0.0100010000169,1.0,0.0,0.0,0.0,1.0,0.0,0.0,0.0,1.0,8.78048801422,-11.7073173523,29.2682933807,1.0,0.0,0.0,0.0,1.0,0.0,0.0,0.0,1.0,-1.47482822266,0.857124194336,-9.64863327495,1.0,0.0,0.0,0.0,1.0,0.0,0.0,0.0,1.0
1463081042358281147,746,1463081042356270734,,0.991291224957,-12.3573684692,96.9870605469,0.0100109996274,1.0,0.0,0.0,0.0,1.0,0.0,0.0,0.0,1.0,12.8048782349,-12.7439022064,29.5731697083,1.0,0.0,0.0,0.0,1.0,0.0,0.0,0.0,1.0,-1.43652099609,0.885854614258,-9.82580361328,1.0,0.0,0.0,0.0,1.0,0.0,0.0,0.0,1.0
1463081042367761962,747,1463081042366086600,,1.14956021309,-12.4726934433,97.349357605,0.00999699998647,1.0,0.0,0.0,0.0,1.0,0.0,0.0,0.0,1.0,14.6951217651,-15.3048791885,30.6707305908,1.0,0.0,0.0,0.0,1.0,0.0,0.0,0.0,1.0,-1.58496149902,0.335188232422,-9.85932243652,1.0,0.0,0.0,0.0,1.0,0.0,0.0,0.0,1.0
1463081042378504128,748,1463081042376070383,,1.29057598114,-12.5893325806,97.736289978,0.00999599974602,1.0,0.0,0.0,0.0,1.0,0.0,0.0,0.0,1.0,14.0243902206,-15.3048791885,32.9878044128,1.0,0.0,0.0,0.0,1.0,0.0,0.0,0.0,1.0,-1.5562310791,0.378283862305,-9.57201882183,1.0,0.0,0.0,0.0,1.0,0.0,0.0,0.0,1.0
1463081042388554890,749,1463081042386090728,,1.39799177647,-12.7363872528,98.1624526978,0.0100029995665,1.0,0.0,0.0,0.0,1.0,0.0,0.0,0.0,1.0,13.658536911,-16.2195110321,36.3414611816,1.0,0.0,0.0,0.0,1.0,0.0,0.0,0.0,1.0,-2.05422502441,0.775721337891,-10.2567599121,1.0,0.0,0.0,0.0,1.0,0.0,0.0,0.0,1.0
1463081042397886695,750,1463081042396078261,,1.49012815952,-12.8857460022,98.5989532471,0.00999599974602,1.0,0.0,0.0,0.0,1.0,0.0,0.0,0.0,1.0,14.6951217651,-17.1951217651,36.8902435303,1.0,0.0,0.0,0.0,1.0,0.0,0.0,0.0,1.0,-1.97761057129,1.21146604004,-10.5440641113,1.0,0.0,0.0,0.0,1.0,0.0,0.0,0.0,1.0
1463081042408960006,751,1463081042406434386,,1.63688051701,-13.0483226776,99.0313034058,0.0100290002301,1.0,0.0,0.0,0.0,1.0,0.0,0.0,0.0,1.0,19.5121955872,-17.0121955872,36.4634170532,1.0,0.0,0.0,0.0,1.0,0.0,0.0,0.0,1.0,-2.30801040039,1.10133276367,-10.6972930176,1.0,0.0,0.0,0.0,1.0,0.0,0.0,0.0,1.0
1463081042419618163,752,1463081042416147701,,1.82404243946,-13.2245922089,99.4447250366,0.00997900031507,1.0,0.0,0.0,0.0,1.0,0.0,0.0,0.0,1.0,22.0121955872,-15.8536596298,35.1219520569,1.0,0.0,0.0,0.0,1.0,0.0,0.0,0.0,1.0,-2.88740720215,0.823605371094,-10.8409451172,1.0,0.0,0.0,0.0,1.0,0.0,0.0,0.0,1.0
1463081042429591685,753,1463081042426186327,,2.03485822678,-13.3875274658,99.8583221436,0.0099950004369,1.0,0.0,0.0,0.0,1.0,0.0,0.0,0.0,1.0,24.2682933807,-13.841463089,35.0609741211,1.0,0.0,0.0,0.0,1.0,0.0,0.0,0.0,1.0,-3.11725056152,0.775721337891,-11.1569797363,1.0,0.0,0.0,0.0,1.0,0.0,0.0,0.0,1.0
1463081042439265729,754,1463081042436210110,,2.30771446228,-13.5296411514,100.249031067,0.0100090000778,1.0,0.0,0.0,0.0,1.0,0.0,0.0,0.0,1.0,27.6219520569,-11.7073173523,33.2926826477,1.0,0.0,0.0,0.0,1.0,0.0,0.0,0.0,1.0,-3.22738383789,0.239420166016,-11.4682259521,1.0,0.0,0.0,0.0,1.0,0.0,0.0,0.0,1.0
1463081042448139305,755,1463081042446155871,,2.650578022,-13.6442813873,100.589050293,0.0099950004369,1.0,0.0,0.0,0.0,1.0,0.0,0.0,0.0,1.0,31.0365867615,-9.02439117432,28.9634151459,1.0,0.0,0.0,0.0,1.0,0.0,0.0,0.0,1.0,-3.3710359375,-0.378283862305,-11.8943938477,1.0,0.0,0.0,0.0,1.0,0.0,0.0,0.0,1.0
1463081042460543500,756,1463081042456221633,,2.97771000862,-13.7206878662,100.920425415,0.0100060002878,1.0,0.0,0.0,0.0,1.0,0.0,0.0,0.0,1.0,29.9390258789,-5.91463422775,27.8048782349,1.0,0.0,0.0,0.0,1.0,0.0,0.0,0.0,1.0,-3.16992299805,-0.296881024126,-11.7842605713,1.0,0.0,0.0,0.0,1.0,0.0,0.0,0.0,1.0
1463081042468264735,757,1463081042466071041,,3.28463888168,-13.7702217102,101.254493713,0.00998899992555,1.0,0.0,0.0,0.0,1.0,0.0,0.0,0.0,1.0,28.1707324982,-3.47560977936,27.9878063202,1.0,0.0,0.0,0.0,1.0,0.0,0.0,0.0,1.0,-3.21301862793,-0.359130249023,-12.2487356934,1.0,0.0,0.0,0.0,1.0,0.0,0.0,0.0,1.0
1463081042478383465,758,1463081042476323417,,3.5857694149,-13.8162794113,101.595108032,0.00999400019646,1.0,0.0,0.0,0.0,1.0,0.0,0.0,0.0,1.0,26.2195129395,-5.0,29.0853672028,1.0,0.0,0.0,0.0,1.0,0.0,0.0,0.0,1.0,-2.71981308594,-0.77093293457,-12.1290256104,1.0,0.0,0.0,0.0,1.0,0.0,0.0,0.0,1.0
1463081042488638653,759,1463081042486188137,,3.78848338127,-13.8340864182,101.987861633,0.0100210001692,1.0,0.0,0.0,0.0,1.0,0.0,0.0,0.0,1.0,20.975610733,-2.5,33.0487823486,1.0,0.0,0.0,0.0,1.0,0.0,0.0,0.0,1.0,-2.59052619629,-0.0622492431641,-12.3061965332,1.0,0.0,0.0,0.0,1.0,0.0,0.0,0.0,1.0
1463081042498156864,760,1463081042496231086,,3.94061779976,-13.8645915985,102.408584595,0.0100090000778,1.0,0.0,0.0,0.0,1.0,0.0,0.0,0.0,1.0,16.6463413239,-3.17073178291,35.8536605835,1.0,0.0,0.0,0.0,1.0,0.0,0.0,0.0,1.0,-2.82515795898,-0.110133276367,-13.0579758545,1.0,0.0,0.0,0.0,1.0,0.0,0.0,0.0,1.0
1463081042508199396,761,1463081042506525962,,4.08118724823,-13.9124097824,102.841705322,0.00997500028461,1.0,0.0,0.0,0.0,1.0,0.0,0.0,0.0,1.0,16.5853652954,-5.48780488968,37.1951255798,1.0,0.0,0.0,0.0,1.0,0.0,0.0,0.0,1.0,-2.53785375977,0.0191536132812,-12.5216746826,1.0,0.0,0.0,0.0,1.0,0.0,0.0,0.0,1.0
1463081042518089169,762,1463081042516027610,,4.2303276062,-13.9393701553,103.259346008,0.0100090000778,1.0,0.0,0.0,0.0,1.0,0.0,0.0,0.0,1.0,17.5000019073,-3.71951246262,35.3048782349,1.0,0.0,0.0,0.0,1.0,0.0,0.0,0.0,1.0,-2.46602770996,0.100556469727,-12.4690022461,1.0,0.0,0.0,0.0,1.0,0.0,0.0,0.0,1.0
1463081042528403003,763,1463081042526282017,,4.39342069626,-13.9905595779,103.667007446,0.00999199971557,1.0,0.0,0.0,0.0,1.0,0.0,0.0,0.0,1.0,20.3048782349,-7.07317113876,34.2682952881,1.0,0.0,0.0,0.0,1.0,0.0,0.0,0.0,1.0,-2.27927998047,0.435744702148,-12.631807959,1.0,0.0,0.0,0.0,1.0,0.0,0.0,0.0,1.0
1463081042538329286,764,1463081042536014863,,4.58838272095,-14.0518684387,104.060035706,0.0100010000169,1.0,0.0,0.0,0.0,1.0,0.0,0.0,0.0,1.0,23.7804889679,-8.78048801422,32.8048782349,1.0,0.0,0.0,0.0,1.0,0.0,0.0,0.0,1.0,-1.96803376465,0.502782348633,-11.6884925049,1.0,0.0,0.0,0.0,1.0,0.0,0.0,0.0,1.0
1463081042547801142,765,1463081042546025677,,4.86715459824,-14.1289739609,104.417114258,0.0100060002878,1.0,0.0,0.0,0.0,1.0,0.0,0.0,0.0,1.0,28.5365848541,-10.6707315445,30.1829280853,1.0,0.0,0.0,0.0,1.0,0.0,0.0,0.0,1.0,-1.92014973145,-0.138863696289,-11.5544172119,1.0,0.0,0.0,0.0,1.0,0.0,0.0,0.0,1.0
1463081042557861539,766,1463081042556069772,,5.1717338562,-14.2218151093,104.746665955,0.0100010000169,1.0,0.0,0.0,0.0,1.0,0.0,0.0,0.0,1.0,31.4024391174,-13.7804880142,27.6219520569,1.0,0.0,0.0,0.0,1.0,0.0,0.0,0.0,1.0,-1.57538469238,-0.00957680664062,-11.1952869629,1.0,0.0,0.0,0.0,1.0,0.0,0.0,0.0,1.0
1463081042568466466,767,1463081042566017513,,5.4720582962,-14.3362722397,105.074523926,0.00999899953604,1.0,0.0,0.0,0.0,1.0,0.0,0.0,0.0,1.0,30.7317066193,-17.3780498505,27.9268302917,1.0,0.0,0.0,0.0,1.0,0.0,0.0,0.0,1.0,-1.1875240965,-0.119710083008,-10.4578728516,1.0,0.0,0.0,0.0,1.0,0.0,0.0,0.0,1.0
1463081042578774519,768,1463081042576223587,,5.74391889572,-14.4907884598,105.426841736,0.009990000166,1.0,0.0,0.0,0.0,1.0,0.0,0.0,0.0,1.0,29.2073173523,-21.0975627899,30.6097583771,1.0,0.0,0.0,0.0,1.0,0.0,0.0,0.0,1.0,-1.11090957031,-0.0526724365234,-9.79228479004,1.0,0.0,0.0,0.0,1.0,0.0,0.0,0.0,1.0
1463081042588598198,769,1463081042586052213,,5.99462080002,-14.6772708893,105.796478271,0.0100330002606,1.0,0.0,0.0,0.0,1.0,0.0,0.0,0.0,1.0,26.2195129395,-24.8780498505,32.9268302917,1.0,0.0,0.0,0.0,1.0,0.0,0.0,0.0,1.0,-0.943315454102,-0.320823022461,-9.60553764507,1.0,0.0,0.0,0.0,1.0,0.0,0.0,0.0,1.0
1463081042597940628,770,1463081042596177558,,6.2015247345,-14.8975286484,106.205245972,0.00997599959373,1.0,0.0,0.0,0.0,1.0,0.0,0.0,0.0,1.0,23.2317085266,-28.0487804413,37.317073822,1.0,0.0,0.0,0.0,1.0,0.0,0.0,0.0,1.0,-0.881066210937,-0.330399829102,-9.08360109863,1.0,0.0,0.0,0.0,1.0,0.0,0.0,0.0,1.0
1463081042607678161,771,1463081042606008529,,6.34371709824,-15.1400699615,106.654335022,0.009990000166,1.0,0.0,0.0,0.0,1.0,0.0,0.0,0.0,1.0,20.1829280853,-31.4634151459,40.9756088257,1.0,0.0,0.0,0.0,1.0,0.0,0.0,0.0,1.0,-0.612915625,0.0143652099609,-8.88248815918,1.0,0.0,0.0,0.0,1.0,0.0,0.0,0.0,1.0
1463081042618537411,772,1463081042616029290,,6.46162319183,-15.4284296036,107.137367249,0.0100010000169,1.0,0.0,0.0,0.0,1.0,0.0,0.0,0.0,1.0,19.0243911743,-34.0853691101,44.4512176514,1.0,0.0,0.0,0.0,1.0,0.0,0.0,0.0,1.0,-0.847547387695,0.0287304199219,-8.51378168804,1.0,0.0,0.0,0.0,1.0,0.0,0.0,0.0,1.0
1463081042628714943,773,1463081042626263906,,6.54978179932,-15.7645320892,107.654579163,0.0100360000506,1.0,0.0,0.0,0.0,1.0,0.0,0.0,0.0,1.0,16.5853652954,-37.0731697083,48.0487823486,1.0,0.0,0.0,0.0,1.0,0.0,0.0,0.0,1.0,-1.06781401349,-0.0718260498047,-8.42758925923,1.0,0.0,0.0,0.0,1.0,0.0,0.0,0.0,1.0
1463081042638612319,774,1463081042636030449,,6.61704587936,-16.1147270203,108.198707581,0.00996599998325,1.0,0.0,0.0,0.0,1.0,0.0,0.0,0.0,1.0,15.6097564697,-37.7439041138,51.0365867615,1.0,0.0,0.0,0.0,1.0,0.0,0.0,0.0,1.0,-1.17794714373,-0.0909796630859,-8.23126530762,1.0,0.0,0.0,0.0,1.0,0.0,0.0,0.0,1.0
1463081042648634591,775,1463081042646150534,,6.65732622147,-16.4757766724,108.773086548,0.00999699998647,1.0,0.0,0.0,0.0,1.0,0.0,0.0,0.0,1.0,14.5121955872,-39.6951217651,53.7804908752,1.0,0.0,0.0,0.0,1.0,0.0,0.0,0.0,1.0,-0.995987890625,-0.0239420166016,-7.97269152832,1.0,0.0,0.0,0.0,1.0,0.0,0.0,0.0,1.0
1463081042657860146,776,1463081042656242233,,6.68439769745,-16.8557796478,109.372749329,0.0100109996274,1.0,0.0,0.0,0.0,1.0,0.0,0.0,0.0,1.0,14.1463422775,-41.7682952881,56.2804870605,1.0,0.0,0.0,0.0,1.0,0.0,0.0,0.0,1.0,-0.976834277344,-0.0430956298828,-8.03015236816,1.0,0.0,0.0,0.0,1.0,0.0,0.0,0.0,1.0
1463081042668636219,777,1463081042666218620,,6.69004392624,-17.25963974,109.999771118,0.00999699998647,1.0,0.0,0.0,0.0,1.0,0.0,0.0,0.0,1.0,14.0853662491,-43.5365867615,58.7804870605,1.0,0.0,0.0,0.0,1.0,0.0,0.0,0.0,1.0,-1.08696755371,0.0861912597656,-8.06845959473,1.0,0.0,0.0,0.0,1.0,0.0,0.0,0.0,1.0
1463081042678726772,778,1463081042676257298,,6.64250040054,-17.6742916107,110.663108826,0.0100090000778,1.0,0.0,0.0,0.0,1.0,0.0,0.0,0.0,1.0,12.9878053665,-44.9390258789,61.2804870605,1.0,0.0,0.0,0.0,1.0,0.0,0.0,0.0,1.0,-1.07739082014,0.521935925381,-8.39407043599,1.0,0.0,0.0,0.0,1.0,0.0,0.0,0.0,1.0
1463081042688206858,779,1463081042686564518,,6.59096097946,-18.1088256836,111.358108521,0.0100020002574,1.0,0.0,0.0,0.0,1.0,0.0,0.0,0.0,1.0,14.0853662491,-46.2195129395,64.2073135376,1.0,0.0,0.0,0.0,1.0,0.0,0.0,0.0,1.0,-1.21625444336,0.545877978516,-8.44195446919,1.0,0.0,0.0,0.0,1.0,0.0,0.0,0.0,1.0
1463081042698601630,780,1463081042696185801,,6.54042863846,-18.5519676208,112.061546326,0.00998600013554,1.0,0.0,0.0,0.0,1.0,0.0,0.0,0.0,1.0,15.6707315445,-46.5853691101,64.634147644,1.0,0.0,0.0,0.0,1.0,0.0,0.0,0.0,1.0,-1.44130939941,0.708683691406,-8.90643017578,1.0,0.0,0.0,0.0,1.0,0.0,0.0,0.0,1.0
1463081042707798747,781,1463081042706176511,,6.51378631592,-19.0092601776,112.77192688,0.00999400019646,1.0,0.0,0.0,0.0,1.0,0.0,0.0,0.0,1.0,19.2073173523,-47.317073822,64.8780441284,1.0,0.0,0.0,0.0,1.0,0.0,0.0,0.0,1.0,-1.65678754883,0.818816967773,-9.12669672852,1.0,0.0,0.0,0.0,1.0,0.0,0.0,0.0,1.0
1463081042718685028,782,1463081042716222429,,6.54727745056,-19.4741668701,113.471199036,0.0100419996306,1.0,0.0,0.0,0.0,1.0,0.0,0.0,0.0,1.0,24.4512195587,-47.0121994019,63.4756088257,1.0,0.0,0.0,0.0,1.0,0.0,0.0,0.0,1.0,-2.06380183105,0.746990917969,-9.87368764648,1.0,0.0,0.0,0.0,1.0,0.0,0.0,0.0,1.0
1463081042729821725,783,1463081042726480117,,6.66188192368,-19.9480705261,114.128616333,0.0100790001452,1.0,0.0,0.0,0.0,1.0,0.0,0.0,0.0,1.0,29.4512195587,-47.2560958862,59.8780517578,1.0,0.0,0.0,0.0,1.0,0.0,0.0,0.0,1.0,-2.3654710941,0.359130249023,-10.0843773926,1.0,0.0,0.0,0.0,1.0,0.0,0.0,0.0,1.0
1463081042738591968,784,1463081042736070827,,6.84802913666,-20.3882255554,114.735237122,0.00989099964499,1.0,0.0,0.0,0.0,1.0,0.0,0.0,0.0,1.0,34.3902435303,-45.2439041138,56.4634132385,1.0,0.0,0.0,0.0,1.0,0.0,0.0,0.0,1.0,-2.49475812988,0.0191536132812,-10.4147772217,1.0,0.0,0.0,0.0,1.0,0.0,0.0,0.0,1.0
1463081042748312262,785,1463081042746124089,,7.05282115936,-20.8296298981,115.343795776,0.00999699998647,1.0,0.0,0.0,0.0,1.0,0.0,0.0,0.0,1.0,36.2804908752,-44.4512176514,55.9146347046,1.0,0.0,0.0,0.0,1.0,0.0,0.0,0.0,1.0,-2.62404501953,-0.0191536132812,-10.3429511719,1.0,0.0,0.0,0.0,1.0,0.0,0.0,0.0,1.0
