%time,field.header.seq,field.header.stamp,field.header.frame_id,field.orientation.x,field.orientation.y,field.orientation.z,field.orientation.w,field.orientation_covariance0,field.orientation_covariance1,field.orientation_covariance2,field.orientation_covariance3,field.orientation_covariance4,field.orientation_covariance5,field.orientation_covariance6,field.orientation_covariance7,field.orientation_covariance8,field.angular_velocity.x,field.angular_velocity.y,field.angular_velocity.z,field.angular_velocity_covariance0,field.angular_velocity_covariance1,field.angular_velocity_covariance2,field.angular_velocity_covariance3,field.angular_velocity_covariance4,field.angular_velocity_covariance5,field.angular_velocity_covariance6,field.angular_velocity_covariance7,field.angular_velocity_covariance8,field.linear_acceleration.x,field.linear_acceleration.y,field.linear_acceleration.z,field.linear_acceleration_covariance0,field.linear_acceleration_covariance1,field.linear_acceleration_covariance2,field.linear_acceleration_covariance3,field.linear_acceleration_covariance4,field.linear_acceleration_covariance5,field.linear_acceleration_covariance6,field.linear_acceleration_covariance7,field.linear_acceleration_covariance8
1463563509657075276,523,1463563509650952676,,-21.5073051453,-3.2107591629,132.67880249,0.010158999823,1.0,0.0,0.0,0.0,1.0,0.0,0.0,0.0,1.0,42.134147644,-3.71951246262,8.5365858078,1.0,0.0,0.0,0.0,1.0,0.0,0.0,0.0,1.0,-0.201112939453,3.43328518066,-9.27034882812,1.0,0.0,0.0,0.0,1.0,0.0,0.0,0.0,1.0
1463563509665327997,524,1463563509661359320,,-21.0247707367,-3.1887140274,132.773132324,0.0104310000315,1.0,0.0,0.0,0.0,1.0,0.0,0.0,0.0,1.0,43.7195129395,-4.45121955872,9.69512176514,1.0,0.0,0.0,0.0,1.0,0.0,0.0,0.0,1.0,-0.205901342773,3.0166940918,-9.31344387349,1.0,0.0,0.0,0.0,1.0,0.0,0.0,0.0,1.0
1463563509675768547,525,1463563509672641491,,-20.5148887634,-3.17230057716,132.895217896,0.011103999801,1.0,0.0,0.0,0.0,1.0,0.0,0.0,0.0,1.0,44.817073822,-5.36585378647,11.341463089,1.0,0.0,0.0,0.0,1.0,0.0,0.0,0.0,1.0,-0.253785375977,3.17471140137,-9.31823227681,1.0,0.0,0.0,0.0,1.0,0.0,0.0,0.0,1.0
1463563509685108047,526,1463563509681169527,,-20.1139392853,-3.16089606285,132.996688843,0.00870199967176,1.0,0.0,0.0,0.0,1.0,0.0,0.0,0.0,1.0,46.0365867615,-5.79268312454,11.8292684555,1.0,0.0,0.0,0.0,1.0,0.0,0.0,0.0,1.0,-0.225054956055,3.26090266113,-9.28950185688,1.0,0.0,0.0,0.0,1.0,0.0,0.0,0.0,1.0
1463563509693695041,527,1463563509691340752,,-19.6291103363,-3.15009641647,133.132446289,0.0100819999352,1.0,0.0,0.0,0.0,1.0,0.0,0.0,0.0,1.0,49.0243911743,-6.21951246262,13.5365858078,1.0,0.0,0.0,0.0,1.0,0.0,0.0,0.0,1.0,-0.282515795898,3.36145913086,-9.32302068013,1.0,0.0,0.0,0.0,1.0,0.0,0.0,0.0,1.0
1463563509704632574,528,1463563509701422601,,-19.1253929138,-3.14201235771,133.281936646,0.0101159997284,1.0,0.0,0.0,0.0,1.0,0.0,0.0,0.0,1.0,52.4390258789,-6.7682929039,14.6341466904,1.0,0.0,0.0,0.0,1.0,0.0,0.0,0.0,1.0,-0.282515795898,3.56736047363,-9.2942902602,1.0,0.0,0.0,0.0,1.0,0.0,0.0,0.0,1.0
1463563509718434192,529,1463563509716201154,,-18.5499820709,-3.12692189217,133.453674316,0.0100990002975,1.0,0.0,0.0,0.0,1.0,0.0,0.0,0.0,1.0,58.4756126404,-6.70731735229,17.0731716156,1.0,0.0,0.0,0.0,1.0,0.0,0.0,0.0,1.0,-0.282515795898,3.26090266113,-9.36132790669,1.0,0.0,0.0,0.0,1.0,0.0,0.0,0.0,1.0
1463563509723968558,530,1463563509721690884,,-17.9162979126,-3.10667490959,133.650360107,0.0100809996948,1.0,0.0,0.0,0.0,1.0,0.0,0.0,0.0,1.0,60.6707382202,-6.64634132385,19.9390239716,1.0,0.0,0.0,0.0,1.0,0.0,0.0,0.0,1.0,-0.325611425781,2.52827695312,-9.60074924175,1.0,0.0,0.0,0.0,1.0,0.0,0.0,0.0,1.0
1463563509734468588,531,1463563509732238362,,-17.2711257935,-3.07749843597,133.869338989,0.0101169999689,1.0,0.0,0.0,0.0,1.0,0.0,0.0,0.0,1.0,60.6707382202,-6.89024400711,22.1341457367,1.0,0.0,0.0,0.0,1.0,0.0,0.0,0.0,1.0,-0.201112939453,2.20266552734,-9.48103915874,1.0,0.0,0.0,0.0,1.0,0.0,0.0,0.0,1.0
1463563509744732105,532,1463563509742481359,,-16.6455860138,-3.04478383064,134.113739014,0.0102669997141,1.0,0.0,0.0,0.0,1.0,0.0,0.0,0.0,1.0,59.4512176514,-6.34146356583,24.4512195587,1.0,0.0,0.0,0.0,1.0,0.0,0.0,0.0,1.0,-0.316034619141,2.39420180629,-9.61990285503,1.0,0.0,0.0,0.0,1.0,0.0,0.0,0.0,1.0
1463563509754521661,533,1463563509752247372,,-16.0468997955,-3.02499985695,134.367889404,0.00998799968511,1.0,0.0,0.0,0.0,1.0,0.0,0.0,0.0,1.0,59.6951255798,-7.07317113876,25.8536586761,1.0,0.0,0.0,0.0,1.0,0.0,0.0,0.0,1.0,-0.421379492187,2.47081611328,-9.5432884019,1.0,0.0,0.0,0.0,1.0,0.0,0.0,0.0,1.0
1463563509764595073,534,1463563509762469587,,-15.4465856552,-2.99765825272,134.623779297,0.0100670000538,1.0,0.0,0.0,0.0,1.0,0.0,0.0,0.0,1.0,61.0975608826,-6.15853643417,25.975610733,1.0,0.0,0.0,0.0,1.0,0.0,0.0,0.0,1.0,-0.402225878906,2.65756384277,-9.48103915874,1.0,0.0,0.0,0.0,1.0,0.0,0.0,0.0,1.0
1463563509774558380,535,1463563509772281904,,-14.8398704529,-2.97702240944,134.89201355,0.010277999565,1.0,0.0,0.0,0.0,1.0,0.0,0.0,0.0,1.0,64.6951217651,-6.0365858078,26.4634151459,1.0,0.0,0.0,0.0,1.0,0.0,0.0,0.0,1.0,-0.517147558594,3.26090266113,-9.31823227681,1.0,0.0,0.0,0.0,1.0,0.0,0.0,0.0,1.0
1463563509785259609,536,1463563509782946414,,-14.1679944992,-2.95156931877,135.151870728,0.00989400036633,1.0,0.0,0.0,0.0,1.0,0.0,0.0,0.0,1.0,72.0731735229,-4.14634132385,27.1951236725,1.0,0.0,0.0,0.0,1.0,0.0,0.0,0.0,1.0,-0.718260498047,2.91613762207,-9.44751916645,1.0,0.0,0.0,0.0,1.0,0.0,0.0,0.0,1.0
1463563509794773850,537,1463563509792378935,,-13.3974962234,-2.89847993851,135.420593262,0.0101220002398,1.0,0.0,0.0,0.0,1.0,0.0,0.0,0.0,1.0,76.0365829468,-2.56097555161,28.0487804413,1.0,0.0,0.0,0.0,1.0,0.0,0.0,0.0,1.0,-0.478840332031,2.02070620117,-9.37569311665,1.0,0.0,0.0,0.0,1.0,0.0,0.0,0.0,1.0
1463563509806285085,538,1463563509802437034,,-12.6019039154,-2.82363939285,135.708099365,0.0100919995457,1.0,0.0,0.0,0.0,1.0,0.0,0.0,0.0,1.0,75.8536605835,-1.95121955872,30.2439022064,1.0,0.0,0.0,0.0,1.0,0.0,0.0,0.0,1.0,-0.220266552734,1.37906015625,-9.36132790669,1.0,0.0,0.0,0.0,1.0,0.0,0.0,0.0,1.0
1463563509820242486,539,1463563509814547181,,-11.8445558548,-2.73569989204,136.020706177,0.0100889997557,1.0,0.0,0.0,0.0,1.0,0.0,0.0,0.0,1.0,73.2317123413,-1.46341466904,32.7439041138,1.0,0.0,0.0,0.0,1.0,0.0,0.0,0.0,1.0,-0.0957680664062,1.44609780273,-9.49061596538,1.0,0.0,0.0,0.0,1.0,0.0,0.0,0.0,1.0
1463563509829561100,540,1463563509822761255,,-11.096200943,-2.65994977951,136.34022522,0.010169999674,1.0,0.0,0.0,0.0,1.0,0.0,0.0,0.0,1.0,71.0975646973,-1.2804877758,33.1707305908,1.0,0.0,0.0,0.0,1.0,0.0,0.0,0.0,1.0,-0.272938989258,1.22104284668,-9.58159562847,1.0,0.0,0.0,0.0,1.0,0.0,0.0,0.0,1.0
1463563509840225402,541,1463563509835895212,,-10.4028654099,-2.59383749962,136.658172607,0.0101180002093,1.0,0.0,0.0,0.0,1.0,0.0,0.0,0.0,1.0,67.0121994019,-0.975609779358,33.1097564697,1.0,0.0,0.0,0.0,1.0,0.0,0.0,0.0,1.0,-0.392649072266,1.2497732666,-9.44273076313,1.0,0.0,0.0,0.0,1.0,0.0,0.0,0.0,1.0
1463563509872047265,542,1463563509842909954,,-9.74864864349,-2.52743434906,136.974395752,0.0100090000778,1.0,0.0,0.0,0.0,1.0,0.0,0.0,0.0,1.0,65.9146347046,-1.2804877758,33.0487823486,1.0,0.0,0.0,0.0,1.0,0.0,0.0,0.0,1.0,-0.253785375977,1.50355864258,-9.52892319194,1.0,0.0,0.0,0.0,1.0,0.0,0.0,0.0,1.0
1463563509872624300,543,1463563509853165555,,-9.08186817169,-2.46918082237,137.290481567,0.010211000219,1.0,0.0,0.0,0.0,1.0,0.0,0.0,0.0,1.0,66.0365829468,-1.03658533096,32.3780517578,1.0,0.0,0.0,0.0,1.0,0.0,0.0,0.0,1.0,-0.363918652344,1.44609780273,-9.61032604839,1.0,0.0,0.0,0.0,1.0,0.0,0.0,0.0,1.0
1463563509875620522,544,1463563509862995527,,-8.41792297363,-2.41127109528,137.604064941,0.00999699998647,1.0,0.0,0.0,0.0,1.0,0.0,0.0,0.0,1.0,65.5487823486,-0.609756112099,32.865852356,1.0,0.0,0.0,0.0,1.0,0.0,0.0,0.0,1.0,-0.363918652344,1.06781401349,-9.71088193359,1.0,0.0,0.0,0.0,1.0,0.0,0.0,0.0,1.0
1463563509875979483,545,1463563509873067533,,-7.76032400131,-2.34711670876,137.930664062,0.0101049998775,1.0,0.0,0.0,0.0,1.0,0.0,0.0,0.0,1.0,62.682926178,-0.0609756112099,33.9024391174,1.0,0.0,0.0,0.0,1.0,0.0,0.0,0.0,1.0,-0.31124621582,0.684741674805,-9.66778688823,1.0,0.0,0.0,0.0,1.0,0.0,0.0,0.0,1.0
1463563510109657554,546,1463563509885540443,,-7.15230417252,-2.27552199364,138.26260376,0.0101110003889,1.0,0.0,0.0,0.0,1.0,0.0,0.0,0.0,1.0,59.207321167,-0.12195122242,34.2682952881,1.0,0.0,0.0,0.0,1.0,0.0,0.0,0.0,1.0,-0.110133276367,0.814028564453,-9.4954043687,1.0,0.0,0.0,0.0,1.0,0.0,0.0,0.0,1.0
1463563510109978026,547,1463563509893246440,,-6.55595397949,-2.21360397339,138.592102051,0.0100870002061,1.0,0.0,0.0,0.0,1.0,0.0,0.0,0.0,1.0,57.6829299927,-0.487804889679,34.0243911743,1.0,0.0,0.0,0.0,1.0,0.0,0.0,0.0,1.0,-0.134075302102,0.641646044922,-9.61990285503,1.0,0.0,0.0,0.0,1.0,0.0,0.0,0.0,1.0
1463563510110289591,548,1463563509904528872,,-5.99265813828,-2.16405725479,138.90977478,0.0101049998775,1.0,0.0,0.0,0.0,1.0,0.0,0.0,0.0,1.0,54.634147644,-1.46341466904,32.6219520569,1.0,0.0,0.0,0.0,1.0,0.0,0.0,0.0,1.0,-0.0861912597656,0.60812722168,-9.58638403179,1.0,0.0,0.0,0.0,1.0,0.0,0.0,0.0,1.0
1463563510110610843,549,1463563509913588109,,-5.45553064346,-2.13667058945,139.21572876,0.0101020000875,1.0,0.0,0.0,0.0,1.0,0.0,0.0,0.0,1.0,51.2804870605,-2.74390244484,31.341463089,1.0,0.0,0.0,0.0,1.0,0.0,0.0,0.0,1.0,-0.162805712891,0.397437475586,-9.73003554687,1.0,0.0,0.0,0.0,1.0,0.0,0.0,0.0,1.0
1463563510111179858,550,1463563509923646261,,-4.96119594574,-2.11916947365,139.495178223,0.0100910002366,1.0,0.0,0.0,0.0,1.0,0.0,0.0,0.0,1.0,48.0487823486,-2.56097555161,28.7195110321,1.0,0.0,0.0,0.0,1.0,0.0,0.0,0.0,1.0,-0.277727392578,0.502782348633,-10.0077629395,1.0,0.0,0.0,0.0,1.0,0.0,0.0,0.0,1.0
1463563510111790384,551,1463563509934414417,,-4.48155021667,-2.1158452034,139.745147705,0.0101269995794,1.0,0.0,0.0,0.0,1.0,0.0,0.0,0.0,1.0,46.5243911743,-2.92682933807,25.6707324982,1.0,0.0,0.0,0.0,1.0,0.0,0.0,0.0,1.0,-0.373495458984,0.45489831543,-10.0269165527,1.0,0.0,0.0,0.0,1.0,0.0,0.0,0.0,1.0
1463563510112410440,552,1463563509945773569,,-4.0418305397,-2.11244869232,139.977081299,0.0100720003247,1.0,0.0,0.0,0.0,1.0,0.0,0.0,0.0,1.0,43.8414649963,-3.10975623131,23.9634151459,1.0,0.0,0.0,0.0,1.0,0.0,0.0,0.0,1.0,-0.277727392578,0.555454785156,-9.88805285645,1.0,0.0,0.0,0.0,1.0,0.0,0.0,0.0,1.0
1463563510113015341,553,1463563509954548533,,-3.57558989525,-2.10205817223,140.216217041,0.0107180001214,1.0,0.0,0.0,0.0,1.0,0.0,0.0,0.0,1.0,42.317073822,-4.02439022064,23.2317085266,1.0,0.0,0.0,0.0,1.0,0.0,0.0,0.0,1.0,0.0335188255255,0.244208569336,-9.86411083984,1.0,0.0,0.0,0.0,1.0,0.0,0.0,0.0,1.0
1463563510113283624,554,1463563509965512889,,-3.1748445034,-2.11362099648,140.416656494,0.00961400009692,1.0,0.0,0.0,0.0,1.0,0.0,0.0,0.0,1.0,39.6951217651,-4.87804889679,21.7682933807,1.0,0.0,0.0,0.0,1.0,0.0,0.0,0.0,1.0,-0.15322890625,0.0335188255255,-10.060435376,1.0,0.0,0.0,0.0,1.0,0.0,0.0,0.0,1.0
1463563510113529564,555,1463563509975159527,,-2.79573965073,-2.13252186775,140.607620239,0.0100530004129,1.0,0.0,0.0,0.0,1.0,0.0,0.0,0.0,1.0,36.7073173523,-6.40243911743,19.817073822,1.0,0.0,0.0,0.0,1.0,0.0,0.0,0.0,1.0,0.0383072265625,0.15322890625,-10.2950671387,1.0,0.0,0.0,0.0,1.0,0.0,0.0,0.0,1.0
1463563510113773732,556,1463563509984296108,,-2.44950056076,-2.17767238617,140.779464722,0.0100870002061,1.0,0.0,0.0,0.0,1.0,0.0,0.0,0.0,1.0,34.0853691101,-7.80487823486,17.8048782349,1.0,0.0,0.0,0.0,1.0,0.0,0.0,0.0,1.0,-0.143652099609,0.234631762695,-10.2711251221,1.0,0.0,0.0,0.0,1.0,0.0,0.0,0.0,1.0
1463563510115306088,557,1463563509994254103,,-2.12843418121,-2.24260306358,140.93182373,0.0100349998102,1.0,0.0,0.0,0.0,1.0,0.0,0.0,0.0,1.0,31.7073192596,-9.81707286835,15.9146347046,1.0,0.0,0.0,0.0,1.0,0.0,0.0,0.0,1.0,-0.119710083008,0.177170922852,-10.4674496582,1.0,0.0,0.0,0.0,1.0,0.0,0.0,0.0,1.0
1463563510118328560,558,1463563510004346577,,-1.8219653368,-2.31084156036,141.061767578,0.0101100001484,1.0,0.0,0.0,0.0,1.0,0.0,0.0,0.0,1.0,29.2073173523,-10.1829271317,13.658536911,1.0,0.0,0.0,0.0,1.0,0.0,0.0,0.0,1.0,-0.0861912597656,-0.0191536132812,-10.5105452881,1.0,0.0,0.0,0.0,1.0,0.0,0.0,0.0,1.0
1463563510118792001,559,1463563510014599209,,-1.55799984932,-2.39689874649,141.179840088,0.0101129999384,1.0,0.0,0.0,0.0,1.0,0.0,0.0,0.0,1.0,26.158536911,-11.7682924271,12.4390249252,1.0,0.0,0.0,0.0,1.0,0.0,0.0,0.0,1.0,-0.114921679688,0.148440512063,-10.673351001,1.0,0.0,0.0,0.0,1.0,0.0,0.0,0.0,1.0
1463563510119084242,560,1463563510024725121,,-1.31940984726,-2.49010944366,141.277175903,0.0101030003279,1.0,0.0,0.0,0.0,1.0,0.0,0.0,0.0,1.0,23.5365848541,-12.9268293381,10.4268293381,1.0,0.0,0.0,0.0,1.0,0.0,0.0,0.0,1.0,-0.0287304199219,0.0861912597656,-10.6254669678,1.0,0.0,0.0,0.0,1.0,0.0,0.0,0.0,1.0
1463563510119362213,561,1463563510034631032,,-1.10370862484,-2.59520864487,141.37449646,0.0100809996948,1.0,0.0,0.0,0.0,1.0,0.0,0.0,0.0,1.0,20.8536586761,-14.2073173523,10.4878053665,1.0,0.0,0.0,0.0,1.0,0.0,0.0,0.0,1.0,-0.0239420166016,-0.0478840332031,-10.524910498,1.0,0.0,0.0,0.0,1.0,0.0,0.0,0.0,1.0
1463563510119707320,562,1463563510044863820,,-0.907567679882,-2.71625804901,141.456375122,0.0102399997413,1.0,0.0,0.0,0.0,1.0,0.0,0.0,0.0,1.0,17.9878044128,-14.9390249252,8.90243911743,1.0,0.0,0.0,0.0,1.0,0.0,0.0,0.0,1.0,-0.15801730957,-0.196324536133,-10.7260234375,1.0,0.0,0.0,0.0,1.0,0.0,0.0,0.0,1.0
1463563510119980864,563,1463563510056635579,,-0.735535383224,-2.84278273582,141.504379272,0.00997299980372,1.0,0.0,0.0,0.0,1.0,0.0,0.0,0.0,1.0,16.4634151459,-17.0731716156,5.73170757294,1.0,0.0,0.0,0.0,1.0,0.0,0.0,0.0,1.0,0.0718260498047,-0.134075302102,-10.6398321777,1.0,0.0,0.0,0.0,1.0,0.0,0.0,0.0,1.0
1463563510120240189,564,1463563510065481325,,-0.604432106018,-2.98199367523,141.545059204,0.0101070003584,1.0,0.0,0.0,0.0,1.0,0.0,0.0,0.0,1.0,14.3292694092,-17.8048782349,4.87804889679,1.0,0.0,0.0,0.0,1.0,0.0,0.0,0.0,1.0,-0.0143652099609,0.239420166016,-10.5153336914,1.0,0.0,0.0,0.0,1.0,0.0,0.0,0.0,1.0
1463563510120489514,565,1463563510075050930,,-0.487376451492,-3.13793969154,141.576004028,0.0100819999352,1.0,0.0,0.0,0.0,1.0,0.0,0.0,0.0,1.0,12.8658542633,-18.2926826477,3.96341490746,1.0,0.0,0.0,0.0,1.0,0.0,0.0,0.0,1.0,-0.263362164351,0.205901342773,-10.6158901611,1.0,0.0,0.0,0.0,1.0,0.0,0.0,0.0,1.0
1463563510120840090,566,1463563510085138092,,-0.384803801775,-3.30626630783,141.59034729,0.0101220002398,1.0,0.0,0.0,0.0,1.0,0.0,0.0,0.0,1.0,11.8902444839,-18.7195110321,2.31707310677,1.0,0.0,0.0,0.0,1.0,0.0,0.0,0.0,1.0,-0.430956298828,0.296881024126,-10.7164466309,1.0,0.0,0.0,0.0,1.0,0.0,0.0,0.0,1.0
1463563510121311656,567,1463563510095276974,,-0.285220950842,-3.46533179283,141.592056274,0.0100889997557,1.0,0.0,0.0,0.0,1.0,0.0,0.0,0.0,1.0,11.7073173523,-18.5975627899,1.09756100178,1.0,0.0,0.0,0.0,1.0,0.0,0.0,0.0,1.0,-0.316034619141,0.301669427446,-10.5680061279,1.0,0.0,0.0,0.0,1.0,0.0,0.0,0.0,1.0
1463563510121889316,568,1463563510105790181,,-0.191754177213,-3.61788654327,141.584259033,0.0101309996098,1.0,0.0,0.0,0.0,1.0,0.0,0.0,0.0,1.0,11.2195119858,-17.9268302917,0.18292683363,1.0,0.0,0.0,0.0,1.0,0.0,0.0,0.0,1.0,-0.335188232422,0.320823022461,-10.4866032715,1.0,0.0,0.0,0.0,1.0,0.0,0.0,0.0,1.0
1463563510122554270,569,1463563510115820571,,-0.110559694469,-3.76455426216,141.580276489,0.0100859999657,1.0,0.0,0.0,0.0,1.0,0.0,0.0,0.0,1.0,9.51219558716,-17.9268302917,0.609756112099,1.0,0.0,0.0,0.0,1.0,0.0,0.0,0.0,1.0,-0.268150604204,0.201112939453,-10.4866032715,1.0,0.0,0.0,0.0,1.0,0.0,0.0,0.0,1.0
1463563510688784204,570,1463563510125637575,,-0.0374033264816,-3.90465712547,141.571258545,0.0100859999657,1.0,0.0,0.0,0.0,1.0,0.0,0.0,0.0,1.0,7.98780536652,-17.0731716156,0.18292683363,1.0,0.0,0.0,0.0,1.0,0.0,0.0,0.0,1.0,-0.330399829102,0.0574608398438,-10.4147772217,1.0,0.0,0.0,0.0,1.0,0.0,0.0,0.0,1.0
1463563510688830767,571,1463563510135675257,,0.0211194194853,-4.04835319519,141.56098938,0.0101349996403,1.0,0.0,0.0,0.0,1.0,0.0,0.0,0.0,1.0,6.82926845551,-16.2804889679,0.0609756112099,1.0,0.0,0.0,0.0,1.0,0.0,0.0,0.0,1.0,-0.555454785156,0.105344873047,-10.4243540283,1.0,0.0,0.0,0.0,1.0,0.0,0.0,0.0,1.0
1463563510688916705,572,1463563510146085182,,0.0588205307722,-4.17278003693,141.55418396,0.0100760003552,1.0,0.0,0.0,0.0,1.0,0.0,0.0,0.0,1.0,5.36585378647,-14.7560987473,0.365853667259,1.0,0.0,0.0,0.0,1.0,0.0,0.0,0.0,1.0,-0.526724328702,0.196324536133,-10.4482960449,1.0,0.0,0.0,0.0,1.0,0.0,0.0,0.0,1.0
1463563510688953997,573,1463563510156196615,,0.0868423506618,-4.28082466125,141.543029785,0.010258000344,1.0,0.0,0.0,0.0,1.0,0.0,0.0,0.0,1.0,4.63414621353,-12.9268293381,-0.0609756112099,1.0,0.0,0.0,0.0,1.0,0.0,0.0,0.0,1.0,-0.545877978516,0.244208569336,-10.3333743652,1.0,0.0,0.0,0.0,1.0,0.0,0.0,0.0,1.0
1463563510688992279,574,1463563510166330080,,0.0626556649804,-4.40205574036,141.527252197,0.00995799992234,1.0,0.0,0.0,0.0,1.0,0.0,0.0,0.0,1.0,2.56097555161,-12.4390249252,-0.792682945728,1.0,0.0,0.0,0.0,1.0,0.0,0.0,0.0,1.0,-0.981622680664,0.837970581055,-10.6063133545,1.0,0.0,0.0,0.0,1.0,0.0,0.0,0.0,1.0
1463563510689027019,575,1463563510176099895,,0.080892123282,-4.47572040558,141.505706787,0.0100760003552,1.0,0.0,0.0,0.0,1.0,0.0,0.0,0.0,1.0,5.0,-10.0,-1.2195122242,1.0,0.0,0.0,0.0,1.0,0.0,0.0,0.0,1.0,-0.536301208408,0.497993945312,-10.3908352051,1.0,0.0,0.0,0.0,1.0,0.0,0.0,0.0,1.0
1463563510690414061,576,1463563510186594456,,0.108420081437,-4.54496479034,141.470962524,0.0101229995489,1.0,0.0,0.0,0.0,1.0,0.0,0.0,0.0,1.0,5.73170757294,-8.84146404266,-2.5,1.0,0.0,0.0,0.0,1.0,0.0,0.0,0.0,1.0,-0.679953271484,0.483628735352,-10.4387192383,1.0,0.0,0.0,0.0,1.0,0.0,0.0,0.0,1.0
1463563510690907971,577,1463563510196582399,,0.149378463626,-4.5956492424,141.430267334,0.0101209999993,1.0,0.0,0.0,0.0,1.0,0.0,0.0,0.0,1.0,5.79268312454,-7.43902492523,-2.98780488968,1.0,0.0,0.0,0.0,1.0,0.0,0.0,0.0,1.0,-0.627280834961,0.258573779297,-10.6685625977,1.0,0.0,0.0,0.0,1.0,0.0,0.0,0.0,1.0
1463563510690968596,578,1463563510206670082,,0.193302735686,-4.62939548492,141.389633179,0.0100790001452,1.0,0.0,0.0,0.0,1.0,0.0,0.0,0.0,1.0,5.18292713165,-5.60975599289,-2.92682933807,1.0,0.0,0.0,0.0,1.0,0.0,0.0,0.0,1.0,-0.660799658203,0.076614453125,-10.5344873047,1.0,0.0,0.0,0.0,1.0,0.0,0.0,0.0,1.0
1463563510691050680,579,1463563510216822244,,0.222396120429,-4.64650011063,141.35093689,0.0100999996066,1.0,0.0,0.0,0.0,1.0,0.0,0.0,0.0,1.0,3.17073178291,-4.45121955872,-2.68292689323,1.0,0.0,0.0,0.0,1.0,0.0,0.0,0.0,1.0,-0.569819995117,-0.0335188255255,-10.4435076416,1.0,0.0,0.0,0.0,1.0,0.0,0.0,0.0,1.0
1463563510691088493,580,1463563510226649144,,0.231528773904,-4.65582370758,141.311035156,0.010095000267,1.0,0.0,0.0,0.0,1.0,0.0,0.0,0.0,1.0,1.15853655338,-3.84146332741,-2.80487799644,1.0,0.0,0.0,0.0,1.0,0.0,0.0,0.0,1.0,-0.541089611728,-0.0430956298828,-10.3956236084,1.0,0.0,0.0,0.0,1.0,0.0,0.0,0.0,1.0
1463563510691124223,581,1463563510237003755,,0.198876619339,-4.65546226501,141.269943237,0.0100940000266,1.0,0.0,0.0,0.0,1.0,0.0,0.0,0.0,1.0,-0.731707334518,-2.74390244484,-3.10975623131,1.0,0.0,0.0,0.0,1.0,0.0,0.0,0.0,1.0,-0.555454785156,0.363918652344,-10.1705686523,1.0,0.0,0.0,0.0,1.0,0.0,0.0,0.0,1.0
1463563510691164379,582,1463563510246888416,,0.181257620454,-4.64778518677,141.224395752,0.0101140001789,1.0,0.0,0.0,0.0,1.0,0.0,0.0,0.0,1.0,-0.853658556938,-1.70731711388,-3.41463422775,1.0,0.0,0.0,0.0,1.0,0.0,0.0,0.0,1.0,-0.622492431641,0.0861912597656,-10.3477395752,1.0,0.0,0.0,0.0,1.0,0.0,0.0,0.0,1.0
1463563510691202244,583,1463563510257208861,,0.149961560965,-4.63002157211,141.170974731,0.010095000267,1.0,0.0,0.0,0.0,1.0,0.0,0.0,0.0,1.0,-1.46341466904,-0.243902444839,-4.2682929039,1.0,0.0,0.0,0.0,1.0,0.0,0.0,0.0,1.0,-0.708683691406,0.239420166016,-10.3908352051,1.0,0.0,0.0,0.0,1.0,0.0,0.0,0.0,1.0
1463563510691237974,584,1463563510267437430,,0.121638342738,-4.59607696533,141.114898682,0.0101250000298,1.0,0.0,0.0,0.0,1.0,0.0,0.0,0.0,1.0,-0.426829278469,0.365853667259,-4.57317066193,1.0,0.0,0.0,0.0,1.0,0.0,0.0,0.0,1.0,-0.517147558594,0.378283862305,-10.2567599121,1.0,0.0,0.0,0.0,1.0,0.0,0.0,0.0,1.0
1463563510691274224,585,1463563510277260788,,0.104143887758,-4.55663108826,141.057571411,0.0100640002638,1.0,0.0,0.0,0.0,1.0,0.0,0.0,0.0,1.0,0.18292683363,1.03658533096,-4.69512224197,1.0,0.0,0.0,0.0,1.0,0.0,0.0,0.0,1.0,-0.526724328702,0.301669427446,-10.2040874756,1.0,0.0,0.0,0.0,1.0,0.0,0.0,0.0,1.0
1463563510692049751,586,1463563510287638265,,0.0878803357482,-4.50870656967,141.001434326,0.0101290000603,1.0,0.0,0.0,0.0,1.0,0.0,0.0,0.0,1.0,0.731707334518,1.46341466904,-4.57317066193,1.0,0.0,0.0,0.0,1.0,0.0,0.0,0.0,1.0,-0.445321508789,0.373495458984,-10.1083194092,1.0,0.0,0.0,0.0,1.0,0.0,0.0,0.0,1.0
1463563510692172460,587,1463563510297663655,,0.0856979042292,-4.45482063293,140.945266724,0.0100910002366,1.0,0.0,0.0,0.0,1.0,0.0,0.0,0.0,1.0,1.09756100178,1.40243899822,-4.51219558716,1.0,0.0,0.0,0.0,1.0,0.0,0.0,0.0,1.0,-0.316034619141,0.191536132812,-10.0748005859,1.0,0.0,0.0,0.0,1.0,0.0,0.0,0.0,1.0
1463563510692371159,588,1463563510307513211,,0.0834066420794,-4.39579582214,140.888595581,0.0100830001757,1.0,0.0,0.0,0.0,1.0,0.0,0.0,0.0,1.0,1.15853655338,1.52439022064,-4.57317066193,1.0,0.0,0.0,0.0,1.0,0.0,0.0,0.0,1.0,-0.244208569336,0.210689746094,-10.3860468018,1.0,0.0,0.0,0.0,1.0,0.0,0.0,0.0,1.0
1463563510692422670,589,1463563510317640530,,0.0865339040756,-4.34811306,140.830551147,0.0101129999384,1.0,0.0,0.0,0.0,1.0,0.0,0.0,0.0,1.0,1.76829278469,1.09756100178,-4.69512224197,1.0,0.0,0.0,0.0,1.0,0.0,0.0,0.0,1.0,-0.363918652344,0.225054956055,-10.3764699951,1.0,0.0,0.0,0.0,1.0,0.0,0.0,0.0,1.0
1463563510695581914,590,1463563510327624254,,0.0930042490363,-4.30299949646,140.765930176,0.0100959995762,1.0,0.0,0.0,0.0,1.0,0.0,0.0,0.0,1.0,2.25609779358,1.2195122242,-5.36585378647,1.0,0.0,0.0,0.0,1.0,0.0,0.0,0.0,1.0,-0.426167895508,0.263362164351,-10.4530844482,1.0,0.0,0.0,0.0,1.0,0.0,0.0,0.0,1.0
1463563510695643060,591,1463563510337774020,,0.110381059349,-4.26438856125,140.699264526,0.0101020000875,1.0,0.0,0.0,0.0,1.0,0.0,0.0,0.0,1.0,3.17073178291,0.731707334518,-5.54878091812,1.0,0.0,0.0,0.0,1.0,0.0,0.0,0.0,1.0,-0.440533105469,0.229843359375,-10.2902787354,1.0,0.0,0.0,0.0,1.0,0.0,0.0,0.0,1.0
1463563510695690665,592,1463563510347881287,,0.131567597389,-4.22208499908,140.630630493,0.0101220002398,1.0,0.0,0.0,0.0,1.0,0.0,0.0,0.0,1.0,3.53658556938,0.853658556938,-5.73170757294,1.0,0.0,0.0,0.0,1.0,0.0,0.0,0.0,1.0,-0.387860668945,0.225054956055,-10.2040874756,1.0,0.0,0.0,0.0,1.0,0.0,0.0,0.0,1.0
1463563510695721498,593,1463563510358021157,,0.154485598207,-4.17737579346,140.565292358,0.0100809996948,1.0,0.0,0.0,0.0,1.0,0.0,0.0,0.0,1.0,3.65853667259,0.304878056049,-5.42682933807,1.0,0.0,0.0,0.0,1.0,0.0,0.0,0.0,1.0,-0.229843359375,0.201112939453,-9.96945571289,1.0,0.0,0.0,0.0,1.0,0.0,0.0,0.0,1.0
1463563510696019105,594,1463563510368791866,,0.177510455251,-4.13748311996,140.502792358,0.0101150004193,1.0,0.0,0.0,0.0,1.0,0.0,0.0,0.0,1.0,4.51219558716,-0.487804889679,-5.18292713165,1.0,0.0,0.0,0.0,1.0,0.0,0.0,0.0,1.0,-0.167594116211,0.339976635742,-9.89284125977,1.0,0.0,0.0,0.0,1.0,0.0,0.0,0.0,1.0
1463563510696354316,595,1463563510378116731,,0.209371477365,-4.10450410843,140.446380615,0.0100819999352,1.0,0.0,0.0,0.0,1.0,0.0,0.0,0.0,1.0,4.20731735229,-1.09756100178,-4.51219558716,1.0,0.0,0.0,0.0,1.0,0.0,0.0,0.0,1.0,-0.172382519531,0.119710083008,-9.90241806641,1.0,0.0,0.0,0.0,1.0,0.0,0.0,0.0,1.0
1463563510696741923,596,1463563510388292070,,0.245638847351,-4.08885622025,140.389297485,0.010098000057,1.0,0.0,0.0,0.0,1.0,0.0,0.0,0.0,1.0,3.90243911743,-1.8902438879,-4.51219558716,1.0,0.0,0.0,0.0,1.0,0.0,0.0,0.0,1.0,-0.325611425781,-0.0143652099609,-9.77313117676,1.0,0.0,0.0,0.0,1.0,0.0,0.0,0.0,1.0
1463563510696804892,597,1463563510398390274,,0.280269145966,-4.07986736298,140.330169678,0.0101340003312,1.0,0.0,0.0,0.0,1.0,0.0,0.0,0.0,1.0,3.7804877758,-2.56097555161,-4.69512224197,1.0,0.0,0.0,0.0,1.0,0.0,0.0,0.0,1.0,-0.325611425781,-0.00957680664062,-9.86889924316,1.0,0.0,0.0,0.0,1.0,0.0,0.0,0.0,1.0
1463563510697095050,598,1463563510408484519,,0.299091130495,-4.079682827,140.268814087,0.0100640002638,1.0,0.0,0.0,0.0,1.0,0.0,0.0,0.0,1.0,2.92682933807,-3.47560977936,-5.0,1.0,0.0,0.0,0.0,1.0,0.0,0.0,0.0,1.0,-0.320823022461,0.110133276367,-9.98860932617,1.0,0.0,0.0,0.0,1.0,0.0,0.0,0.0,1.0
1463563510697660680,599,1463563510418620588,,0.349748104811,-4.08839178085,140.204345703,0.0101260002702,1.0,0.0,0.0,0.0,1.0,0.0,0.0,0.0,1.0,4.08536577225,-4.14634132385,-5.12195110321,1.0,0.0,0.0,0.0,1.0,0.0,0.0,0.0,1.0,-0.359130249023,-0.239420166016,-10.0077629395,1.0,0.0,0.0,0.0,1.0,0.0,0.0,0.0,1.0
1463563510697733128,600,1463563510428714000,,0.352236658335,-4.0984287262,140.134338379,0.0100999996066,1.0,0.0,0.0,0.0,1.0,0.0,0.0,0.0,1.0,1.76829278469,-5.0,-5.85365867615,1.0,0.0,0.0,0.0,1.0,0.0,0.0,0.0,1.0,-0.234631762695,0.191536132812,-10.0125513428,1.0,0.0,0.0,0.0,1.0,0.0,0.0,0.0,1.0
1463563510697781879,601,1463563510438748766,,0.370155453682,-4.12866353989,140.067169189,0.0100849997252,1.0,0.0,0.0,0.0,1.0,0.0,0.0,0.0,1.0,2.07317066193,-6.0365858078,-5.48780488968,1.0,0.0,0.0,0.0,1.0,0.0,0.0,0.0,1.0,-0.402225878906,-0.0287304199219,-9.8784760498,1.0,0.0,0.0,0.0,1.0,0.0,0.0,0.0,1.0
1463563510698108392,602,1463563510448906918,,0.379051983356,-4.15872192383,140.000732422,0.0100969998166,1.0,0.0,0.0,0.0,1.0,0.0,0.0,0.0,1.0,1.52439022064,-6.82926845551,-5.42682933807,1.0,0.0,0.0,0.0,1.0,0.0,0.0,0.0,1.0,-0.268150604204,0.0287304199219,-9.96945571289,1.0,0.0,0.0,0.0,1.0,0.0,0.0,0.0,1.0
1463563510698404227,603,1463563510459175644,,0.382885932922,-4.19826126099,139.933151245,0.0101209999993,1.0,0.0,0.0,0.0,1.0,0.0,0.0,0.0,1.0,0.609756112099,-7.50000047684,-5.48780488968,1.0,0.0,0.0,0.0,1.0,0.0,0.0,0.0,1.0,-0.316034619141,-0.0430956298828,-9.86889924316,1.0,0.0,0.0,0.0,1.0,0.0,0.0,0.0,1.0
1463563510698707511,604,1463563510469110513,,0.376063257456,-4.24120426178,139.864318848,0.0100800003856,1.0,0.0,0.0,0.0,1.0,0.0,0.0,0.0,1.0,-0.792682945728,-7.98780536652,-5.60975599289,1.0,0.0,0.0,0.0,1.0,0.0,0.0,0.0,1.0,-0.296881024126,-0.100556469727,-9.7827079834,1.0,0.0,0.0,0.0,1.0,0.0,0.0,0.0,1.0
1463563510699046784,605,1463563510479181164,,0.354955643415,-4.30427360535,139.796920776,0.0101079996675,1.0,0.0,0.0,0.0,1.0,0.0,0.0,0.0,1.0,-2.5,-8.47560977936,-5.42682933807,1.0,0.0,0.0,0.0,1.0,0.0,0.0,0.0,1.0,-0.550666381836,-0.148440512063,-9.58159562847,1.0,0.0,0.0,0.0,1.0,0.0,0.0,0.0,1.0
1463563510699103764,606,1463563510489313483,,0.307138592005,-4.36642599106,139.726760864,0.0101129999384,1.0,0.0,0.0,0.0,1.0,0.0,0.0,0.0,1.0,-3.90243911743,-8.5365858078,-5.79268312454,1.0,0.0,0.0,0.0,1.0,0.0,0.0,0.0,1.0,-0.545877978516,0.0718260498047,-9.7827079834,1.0,0.0,0.0,0.0,1.0,0.0,0.0,0.0,1.0
1463563510699145848,607,1463563510499736429,,0.249256789684,-4.42825222015,139.650146484,0.010106000118,1.0,0.0,0.0,0.0,1.0,0.0,0.0,0.0,1.0,-4.57317066193,-9.14634132385,-6.46341466904,1.0,0.0,0.0,0.0,1.0,0.0,0.0,0.0,1.0,-0.435744702148,0.143652099609,-9.56723041851,1.0,0.0,0.0,0.0,1.0,0.0,0.0,0.0,1.0
1463563510699564288,608,1463563510509654318,,0.186075761914,-4.48346376419,139.567596436,0.0100959995762,1.0,0.0,0.0,0.0,1.0,0.0,0.0,0.0,1.0,-5.06097555161,-8.84146404266,-7.07317113876,1.0,0.0,0.0,0.0,1.0,0.0,0.0,0.0,1.0,-0.392649072266,0.172382519531,-9.71088193359,1.0,0.0,0.0,0.0,1.0,0.0,0.0,0.0,1.0
1463563510700766329,609,1463563510519950909,,0.12475695461,-4.5492181778,139.477432251,0.0100899999961,1.0,0.0,0.0,0.0,1.0,0.0,0.0,0.0,1.0,-4.51219558716,-9.63414573669,-7.86585378647,1.0,0.0,0.0,0.0,1.0,0.0,0.0,0.0,1.0,-0.445321508789,0.258573779297,-9.72045874023,1.0,0.0,0.0,0.0,1.0,0.0,0.0,0.0,1.0
1463563510700830548,610,1463563510529656662,,0.0782302692533,-4.62336778641,139.384078979,0.0100959995762,1.0,0.0,0.0,0.0,1.0,0.0,0.0,0.0,1.0,-4.02439022064,-9.63414573669,-8.10975551605,1.0,0.0,0.0,0.0,1.0,0.0,0.0,0.0,1.0,-0.593762048251,0.105344873047,-9.65342167827,1.0,0.0,0.0,0.0,1.0,0.0,0.0,0.0,1.0
1463563510704708183,611,1463563510540144348,,0.0269779805094,-4.69227457047,139.289321899,0.0101429997012,1.0,0.0,0.0,0.0,1.0,0.0,0.0,0.0,1.0,-4.20731735229,-9.20731735229,-8.23170757294,1.0,0.0,0.0,0.0,1.0,0.0,0.0,0.0,1.0,-0.588973571866,0.162805712891,-9.73961235352,1.0,0.0,0.0,0.0,1.0,0.0,0.0,0.0,1.0
1463563510705109071,612,1463563510550114582,,-0.0271586291492,-4.76041936874,139.194290161,0.0100640002638,1.0,0.0,0.0,0.0,1.0,0.0,0.0,0.0,1.0,-4.39024400711,-8.96341514587,-8.35365867615,1.0,0.0,0.0,0.0,1.0,0.0,0.0,0.0,1.0,-0.641646044922,0.201112939453,-9.80186159668,1.0,0.0,0.0,0.0,1.0,0.0,0.0,0.0,1.0
1463563510705412772,613,1463563510560372683,,-0.0782047659159,-4.82381296158,139.096984863,0.0100910002366,1.0,0.0,0.0,0.0,1.0,0.0,0.0,0.0,1.0,-3.65853667259,-8.84146404266,-8.59756088257,1.0,0.0,0.0,0.0,1.0,0.0,0.0,0.0,1.0,-0.579396801758,0.282515795898,-9.65821008159,1.0,0.0,0.0,0.0,1.0,0.0,0.0,0.0,1.0
1463563510705765170,614,1463563510570455730,,-0.120455548167,-4.89141178131,138.994827271,0.0101180002093,1.0,0.0,0.0,0.0,1.0,0.0,0.0,0.0,1.0,-3.17073178291,-8.84146404266,-9.02439117432,1.0,0.0,0.0,0.0,1.0,0.0,0.0,0.0,1.0,-0.651222851562,0.229843359375,-9.57201882183,1.0,0.0,0.0,0.0,1.0,0.0,0.0,0.0,1.0
1463563510705837723,615,1463563510580618674,,-0.156645551324,-4.95354318619,138.876739502,0.010106000118,1.0,0.0,0.0,0.0,1.0,0.0,0.0,0.0,1.0,-1.95121955872,-8.78048801422,-10.6707315445,1.0,0.0,0.0,0.0,1.0,0.0,0.0,0.0,1.0,-0.588973571866,0.373495458984,-9.71088193359,1.0,0.0,0.0,0.0,1.0,0.0,0.0,0.0,1.0
1463563510706093766,616,1463563510590852608,,-0.179868727922,-5.00800991058,138.749542236,0.0100999996066,1.0,0.0,0.0,0.0,1.0,0.0,0.0,0.0,1.0,-0.670731723309,-8.90243911743,-11.5853662491,1.0,0.0,0.0,0.0,1.0,0.0,0.0,0.0,1.0,-0.450109912109,0.397437475586,-9.77791958008,1.0,0.0,0.0,0.0,1.0,0.0,0.0,0.0,1.0
1463563510706144600,617,1463563510600816644,,-0.184662118554,-5.07173728943,138.610794067,0.0100899999961,1.0,0.0,0.0,0.0,1.0,0.0,0.0,0.0,1.0,0.426829278469,-9.87804889679,-12.6829271317,1.0,0.0,0.0,0.0,1.0,0.0,0.0,0.0,1.0,-0.445321508789,0.292092584273,-9.68693991699,1.0,0.0,0.0,0.0,1.0,0.0,0.0,0.0,1.0
1463563510706382623,618,1463563510610575730,,-0.185197949409,-5.13172054291,138.463104248,0.0101020000875,1.0,0.0,0.0,0.0,1.0,0.0,0.0,0.0,1.0,1.34146344662,-9.63414573669,-13.5975618362,1.0,0.0,0.0,0.0,1.0,0.0,0.0,0.0,1.0,-0.426167895508,0.387860668945,-9.54807680523,1.0,0.0,0.0,0.0,1.0,0.0,0.0,0.0,1.0
1463563510706899242,619,1463563510621062687,,-0.174780502915,-5.20714473724,138.318313599,0.0101070003584,1.0,0.0,0.0,0.0,1.0,0.0,0.0,0.0,1.0,2.92682933807,-11.0365858078,-13.3536586761,1.0,0.0,0.0,0.0,1.0,0.0,0.0,0.0,1.0,-0.46447512207,0.478840332031,-9.69651672363,1.0,0.0,0.0,0.0,1.0,0.0,0.0,0.0,1.0
1463563510706950752,620,1463563510631148599,,-0.127535030246,-5.2848944664,138.169174194,0.0100940000266,1.0,0.0,0.0,0.0,1.0,0.0,0.0,0.0,1.0,4.32926845551,-11.4634151459,-13.5975618362,1.0,0.0,0.0,0.0,1.0,0.0,0.0,0.0,1.0,-0.450109912109,0.100556469727,-9.76834277344,1.0,0.0,0.0,0.0,1.0,0.0,0.0,0.0,1.0
1463563510707242473,621,1463563510641253157,,-0.0771639570594,-5.37056398392,138.025146484,0.0101300003007,1.0,0.0,0.0,0.0,1.0,0.0,0.0,0.0,1.0,4.14634132385,-11.7682924271,-12.9878053665,1.0,0.0,0.0,0.0,1.0,0.0,0.0,0.0,1.0,-0.545877978516,0.00478840332031,-9.80665,1.0,0.0,0.0,0.0,1.0,0.0,0.0,0.0,1.0
1463563510707535236,622,1463563510650964430,,-0.0283234734088,-5.44501495361,137.879608154,0.0101509997621,1.0,0.0,0.0,0.0,1.0,0.0,0.0,0.0,1.0,4.08536577225,-12.1951217651,-13.1097564697,1.0,0.0,0.0,0.0,1.0,0.0,0.0,0.0,1.0,-0.296881024126,0.0191536132812,-9.90720646973,1.0,0.0,0.0,0.0,1.0,0.0,0.0,0.0,1.0
1463563510708015865,623,1463563510661375085,,0.0228825975209,-5.53113222122,137.741455078,0.0100819999352,1.0,0.0,0.0,0.0,1.0,0.0,0.0,0.0,1.0,4.08536577225,-13.4146347046,-12.4390249252,1.0,0.0,0.0,0.0,1.0,0.0,0.0,0.0,1.0,-0.3064578125,-0.0430956298828,-9.80186159668,1.0,0.0,0.0,0.0,1.0,0.0,0.0,0.0,1.0
1463563510708066855,624,1463563510671355839,,0.061060719192,-5.62548208237,137.604278564,0.010053999722,1.0,0.0,0.0,0.0,1.0,0.0,0.0,0.0,1.0,4.75609779358,-14.6951217651,-12.5609760284,1.0,0.0,0.0,0.0,1.0,0.0,0.0,0.0,1.0,-0.244208569336,0.287304199219,-9.69172832031,1.0,0.0,0.0,0.0,1.0,0.0,0.0,0.0,1.0
1463563510848126488,625,1463563510681294771,,0.106771096587,-5.73590087891,137.467910767,0.0101460004225,1.0,0.0,0.0,0.0,1.0,0.0,0.0,0.0,1.0,6.40243911743,-16.2195110321,-12.4390249252,1.0,0.0,0.0,0.0,1.0,0.0,0.0,0.0,1.0,-0.258573779297,0.445321508789,-9.73961235352,1.0,0.0,0.0,0.0,1.0,0.0,0.0,0.0,1.0
1463563510848178416,626,1463563510691329224,,0.174933761358,-5.86164808273,137.327545166,0.0100830001757,1.0,0.0,0.0,0.0,1.0,0.0,0.0,0.0,1.0,7.62195110321,-17.2560977936,-12.8048782349,1.0,0.0,0.0,0.0,1.0,0.0,0.0,0.0,1.0,-0.392649072266,0.282515795898,-10.1562034424,1.0,0.0,0.0,0.0,1.0,0.0,0.0,0.0,1.0
1463563510848476126,627,1463563510701454095,,0.263387352228,-6.00139856339,137.191085815,0.010053999722,1.0,0.0,0.0,0.0,1.0,0.0,0.0,0.0,1.0,9.14634132385,-18.3536586761,-12.3780488968,1.0,0.0,0.0,0.0,1.0,0.0,0.0,0.0,1.0,-0.478840332031,0.177170922852,-10.1705686523,1.0,0.0,0.0,0.0,1.0,0.0,0.0,0.0,1.0
1463563510848787796,628,1463563510711577820,,0.359656244516,-6.14191389084,137.055877686,0.0101150004193,1.0,0.0,0.0,0.0,1.0,0.0,0.0,0.0,1.0,9.14634132385,-18.7195110321,-12.0731716156,1.0,0.0,0.0,0.0,1.0,0.0,0.0,0.0,1.0,-0.440533105469,0.0335188255255,-10.1753570557,1.0,0.0,0.0,0.0,1.0,0.0,0.0,0.0,1.0
1463563510849124673,629,1463563510721597012,,0.458339989185,-6.28677892685,136.923583984,0.0101870000362,1.0,0.0,0.0,0.0,1.0,0.0,0.0,0.0,1.0,9.20731735229,-19.2073173523,-11.6463422775,1.0,0.0,0.0,0.0,1.0,0.0,0.0,0.0,1.0,-0.435744702148,-0.00478840332031,-10.0652237793,1.0,0.0,0.0,0.0,1.0,0.0,0.0,0.0,1.0
1463563510849481030,630,1463563510731662664,,0.553699731827,-6.43379449844,136.805038452,0.0100140003487,1.0,0.0,0.0,0.0,1.0,0.0,0.0,0.0,1.0,9.81707286835,-19.6951236725,-10.548781395,1.0,0.0,0.0,0.0,1.0,0.0,0.0,0.0,1.0,-0.46447512207,0.100556469727,-10.1897222656,1.0,0.0,0.0,0.0,1.0,0.0,0.0,0.0,1.0
1463563510849767595,631,1463563510741801649,,0.661483943462,-6.58835077286,136.695083618,0.0100870002061,1.0,0.0,0.0,0.0,1.0,0.0,0.0,0.0,1.0,10.4878053665,-20.7926826477,-9.51219558716,1.0,0.0,0.0,0.0,1.0,0.0,0.0,0.0,1.0,-0.407014282227,-0.0191536132812,-10.1035310059,1.0,0.0,0.0,0.0,1.0,0.0,0.0,0.0,1.0
1463563510850050826,632,1463563510751895894,,0.77329403162,-6.75527191162,136.590591431,0.0100990002975,1.0,0.0,0.0,0.0,1.0,0.0,0.0,0.0,1.0,10.8536586761,-22.1341457367,-8.90243911743,1.0,0.0,0.0,0.0,1.0,0.0,0.0,0.0,1.0,-0.411802685547,-0.0478840332031,-10.0795889893,1.0,0.0,0.0,0.0,1.0,0.0,0.0,0.0,1.0
1463563510850319943,633,1463563510762053213,,0.884017050266,-6.931661129,136.4972229,0.0101110003889,1.0,0.0,0.0,0.0,1.0,0.0,0.0,0.0,1.0,11.7682924271,-22.682926178,-7.86585378647,1.0,0.0,0.0,0.0,1.0,0.0,0.0,0.0,1.0,-0.512359155273,0.100556469727,-10.165780249,1.0,0.0,0.0,0.0,1.0,0.0,0.0,0.0,1.0
1463563510850575049,634,1463563510772130792,,1.00643289089,-7.11819410324,136.408660889,0.0101110003889,1.0,0.0,0.0,0.0,1.0,0.0,0.0,0.0,1.0,12.7439022064,-23.0487823486,-7.31707334518,1.0,0.0,0.0,0.0,1.0,0.0,0.0,0.0,1.0,-0.665588061523,0.0430956298828,-10.2376062988,1.0,0.0,0.0,0.0,1.0,0.0,0.0,0.0,1.0
1463563510850823541,635,1463563510782094984,,1.13693356514,-7.31646442413,136.319946289,0.0100870002061,1.0,0.0,0.0,0.0,1.0,0.0,0.0,0.0,1.0,13.2926826477,-24.0243911743,-7.25609779358,1.0,0.0,0.0,0.0,1.0,0.0,0.0,0.0,1.0,-0.742202514648,-0.0239420166016,-10.1992990723,1.0,0.0,0.0,0.0,1.0,0.0,0.0,0.0,1.0
1463563510851134272,636,1463563510792304230,,1.26692461967,-7.51346540451,136.234405518,0.0101070003584,1.0,0.0,0.0,0.0,1.0,0.0,0.0,0.0,1.0,14.2682924271,-24.0243911743,-7.01219511032,1.0,0.0,0.0,0.0,1.0,0.0,0.0,0.0,1.0,-0.76135612793,0.143652099609,-10.3477395752,1.0,0.0,0.0,0.0,1.0,0.0,0.0,0.0,1.0
1463563510851842819,637,1463563510802500560,,1.40720117092,-7.71123838425,136.150100708,0.0100899999961,1.0,0.0,0.0,0.0,1.0,0.0,0.0,0.0,1.0,15.1829271317,-24.4512195587,-6.82926845551,1.0,0.0,0.0,0.0,1.0,0.0,0.0,0.0,1.0,-0.751779321289,0.100556469727,-10.4818148682,1.0,0.0,0.0,0.0,1.0,0.0,0.0,0.0,1.0
1463563510851903809,638,1463563510812435325,,1.56642901897,-7.91821479797,136.066177368,0.0101039996371,1.0,0.0,0.0,0.0,1.0,0.0,0.0,0.0,1.0,16.0975608826,-24.817073822,-6.58536624908,1.0,0.0,0.0,0.0,1.0,0.0,0.0,0.0,1.0,-0.876277807617,-0.0957680664062,-10.3381627686,1.0,0.0,0.0,0.0,1.0,0.0,0.0,0.0,1.0
1463563510854921333,639,1463563510823188794,,1.74709832668,-8.14291667938,135.981689453,0.0107239997014,1.0,0.0,0.0,0.0,1.0,0.0,0.0,0.0,1.0,16.4634151459,-25.3048782349,-5.97560977936,1.0,0.0,0.0,0.0,1.0,0.0,0.0,0.0,1.0,-0.895431420898,-0.258573779297,-10.1466266357,1.0,0.0,0.0,0.0,1.0,0.0,0.0,0.0,1.0
1463563510855347847,640,1463563510832716472,,1.91158092022,-8.35637187958,135.911468506,0.00948099978268,1.0,0.0,0.0,0.0,1.0,0.0,0.0,0.0,1.0,17.1951217651,-24.3902435303,-5.48780488968,1.0,0.0,0.0,0.0,1.0,0.0,0.0,0.0,1.0,-1.35032973633,-0.248996972656,-9.88326445312,1.0,0.0,0.0,0.0,1.0,0.0,0.0,0.0,1.0
1463563510889815824,641,1463563510842811916,,2.08540582657,-8.56792068481,135.841918945,0.0101009998471,1.0,0.0,0.0,0.0,1.0,0.0,0.0,0.0,1.0,15.548781395,-23.7804889679,-4.69512224197,1.0,0.0,0.0,0.0,1.0,0.0,0.0,0.0,1.0,-1.23061965332,-0.560243188477,-9.98860932617,1.0,0.0,0.0,0.0,1.0,0.0,0.0,0.0,1.0
1463563510889908429,642,1463563510852927828,,2.22211146355,-8.76316165924,135.776504517,0.0101049998775,1.0,0.0,0.0,0.0,1.0,0.0,0.0,0.0,1.0,14.8170728683,-22.9878044128,-4.69512224197,1.0,0.0,0.0,0.0,1.0,0.0,0.0,0.0,1.0,-1.11090957031,-0.067037651051,-9.90241806641,1.0,0.0,0.0,0.0,1.0,0.0,0.0,0.0,1.0
1463563510889962439,643,1463563510862991344,,2.3701376915,-8.96395015717,135.711807251,0.0100969998166,1.0,0.0,0.0,0.0,1.0,0.0,0.0,0.0,1.0,15.2439022064,-23.475610733,-4.45121955872,1.0,0.0,0.0,0.0,1.0,0.0,0.0,0.0,1.0,-1.16837033709,-0.215478149414,-9.96466730957,1.0,0.0,0.0,0.0,1.0,0.0,0.0,0.0,1.0
1463563510890002596,644,1463563510873042203,,2.52168345451,-9.1544418335,135.639938354,0.0101009998471,1.0,0.0,0.0,0.0,1.0,0.0,0.0,0.0,1.0,16.2195110321,-22.682926178,-5.24390268326,1.0,0.0,0.0,0.0,1.0,0.0,0.0,0.0,1.0,-1.18273554705,-0.105344873047,-10.0700121826,1.0,0.0,0.0,0.0,1.0,0.0,0.0,0.0,1.0
1463563510920906170,645,1463563510883284627,,2.68349933624,-9.35830402374,135.563873291,0.0101070003584,1.0,0.0,0.0,0.0,1.0,0.0,0.0,0.0,1.0,17.9878044128,-22.6219520569,-5.73170757294,1.0,0.0,0.0,0.0,1.0,0.0,0.0,0.0,1.0,-1.4844050293,0.0239420166016,-10.1562034424,1.0,0.0,0.0,0.0,1.0,0.0,0.0,0.0,1.0
1463563510920959764,646,1463563510893349862,,2.88116788864,-9.55829524994,135.474990845,0.010106000118,1.0,0.0,0.0,0.0,1.0,0.0,0.0,0.0,1.0,19.817073822,-21.8292694092,-6.70731735229,1.0,0.0,0.0,0.0,1.0,0.0,0.0,0.0,1.0,-1.61369191895,-0.277727392578,-10.165780249,1.0,0.0,0.0,0.0,1.0,0.0,0.0,0.0,1.0
1463563510921255496,647,1463563510903550150,,3.09137701988,-9.74136447906,135.377471924,0.0101129999384,1.0,0.0,0.0,0.0,1.0,0.0,0.0,0.0,1.0,20.7926826477,-19.7560977936,-7.56097555161,1.0,0.0,0.0,0.0,1.0,0.0,0.0,0.0,1.0,-1.69988317871,-0.320823022461,-9.95987890625,1.0,0.0,0.0,0.0,1.0,0.0,0.0,0.0,1.0
1463563510921307580,648,1463563510913582363,,3.32384538651,-9.9128074646,135.2734375,0.0100969998166,1.0,0.0,0.0,0.0,1.0,0.0,0.0,0.0,1.0,19.7560977936,-19.3292694092,-7.62195110321,1.0,0.0,0.0,0.0,1.0,0.0,0.0,0.0,1.0,-1.59932670898,-0.91458503418,-9.83538041992,1.0,0.0,0.0,0.0,1.0,0.0,0.0,0.0,1.0
1463563510978964904,649,1463563510925734333,,3.51013064384,-10.0668325424,135.163101196,0.0100819999352,1.0,0.0,0.0,0.0,1.0,0.0,0.0,0.0,1.0,17.5000019073,-18.4146347046,-8.65853691101,1.0,0.0,0.0,0.0,1.0,0.0,0.0,0.0,1.0,-1.4844050293,-0.512359155273,-9.71567033691,1.0,0.0,0.0,0.0,1.0,0.0,0.0,0.0,1.0
1463563510979009071,650,1463563510933711687,,3.70795822144,-10.2164144516,135.040878296,0.010106000118,1.0,0.0,0.0,0.0,1.0,0.0,0.0,0.0,1.0,16.2804889679,-18.841463089,-9.32926845551,1.0,0.0,0.0,0.0,1.0,0.0,0.0,0.0,1.0,-1.37906015625,-0.9193734375,-9.77791958008,1.0,0.0,0.0,0.0,1.0,0.0,0.0,0.0,1.0
1463563510979387407,651,1463563510943825516,,3.86918926239,-10.3572940826,134.900283813,0.0101049998775,1.0,0.0,0.0,0.0,1.0,0.0,0.0,0.0,1.0,13.2926826477,-18.0487823486,-11.2804880142,1.0,0.0,0.0,0.0,1.0,0.0,0.0,0.0,1.0,-1.42694418945,-0.780509741211,-9.81622680664,1.0,0.0,0.0,0.0,1.0,0.0,0.0,0.0,1.0
1463563510979837255,652,1463563510954103512,,4.01874637604,-10.5179252625,134.752182007,0.0100959995762,1.0,0.0,0.0,0.0,1.0,0.0,0.0,0.0,1.0,10.6707315445,-19.2073173523,-11.6463422775,1.0,0.0,0.0,0.0,1.0,0.0,0.0,0.0,1.0,-1.63284553223,-1.05823706072,-9.95030209961,1.0,0.0,0.0,0.0,1.0,0.0,0.0,0.0,1.0
1463563511000392415,653,1463563510964332603,,4.11785125732,-10.6660480499,134.59375,0.0103979995474,1.0,0.0,0.0,0.0,1.0,0.0,0.0,0.0,1.0,7.31707334518,-18.1097564697,-12.6219520569,1.0,0.0,0.0,0.0,1.0,0.0,0.0,0.0,1.0,-1.59932670898,-0.718260498047,-10.1178962158,1.0,0.0,0.0,0.0,1.0,0.0,0.0,0.0,1.0
1463563511000435801,654,1463563510974687892,,4.21490478516,-10.813287735,134.436859131,0.00982400029898,1.0,0.0,0.0,0.0,1.0,0.0,0.0,0.0,1.0,3.35365867615,-18.3536586761,-12.5,1.0,0.0,0.0,0.0,1.0,0.0,0.0,0.0,1.0,-1.74776721191,-1.52271225586,-10.2184526855,1.0,0.0,0.0,0.0,1.0,0.0,0.0,0.0,1.0
1463563511000476426,655,1463563510984308331,,4.23733615875,-10.9650802612,134.275695801,0.0100809996948,1.0,0.0,0.0,0.0,1.0,0.0,0.0,0.0,1.0,-1.70731711388,-17.5609760284,-13.048781395,1.0,0.0,0.0,0.0,1.0,0.0,0.0,0.0,1.0,-1.95366855469,-1.04866025408,-10.285490332,1.0,0.0,0.0,0.0,1.0,0.0,0.0,0.0,1.0
1463563511000514603,656,1463563510998014219,,4.22868728638,-11.1141710281,134.098358154,0.010111999698,1.0,0.0,0.0,0.0,1.0,0.0,0.0,0.0,1.0,-5.18292713165,-16.2804889679,-14.6341466904,1.0,0.0,0.0,0.0,1.0,0.0,0.0,0.0,1.0,-2.16435844691,-1.0534486574,-10.1753570557,1.0,0.0,0.0,0.0,1.0,0.0,0.0,0.0,1.0
1463563511040634968,657,1463563511005225838,,4.18196725845,-11.2453651428,133.900161743,0.010214000009,1.0,0.0,0.0,0.0,1.0,0.0,0.0,0.0,1.0,-7.13414621353,-14.6341466904,-17.0121955872,1.0,0.0,0.0,0.0,1.0,0.0,0.0,0.0,1.0,-2.16435844691,-0.641646044922,-10.1562034424,1.0,0.0,0.0,0.0,1.0,0.0,0.0,0.0,1.0
1463563511040910335,658,1463563511014594973,,4.13599348068,-11.3683671951,133.692367554,0.00997299980372,1.0,0.0,0.0,0.0,1.0,0.0,0.0,0.0,1.0,-7.31707334518,-12.6219520569,-18.5975627899,1.0,0.0,0.0,0.0,1.0,0.0,0.0,0.0,1.0,-2.46602770996,-0.593762048251,-10.060435376,1.0,0.0,0.0,0.0,1.0,0.0,0.0,0.0,1.0
1463563511041184504,659,1463563511025098649,,4.09960412979,-11.4754457474,133.462661743,0.0101169999689,1.0,0.0,0.0,0.0,1.0,0.0,0.0,0.0,1.0,-7.98780536652,-10.7317075729,-20.3048782349,1.0,0.0,0.0,0.0,1.0,0.0,0.0,0.0,1.0,-2.53785375977,-0.823605371094,-10.0556469727,1.0,0.0,0.0,0.0,1.0,0.0,0.0,0.0,1.0
1463563511041450756,660,1463563511035852014,,4.05558633804,-11.5561542511,133.221313477,0.0101469997317,1.0,0.0,0.0,0.0,1.0,0.0,0.0,0.0,1.0,-9.02439117432,-7.43902492523,-21.5853652954,1.0,0.0,0.0,0.0,1.0,0.0,0.0,0.0,1.0,-2.70544787598,-0.828393774414,-10.0891657959,1.0,0.0,0.0,0.0,1.0,0.0,0.0,0.0,1.0
1463563511116615717,661,1463563511045730268,,3.99210715294,-11.6066188812,132.976257324,0.0100929997861,1.0,0.0,0.0,0.0,1.0,0.0,0.0,0.0,1.0,-10.9756097794,-4.32926845551,-22.3170719147,1.0,0.0,0.0,0.0,1.0,0.0,0.0,0.0,1.0,-2.74854350586,-0.794874951172,-10.0700121826,1.0,0.0,0.0,0.0,1.0,0.0,0.0,0.0,1.0
1463563511116920719,662,1463563511055168727,,3.90976667404,-11.6250114441,132.726379395,0.0100490003824,1.0,0.0,0.0,0.0,1.0,0.0,0.0,0.0,1.0,-12.0731716156,-1.34146344662,-23.2926845551,1.0,0.0,0.0,0.0,1.0,0.0,0.0,0.0,1.0,-2.7341782959,-0.60812722168,-10.1035310059,1.0,0.0,0.0,0.0,1.0,0.0,0.0,0.0,1.0
1463563511117208690,663,1463563511065080940,,3.82913351059,-11.6197729111,132.455764771,0.010106000118,1.0,0.0,0.0,0.0,1.0,0.0,0.0,0.0,1.0,-12.0121955872,1.03658533096,-25.3658542633,1.0,0.0,0.0,0.0,1.0,0.0,0.0,0.0,1.0,-2.69587106934,-0.536301208408,-9.86411083984,1.0,0.0,0.0,0.0,1.0,0.0,0.0,0.0,1.0
1463563511117474421,664,1463563511075135498,,3.7294023037,-11.5854625702,132.179351807,0.0100889997557,1.0,0.0,0.0,0.0,1.0,0.0,0.0,0.0,1.0,-12.6829271317,4.20731735229,-26.4634151459,1.0,0.0,0.0,0.0,1.0,0.0,0.0,0.0,1.0,-2.7102362793,-0.268150604204,-9.72524714355,1.0,0.0,0.0,0.0,1.0,0.0,0.0,0.0,1.0
1463563511144226609,665,1463563511085535735,,3.64794111252,-11.5372457504,131.884857178,0.010150000453,1.0,0.0,0.0,0.0,1.0,0.0,0.0,0.0,1.0,-11.9512195587,7.07317113876,-28.0487804413,1.0,0.0,0.0,0.0,1.0,0.0,0.0,0.0,1.0,-3.05500131836,-0.407014282227,-9.90720646973,1.0,0.0,0.0,0.0,1.0,0.0,0.0,0.0,1.0
1463563511144480569,666,1463563511095978785,,3.57097363472,-11.4532117844,131.581085205,0.0101479999721,1.0,0.0,0.0,0.0,1.0,0.0,0.0,0.0,1.0,-10.3048782349,9.75609779358,-29.3902435303,1.0,0.0,0.0,0.0,1.0,0.0,0.0,0.0,1.0,-2.8299463623,-0.138863696289,-9.71088193359,1.0,0.0,0.0,0.0,1.0,0.0,0.0,0.0,1.0
1463563511144730832,667,1463563511105735476,,3.4973886013,-11.3265581131,131.260910034,0.0100570004433,1.0,0.0,0.0,0.0,1.0,0.0,0.0,0.0,1.0,-10.4878053665,13.7804880142,-31.4634151459,1.0,0.0,0.0,0.0,1.0,0.0,0.0,0.0,1.0,-2.8299463623,-0.15322890625,-9.90241806641,1.0,0.0,0.0,0.0,1.0,0.0,0.0,0.0,1.0
1463563511144975625,668,1463563511116181703,,3.45922684669,-11.1881122589,130.934326172,0.0100739998743,1.0,0.0,0.0,0.0,1.0,0.0,0.0,0.0,1.0,-8.47560977936,15.4878053665,-31.8292694092,1.0,0.0,0.0,0.0,1.0,0.0,0.0,0.0,1.0,-2.93050283203,-0.416591088867,-9.95987890625,1.0,0.0,0.0,0.0,1.0,0.0,0.0,0.0,1.0
1463563511171010360,669,1463563511126001936,,3.40358185768,-10.9992446899,130.598388672,0.0101209999993,1.0,0.0,0.0,0.0,1.0,0.0,0.0,0.0,1.0,-9.26829242706,18.841463089,-32.9878044128,1.0,0.0,0.0,0.0,1.0,0.0,0.0,0.0,1.0,-2.65756384277,-0.234631762695,-10.1370498291,1.0,0.0,0.0,0.0,1.0,0.0,0.0,0.0,1.0
1463563511171666354,670,1463563511136645092,,3.35647153854,-10.7873849869,130.261611938,0.0100910002366,1.0,0.0,0.0,0.0,1.0,0.0,0.0,0.0,1.0,-9.69512176514,19.3292694092,-32.9268302917,1.0,0.0,0.0,0.0,1.0,0.0,0.0,0.0,1.0,-2.25054956055,-0.474051928711,-10.0556469727,1.0,0.0,0.0,0.0,1.0,0.0,0.0,0.0,1.0
1463563511171927867,671,1463563511146171051,,3.29059123993,-10.563325882,129.924087524,0.0100840004161,1.0,0.0,0.0,0.0,1.0,0.0,0.0,0.0,1.0,-10.7317075729,19.5121955872,-33.1707305908,1.0,0.0,0.0,0.0,1.0,0.0,0.0,0.0,1.0,-2.02549460449,-0.335188232422,-10.1178962158,1.0,0.0,0.0,0.0,1.0,0.0,0.0,0.0,1.0
1463563511172192765,672,1463563511156997386,,3.24561834335,-10.3479480743,129.575805664,0.0100990002975,1.0,0.0,0.0,0.0,1.0,0.0,0.0,0.0,1.0,-11.2195119858,18.9634151459,-33.6585388184,1.0,0.0,0.0,0.0,1.0,0.0,0.0,0.0,1.0,-2.01591779785,-0.775721337891,-9.93593688965,1.0,0.0,0.0,0.0,1.0,0.0,0.0,0.0,1.0
1463563511205965319,673,1463563511167565958,,3.17326164246,-10.1419324875,129.226364136,0.0102099999785,1.0,0.0,0.0,0.0,1.0,0.0,0.0,0.0,1.0,-12.9268293381,18.7804889679,-33.5365867615,1.0,0.0,0.0,0.0,1.0,0.0,0.0,0.0,1.0,-2.1691467041,-0.636857641602,-10.0508585693,1.0,0.0,0.0,0.0,1.0,0.0,0.0,0.0,1.0
1463563511206285374,674,1463563511176031857,,3.07471561432,-9.95879173279,128.887573242,0.00997800007463,1.0,0.0,0.0,0.0,1.0,0.0,0.0,0.0,1.0,-14.5731706619,18.3536586761,-33.4146347046,1.0,0.0,0.0,0.0,1.0,0.0,0.0,0.0,1.0,-2.42293208008,-0.450109912109,-10.2376062988,1.0,0.0,0.0,0.0,1.0,0.0,0.0,0.0,1.0
1463563511206554855,675,1463563511186276989,,2.96129441261,-9.74409866333,128.555892944,0.0101199997589,1.0,0.0,0.0,0.0,1.0,0.0,0.0,0.0,1.0,-16.5243911743,19.5731716156,-32.134147644,1.0,0.0,0.0,0.0,1.0,0.0,0.0,0.0,1.0,-2.06859023437,-0.612915625,-10.3094323486,1.0,0.0,0.0,0.0,1.0,0.0,0.0,0.0,1.0
1463563511206834389,676,1463563511196645403,,2.81632256508,-9.55257225037,128.235656738,0.0102909998968,1.0,0.0,0.0,0.0,1.0,0.0,0.0,0.0,1.0,-17.6219520569,18.5975627899,-30.6707305908,1.0,0.0,0.0,0.0,1.0,0.0,0.0,0.0,1.0,-2.25054956055,-0.320823022461,-10.0556469727,1.0,0.0,0.0,0.0,1.0,0.0,0.0,0.0,1.0
1463563511243225350,677,1463563511207139860,,2.67802548409,-9.35612678528,127.940864563,0.0099060004577,1.0,0.0,0.0,0.0,1.0,0.0,0.0,0.0,1.0,-17.9268302917,18.2317085266,-29.1463413239,1.0,0.0,0.0,0.0,1.0,0.0,0.0,0.0,1.0,-1.89620771484,-0.435744702148,-10.060435376,1.0,0.0,0.0,0.0,1.0,0.0,0.0,0.0,1.0
1463563511243509675,678,1463563511216580715,,2.54458045959,-9.15245056152,127.658378601,0.0101229995489,1.0,0.0,0.0,0.0,1.0,0.0,0.0,0.0,1.0,-19.1463432312,16.8902435303,-26.8292694092,1.0,0.0,0.0,0.0,1.0,0.0,0.0,0.0,1.0,-1.50355864258,-0.833182177734,-9.86411083984,1.0,0.0,0.0,0.0,1.0,0.0,0.0,0.0,1.0
1463563511243769364,679,1463563511226554438,,2.38014769554,-8.96695899963,127.394439697,0.0100680002943,1.0,0.0,0.0,0.0,1.0,0.0,0.0,0.0,1.0,-22.8048782349,14.1463422775,-24.8780498505,1.0,0.0,0.0,0.0,1.0,0.0,0.0,0.0,1.0,-1.25935007324,-0.967257470703,-9.90241806641,1.0,0.0,0.0,0.0,1.0,0.0,0.0,0.0,1.0
1463563511244026970,680,1463563511237552128,,2.15666890144,-8.82323932648,127.150039673,0.0103010004386,1.0,0.0,0.0,0.0,1.0,0.0,0.0,0.0,1.0,-26.0365848541,10.1829271317,-22.5,1.0,0.0,0.0,0.0,1.0,0.0,0.0,0.0,1.0,-1.28329208984,-0.636857641602,-9.89284125977,1.0,0.0,0.0,0.0,1.0,0.0,0.0,0.0,1.0
1463563511336780298,681,1463563511247631426,,1.91068041325,-8.71901226044,126.928771973,0.00996099971235,1.0,0.0,0.0,0.0,1.0,0.0,0.0,0.0,1.0,-27.2560977936,7.13414621353,-21.0975627899,1.0,0.0,0.0,0.0,1.0,0.0,0.0,0.0,1.0,-1.33117612305,-0.335188232422,-10.0556469727,1.0,0.0,0.0,0.0,1.0,0.0,0.0,0.0,1.0
1463563511339392193,682,1463563511257715619,,1.67332661152,-8.64774417877,126.717300415,0.0101020000875,1.0,0.0,0.0,0.0,1.0,0.0,0.0,0.0,1.0,-27.0731716156,3.96341490746,-19.5121955872,1.0,0.0,0.0,0.0,1.0,0.0,0.0,0.0,1.0,-1.33117612305,-0.517147558594,-10.0556469727,1.0,0.0,0.0,0.0,1.0,0.0,0.0,0.0,1.0
1463563511339922093,683,1463563511267828093,,1.42160224915,-8.6069726944,126.521858215,0.0101939998567,1.0,0.0,0.0,0.0,1.0,0.0,0.0,0.0,1.0,-26.6463432312,0.487804889679,-17.8658542633,1.0,0.0,0.0,0.0,1.0,0.0,0.0,0.0,1.0,-1.23061965332,-0.234631762695,-10.1562034424,1.0,0.0,0.0,0.0,1.0,0.0,0.0,0.0,1.0
1463563511341593877,684,1463563511277496085,,1.18854880333,-8.59343624115,126.34312439,0.00998899992555,1.0,0.0,0.0,0.0,1.0,0.0,0.0,0.0,1.0,-24.3292694092,-2.43902444839,-16.6463413239,1.0,0.0,0.0,0.0,1.0,0.0,0.0,0.0,1.0,-1.15879360352,-0.0526724365234,-10.2136642822,1.0,0.0,0.0,0.0,1.0,0.0,0.0,0.0,1.0
1463563511342003151,685,1463563511287614498,,0.978497385979,-8.6120262146,126.182830811,0.0100710000843,1.0,0.0,0.0,0.0,1.0,0.0,0.0,0.0,1.0,-21.8902435303,-6.46341466904,-14.5731706619,1.0,0.0,0.0,0.0,1.0,0.0,0.0,0.0,1.0,-0.986411083984,-0.0718260498047,-10.2040874756,1.0,0.0,0.0,0.0,1.0,0.0,0.0,0.0,1.0
1463563511342333674,686,1463563511297576294,,0.773536801338,-8.66345119476,126.049720764,0.010106000118,1.0,0.0,0.0,0.0,1.0,0.0,0.0,0.0,1.0,-19.7560977936,-9.81707286835,-12.0121955872,1.0,0.0,0.0,0.0,1.0,0.0,0.0,0.0,1.0,-0.952892260742,0.177170922852,-10.2136642822,1.0,0.0,0.0,0.0,1.0,0.0,0.0,0.0,1.0
1463563511343042065,687,1463563511308029865,,0.606525123119,-8.75669288635,125.934486389,0.0101469997317,1.0,0.0,0.0,0.0,1.0,0.0,0.0,0.0,1.0,-16.158536911,-14.3902444839,-10.1219511032,1.0,0.0,0.0,0.0,1.0,0.0,0.0,0.0,1.0,-0.861912597656,0.124498486328,-10.1753570557,1.0,0.0,0.0,0.0,1.0,0.0,0.0,0.0,1.0
1463563511343089774,688,1463563511318064943,,0.471218049526,-8.88537406921,125.841583252,0.0100609995425,1.0,0.0,0.0,0.0,1.0,0.0,0.0,0.0,1.0,-12.6829271317,-18.9634151459,-8.04878044128,1.0,0.0,0.0,0.0,1.0,0.0,0.0,0.0,1.0,-0.689530078125,0.181959326172,-10.1083194092,1.0,0.0,0.0,0.0,1.0,0.0,0.0,0.0,1.0
1463563511343475819,689,1463563511328042469,,0.360853046179,-9.0579662323,125.764038086,0.0101880002767,1.0,0.0,0.0,0.0,1.0,0.0,0.0,0.0,1.0,-10.1829271317,-23.5975627899,-6.40243911743,1.0,0.0,0.0,0.0,1.0,0.0,0.0,0.0,1.0,-0.622492431641,0.143652099609,-10.1370498291,1.0,0.0,0.0,0.0,1.0,0.0,0.0,0.0,1.0
1463563511343520558,690,1463563511338447290,,0.286818295717,-9.28878974915,125.702613831,0.0101739997044,1.0,0.0,0.0,0.0,1.0,0.0,0.0,0.0,1.0,-6.64634132385,-29.2682933807,-4.81707286835,1.0,0.0,0.0,0.0,1.0,0.0,0.0,0.0,1.0,-0.670376464844,0.119710083008,-10.2280294922,1.0,0.0,0.0,0.0,1.0,0.0,0.0,0.0,1.0
1463563511425486979,691,1463563511348520962,,0.244076505303,-9.56590938568,125.658630371,0.0099419998005,1.0,0.0,0.0,0.0,1.0,0.0,0.0,0.0,1.0,-3.84146332741,-34.0853691101,-3.17073178291,1.0,0.0,0.0,0.0,1.0,0.0,0.0,0.0,1.0,-0.775721337891,0.0574608398438,-10.2040874756,1.0,0.0,0.0,0.0,1.0,0.0,0.0,0.0,1.0
1463563511425736043,692,1463563511358271351,,0.227688655257,-9.8944978714,125.628471375,0.010106000118,1.0,0.0,0.0,0.0,1.0,0.0,0.0,0.0,1.0,-1.58536589146,-38.2926864624,-1.64634156227,1.0,0.0,0.0,0.0,1.0,0.0,0.0,0.0,1.0,-0.905008227539,-0.0526724365234,-10.2184526855,1.0,0.0,0.0,0.0,1.0,0.0,0.0,0.0,1.0
1463563511426002816,693,1463563511368503409,,0.23691727221,-10.2686052322,125.617080688,0.0100940000266,1.0,0.0,0.0,0.0,1.0,0.0,0.0,0.0,1.0,0.609756112099,-42.5609779358,0.304878056049,1.0,0.0,0.0,0.0,1.0,0.0,0.0,0.0,1.0,-1.00556469727,-0.167594116211,-10.1274730225,1.0,0.0,0.0,0.0,1.0,0.0,0.0,0.0,1.0
1463563511426262922,694,1463563511378553696,,0.255815625191,-10.6780986786,125.624206543,0.0100840004161,1.0,0.0,0.0,0.0,1.0,0.0,0.0,0.0,1.0,1.58536589146,-46.5243911743,2.19512200356,1.0,0.0,0.0,0.0,1.0,0.0,0.0,0.0,1.0,-0.991199487305,-0.225054956055,-10.0748005859,1.0,0.0,0.0,0.0,1.0,0.0,0.0,0.0,1.0
1463563511426521935,695,1463563511389001069,,0.277677953243,-11.1282300949,125.654525757,0.0101150004193,1.0,0.0,0.0,0.0,1.0,0.0,0.0,0.0,1.0,2.43902444839,-50.0,4.45121955872,1.0,0.0,0.0,0.0,1.0,0.0,0.0,0.0,1.0,-1.13963999023,-0.205901342773,-10.0843773926,1.0,0.0,0.0,0.0,1.0,0.0,0.0,0.0,1.0
1463563511426909646,696,1463563511398835677,,0.306618690491,-11.6096487045,125.704719543,0.0100840004161,1.0,0.0,0.0,0.0,1.0,0.0,0.0,0.0,1.0,2.74390244484,-52.8658561707,6.58536624908,1.0,0.0,0.0,0.0,1.0,0.0,0.0,0.0,1.0,-1.28329208984,-0.359130249023,-10.060435376,1.0,0.0,0.0,0.0,1.0,0.0,0.0,0.0,1.0
1463563511426975115,697,1463563511409016017,,0.33219563961,-12.1269788742,125.781578064,0.0102310003713,1.0,0.0,0.0,0.0,1.0,0.0,0.0,0.0,1.0,2.43902444839,-55.7317085266,9.20731735229,1.0,0.0,0.0,0.0,1.0,0.0,0.0,0.0,1.0,-1.35511813965,-0.45489831543,-10.0269165527,1.0,0.0,0.0,0.0,1.0,0.0,0.0,0.0,1.0
1463563511516500813,698,1463563511419267399,,0.339870750904,-12.6525058746,125.882865906,0.00997999962419,1.0,0.0,0.0,0.0,1.0,0.0,0.0,0.0,1.0,2.07317066193,-57.0731697083,11.6463422775,1.0,0.0,0.0,0.0,1.0,0.0,0.0,0.0,1.0,-1.55144267578,-0.320823022461,-9.83538041992,1.0,0.0,0.0,0.0,1.0,0.0,0.0,0.0,1.0
1463563511516792013,699,1463563511428887578,,0.340231955051,-13.2058897018,126.011695862,0.0101070003584,1.0,0.0,0.0,0.0,1.0,0.0,0.0,0.0,1.0,2.68292689323,-58.9634132385,14.0243902206,1.0,0.0,0.0,0.0,1.0,0.0,0.0,0.0,1.0,-1.62805712891,-0.196324536133,-9.53849999858,1.0,0.0,0.0,0.0,1.0,0.0,0.0,0.0,1.0
1463563511517066703,700,1463563511439304743,,0.333750873804,-13.7810926437,126.160522461,0.0102019999176,1.0,0.0,0.0,0.0,1.0,0.0,0.0,0.0,1.0,2.80487799644,-59.6341438293,15.7317075729,1.0,0.0,0.0,0.0,1.0,0.0,0.0,0.0,1.0,-1.92972653809,-0.15801730957,-9.73961235352,1.0,0.0,0.0,0.0,1.0,0.0,0.0,0.0,1.0
1463563511517336497,701,1463563511449938888,,0.32702678442,-14.3429412842,126.32535553,0.0100020002574,1.0,0.0,0.0,0.0,1.0,0.0,0.0,0.0,1.0,2.98780488968,-60.0609779358,17.6219520569,1.0,0.0,0.0,0.0,1.0,0.0,0.0,0.0,1.0,-1.9105729248,-0.225054956055,-9.70609353027,1.0,0.0,0.0,0.0,1.0,0.0,0.0,0.0,1.0
1463563511517598634,702,1463563511460035269,,0.318432986736,-14.909620285,126.50819397,0.0100910002366,1.0,0.0,0.0,0.0,1.0,0.0,0.0,0.0,1.0,3.90243911743,-59.5731735229,19.0243911743,1.0,0.0,0.0,0.0,1.0,0.0,0.0,0.0,1.0,-2.07816689489,-0.129286889648,-9.63426806499,1.0,0.0,0.0,0.0,1.0,0.0,0.0,0.0,1.0
1463563511517856970,703,1463563511469598156,,0.300135046244,-15.4656600952,126.707344055,0.0101020000875,1.0,0.0,0.0,0.0,1.0,0.0,0.0,0.0,1.0,4.93902444839,-59.207321167,20.1219520569,1.0,0.0,0.0,0.0,1.0,0.0,0.0,0.0,1.0,-2.03028300781,0.124498486328,-9.56723041851,1.0,0.0,0.0,0.0,1.0,0.0,0.0,0.0,1.0
1463563511518104472,704,1463563511480179593,,0.299503684044,-16.0183429718,126.915779114,0.0101640000939,1.0,0.0,0.0,0.0,1.0,0.0,0.0,0.0,1.0,7.13414621353,-58.1097564697,20.7926826477,1.0,0.0,0.0,0.0,1.0,0.0,0.0,0.0,1.0,-2.15957004359,0.134075302102,-9.37090471333,1.0,0.0,0.0,0.0,1.0,0.0,0.0,0.0,1.0
1463563511518364890,705,1463563511489862376,,0.309855103493,-16.5522003174,127.126068115,0.010050999932,1.0,0.0,0.0,0.0,1.0,0.0,0.0,0.0,1.0,7.98780536652,-57.1951217651,21.2804889679,1.0,0.0,0.0,0.0,1.0,0.0,0.0,0.0,1.0,-2.15957004359,0.0383072265625,-9.22246479492,1.0,0.0,0.0,0.0,1.0,0.0,0.0,0.0,1.0
1463563511589298620,706,1463563511500622669,,0.335307776928,-17.0610637665,127.337043762,0.0101079996675,1.0,0.0,0.0,0.0,1.0,0.0,0.0,0.0,1.0,8.90243911743,-55.7317085266,21.4024391174,1.0,0.0,0.0,0.0,1.0,0.0,0.0,0.0,1.0,-1.99197578125,-0.0909796630859,-9.06923588867,1.0,0.0,0.0,0.0,1.0,0.0,0.0,0.0,1.0
1463563511589675550,707,1463563511510136805,,0.354579716921,-17.5694694519,127.558364868,0.0101140001789,1.0,0.0,0.0,0.0,1.0,0.0,0.0,0.0,1.0,8.59756088257,-54.4512214661,22.3780498505,1.0,0.0,0.0,0.0,1.0,0.0,0.0,0.0,1.0,-2.27449157715,-0.124498486328,-9.05008227539,1.0,0.0,0.0,0.0,1.0,0.0,0.0,0.0,1.0
1463563511590013938,708,1463563511519893652,,0.484853327274,-18.1111717224,127.764755249,0.0100630000234,1.0,0.0,0.0,0.0,1.0,0.0,0.0,0.0,1.0,14.8170728683,-53.9024391174,22.5609760284,1.0,0.0,0.0,0.0,1.0,0.0,0.0,0.0,1.0,-2.51391174316,-0.775721337891,-7.39808312988,1.0,0.0,0.0,0.0,1.0,0.0,0.0,0.0,1.0
1463563511590352587,709,1463563511531686348,,0.439388930798,-18.6148986816,128.055496216,0.0115010002628,1.0,0.0,0.0,0.0,1.0,0.0,0.0,0.0,1.0,6.15853643417,-48.1097602844,24.8780498505,1.0,0.0,0.0,0.0,1.0,0.0,0.0,0.0,1.0,-2.43729729004,0.196324536133,-9.1219083252,1.0,0.0,0.0,0.0,1.0,0.0,0.0,0.0,1.0
1463563511592596458,710,1463563511540598657,,0.431488007307,-18.9915962219,128.274551392,0.00870000012219,1.0,0.0,0.0,0.0,1.0,0.0,0.0,0.0,1.0,7.13414621353,-47.3780517578,25.4268302917,1.0,0.0,0.0,0.0,1.0,0.0,0.0,0.0,1.0,-2.4995465332,-0.181959326172,-8.88248815918,1.0,0.0,0.0,0.0,1.0,0.0,0.0,0.0,1.0
1463563511593776520,711,1463563511550997124,,0.396083235741,-19.3805065155,128.549453735,0.0101300003007,1.0,0.0,0.0,0.0,1.0,0.0,0.0,0.0,1.0,6.34146356583,-43.9634170532,26.8292694092,1.0,0.0,0.0,0.0,1.0,0.0,0.0,0.0,1.0,-2.2170307373,-0.00957680664062,-8.52335849468,1.0,0.0,0.0,0.0,1.0,0.0,0.0,0.0,1.0
1463563511594120064,712,1463563511563944516,,0.343937069178,-19.7365818024,128.836608887,0.0101169999689,1.0,0.0,0.0,0.0,1.0,0.0,0.0,0.0,1.0,7.01219511032,-40.2439041138,27.2560977936,1.0,0.0,0.0,0.0,1.0,0.0,0.0,0.0,1.0,-2.37983659633,0.287304199219,-8.5760309312,1.0,0.0,0.0,0.0,1.0,0.0,0.0,0.0,1.0
1463563511594417723,713,1463563511570172377,,0.311517834663,-20.0745506287,129.122070312,0.0100499996915,1.0,0.0,0.0,0.0,1.0,0.0,0.0,0.0,1.0,7.68292665482,-39.817073822,27.682926178,1.0,0.0,0.0,0.0,1.0,0.0,0.0,0.0,1.0,-2.25533796387,0.0574608398438,-8.5760309312,1.0,0.0,0.0,0.0,1.0,0.0,0.0,0.0,1.0
1463563511715759450,714,1463563511582456692,,0.273365229368,-20.3849925995,129.415344238,0.0101399999112,1.0,0.0,0.0,0.0,1.0,0.0,0.0,0.0,1.0,8.17073154449,-35.6707344055,27.8048782349,1.0,0.0,0.0,0.0,1.0,0.0,0.0,0.0,1.0,-2.45645090332,0.177170922852,-8.43716606587,1.0,0.0,0.0,0.0,1.0,0.0,0.0,0.0,1.0
1463563511716126953,715,1463563511591493637,,0.231620758772,-20.6762332916,129.707000732,0.0101939998567,1.0,0.0,0.0,0.0,1.0,0.0,0.0,0.0,1.0,8.29268264771,-32.865852356,27.2560977936,1.0,0.0,0.0,0.0,1.0,0.0,0.0,0.0,1.0,-2.67192905273,0.258573779297,-8.56166572124,1.0,0.0,0.0,0.0,1.0,0.0,0.0,0.0,1.0
1463563511716405340,716,1463563511601754342,,0.210840433836,-20.9242916107,129.98626709,0.0100039998069,1.0,0.0,0.0,0.0,1.0,0.0,0.0,0.0,1.0,9.20731735229,-29.5731697083,26.8902454376,1.0,0.0,0.0,0.0,1.0,0.0,0.0,0.0,1.0,-2.55221896973,0.0957680664062,-8.26957253418,1.0,0.0,0.0,0.0,1.0,0.0,0.0,0.0,1.0
1463563511716697947,717,1463563511611239052,,0.18444031477,-21.1305160522,130.265380859,0.0100919995457,1.0,0.0,0.0,0.0,1.0,0.0,0.0,0.0,1.0,9.45121955872,-25.8536586761,26.2804889679,1.0,0.0,0.0,0.0,1.0,0.0,0.0,0.0,1.0,-2.48996972656,0.225054956055,-8.26957253418,1.0,0.0,0.0,0.0,1.0,0.0,0.0,0.0,1.0
1463563511716951178,718,1463563511622132314,,0.161464035511,-21.302898407,130.549850464,0.0105659998953,1.0,0.0,0.0,0.0,1.0,0.0,0.0,0.0,1.0,9.51219558716,-22.0731716156,25.6097564697,1.0,0.0,0.0,0.0,1.0,0.0,0.0,0.0,1.0,-2.40377861293,0.191536132812,-8.04930598145,1.0,0.0,0.0,0.0,1.0,0.0,0.0,0.0,1.0
1463563511717203992,719,1463563511631750774,,0.161022290587,-21.4325275421,130.799057007,0.00966200046241,1.0,0.0,0.0,0.0,1.0,0.0,0.0,0.0,1.0,9.75609779358,-19.7560977936,25.1219520569,1.0,0.0,0.0,0.0,1.0,0.0,0.0,0.0,1.0,-2.23618435059,-0.0478840332031,-7.69017573242,1.0,0.0,0.0,0.0,1.0,0.0,0.0,0.0,1.0
1463563511717450401,720,1463563511642270387,,0.160422101617,-21.5219726562,131.060638428,0.0102150002494,1.0,0.0,0.0,0.0,1.0,0.0,0.0,0.0,1.0,9.51219558716,-15.8536596298,25.0,1.0,0.0,0.0,0.0,1.0,0.0,0.0,0.0,1.0,-2.07337849156,-0.076614453125,-7.44117875977,1.0,0.0,0.0,0.0,1.0,0.0,0.0,0.0,1.0
1463563511717676236,721,1463563511653964697,,0.145747289062,-21.5962600708,131.324523926,0.0101110003889,1.0,0.0,0.0,0.0,1.0,0.0,0.0,0.0,1.0,8.65853691101,-14.2073173523,25.3048782349,1.0,0.0,0.0,0.0,1.0,0.0,0.0,0.0,1.0,-2.12126281703,-0.0287304199219,-7.44596716309,1.0,0.0,0.0,0.0,1.0,0.0,0.0,0.0,1.0
1463563511717720611,722,1463563511662636692,,0.129225417972,-21.6421890259,131.582229614,0.0100339995697,1.0,0.0,0.0,0.0,1.0,0.0,0.0,0.0,1.0,8.23170757294,-11.341463089,24.9390239716,1.0,0.0,0.0,0.0,1.0,0.0,0.0,0.0,1.0,-2.20266552734,-0.0430956298828,-7.64229169922,1.0,0.0,0.0,0.0,1.0,0.0,0.0,0.0,1.0
1463563511718028270,723,1463563511672932658,,0.1111144647,-21.6589069366,131.852203369,0.0108589995652,1.0,0.0,0.0,0.0,1.0,0.0,0.0,0.0,1.0,7.50000047684,-9.26829242706,24.3292694092,1.0,0.0,0.0,0.0,1.0,0.0,0.0,0.0,1.0,-2.19787712402,-0.110133276367,-8.11634362793,1.0,0.0,0.0,0.0,1.0,0.0,0.0,0.0,1.0
1463563511718324105,724,1463563511683656595,,0.106312341988,-21.6427326202,132.085021973,0.010106000118,1.0,0.0,0.0,0.0,1.0,0.0,0.0,0.0,1.0,6.82926845551,-6.58536624908,23.1097564697,1.0,0.0,0.0,0.0,1.0,0.0,0.0,0.0,1.0,-2.23139594727,-0.31124621582,-8.49941647808,1.0,0.0,0.0,0.0,1.0,0.0,0.0,0.0,1.0
1463563511718676400,725,1463563511692830261,,0.0924046486616,-21.5867996216,132.29296875,0.00938600022346,1.0,0.0,0.0,0.0,1.0,0.0,0.0,0.0,1.0,6.0365858078,-5.48780488968,22.0731716156,1.0,0.0,0.0,0.0,1.0,0.0,0.0,0.0,1.0,-1.74776721191,-0.220266552734,-8.69574042969,1.0,0.0,0.0,0.0,1.0,0.0,0.0,0.0,1.0
1463563511776682998,726,1463563511702563826,,0.0666775777936,-21.5109329224,132.501174927,0.00998099986464,1.0,0.0,0.0,0.0,1.0,0.0,0.0,0.0,1.0,6.64634132385,-5.54878091812,20.0,1.0,0.0,0.0,0.0,1.0,0.0,0.0,0.0,1.0,-1.47482822266,0.15322890625,-8.75320126953,1.0,0.0,0.0,0.0,1.0,0.0,0.0,0.0,1.0
1463563511776975083,727,1463563511711995775,,0.0769833922386,-21.4332294464,132.683059692,0.0101020000875,1.0,0.0,0.0,0.0,1.0,0.0,0.0,0.0,1.0,8.5365858078,-7.07317113876,17.6219520569,1.0,0.0,0.0,0.0,1.0,0.0,0.0,0.0,1.0,-1.17794714373,0.0478840332031,-8.58081933452,1.0,0.0,0.0,0.0,1.0,0.0,0.0,0.0,1.0
1463563511778433428,728,1463563511722358928,,0.0978150442243,-21.3621959686,132.843734741,0.0100910002366,1.0,0.0,0.0,0.0,1.0,0.0,0.0,0.0,1.0,9.81707286835,-8.29268264771,15.3048791885,1.0,0.0,0.0,0.0,1.0,0.0,0.0,0.0,1.0,-1.03908344744,0.205901342773,-8.3030907729,1.0,0.0,0.0,0.0,1.0,0.0,0.0,0.0,1.0
1463563511778784577,729,1463563511732008379,,0.149390041828,-21.3144931793,132.98638916,0.0101380003616,1.0,0.0,0.0,0.0,1.0,0.0,0.0,0.0,1.0,11.4024391174,-10.3658542633,13.9024391174,1.0,0.0,0.0,0.0,1.0,0.0,0.0,0.0,1.0,-1.04387185076,0.0814028564453,-8.11634362793,1.0,0.0,0.0,0.0,1.0,0.0,0.0,0.0,1.0
1463563511817811131,730,1463563511742490804,,0.214003041387,-21.2741260529,133.114089966,0.0100819999352,1.0,0.0,0.0,0.0,1.0,0.0,0.0,0.0,1.0,12.1951217651,-11.8902444839,12.6219520569,1.0,0.0,0.0,0.0,1.0,0.0,0.0,0.0,1.0,-0.847547387695,0.067037651051,-7.54173522949,1.0,0.0,0.0,0.0,1.0,0.0,0.0,0.0,1.0
1463563511818186863,731,1463563511752968386,,0.272128582001,-21.2429866791,133.247024536,0.0100570004433,1.0,0.0,0.0,0.0,1.0,0.0,0.0,0.0,1.0,12.8048782349,-12.6829271317,12.7439022064,1.0,0.0,0.0,0.0,1.0,0.0,0.0,0.0,1.0,-0.861912597656,0.210689746094,-7.59919606934,1.0,0.0,0.0,0.0,1.0,0.0,0.0,0.0,1.0
1463563511824584309,732,1463563511762747264,,0.350949317217,-21.2389144897,133.375274658,0.0101309996098,1.0,0.0,0.0,0.0,1.0,0.0,0.0,0.0,1.0,12.5609760284,-13.9024391174,13.048781395,1.0,0.0,0.0,0.0,1.0,0.0,0.0,0.0,1.0,-0.986411083984,-0.0861912597656,-7.02937607422,1.0,0.0,0.0,0.0,1.0,0.0,0.0,0.0,1.0
1463563511824646601,733,1463563511772720675,,0.410061895847,-21.2345237732,133.507324219,0.0101020000875,1.0,0.0,0.0,0.0,1.0,0.0,0.0,0.0,1.0,10.8536586761,-13.3536586761,13.4146347046,1.0,0.0,0.0,0.0,1.0,0.0,0.0,0.0,1.0,-0.995987890625,-0.0814028564453,-6.66545742187,1.0,0.0,0.0,0.0,1.0,0.0,0.0,0.0,1.0
1463563511826313749,734,1463563511783494978,,0.418008208275,-21.2434883118,133.660751343,0.0100889997557,1.0,0.0,0.0,0.0,1.0,0.0,0.0,0.0,1.0,9.93902492523,-13.1097564697,14.0853662491,1.0,0.0,0.0,0.0,1.0,0.0,0.0,0.0,1.0,-1.11569797363,0.325611425781,-6.28238515625,1.0,0.0,0.0,0.0,1.0,0.0,0.0,0.0,1.0
1463563511826648231,735,1463563511793330940,,0.431693166494,-21.2726688385,133.80821228,0.0101039996371,1.0,0.0,0.0,0.0,1.0,0.0,0.0,0.0,1.0,10.4268293381,-14.8170728683,13.4756097794,1.0,0.0,0.0,0.0,1.0,0.0,0.0,0.0,1.0,-1.24498486328,0.368707055664,-6.78516750488,1.0,0.0,0.0,0.0,1.0,0.0,0.0,0.0,1.0
1463563511826926671,736,1463563511803332737,,0.465281784534,-21.2922725677,133.944381714,0.0101020000875,1.0,0.0,0.0,0.0,1.0,0.0,0.0,0.0,1.0,11.2195119858,-14.2073173523,12.7439022064,1.0,0.0,0.0,0.0,1.0,0.0,0.0,0.0,1.0,-1.24498486328,0.272938989258,-7.0006456543,1.0,0.0,0.0,0.0,1.0,0.0,0.0,0.0,1.0
1463563511827183756,737,1463563511812768331,,0.513555467129,-21.3003845215,134.061477661,0.0102220000699,1.0,0.0,0.0,0.0,1.0,0.0,0.0,0.0,1.0,11.4634151459,-13.7804880142,11.0365858078,1.0,0.0,0.0,0.0,1.0,0.0,0.0,0.0,1.0,-1.25456166992,0.229843359375,-7.6135612793,1.0,0.0,0.0,0.0,1.0,0.0,0.0,0.0,1.0
1463563511897674878,738,1463563511823938262,,0.58200520277,-21.2983360291,134.144714355,0.00998700037599,1.0,0.0,0.0,0.0,1.0,0.0,0.0,0.0,1.0,11.6463422775,-13.9024391174,8.47560977936,1.0,0.0,0.0,0.0,1.0,0.0,0.0,0.0,1.0,-1.12527478027,0.105344873047,-7.78594379883,1.0,0.0,0.0,0.0,1.0,0.0,0.0,0.0,1.0
1463563511897979672,739,1463563511833174271,,0.66301715374,-21.2803077698,134.209243774,0.010106000118,1.0,0.0,0.0,0.0,1.0,0.0,0.0,0.0,1.0,11.5853662491,-14.2073173523,6.89024400711,1.0,0.0,0.0,0.0,1.0,0.0,0.0,0.0,1.0,-0.885854614258,0.0191536132812,-8.06367119141,1.0,0.0,0.0,0.0,1.0,0.0,0.0,0.0,1.0
1463563511898301394,740,1463563511844084721,,0.775874376297,-21.2434692383,134.229980469,0.0102920001373,1.0,0.0,0.0,0.0,1.0,0.0,0.0,0.0,1.0,9.87804889679,-16.2804889679,4.08536577225,1.0,0.0,0.0,0.0,1.0,0.0,0.0,0.0,1.0,-0.316034619141,-0.478840332031,-8.33182119282,1.0,0.0,0.0,0.0,1.0,0.0,0.0,0.0,1.0
1463563511901367772,741,1463563511854065424,,0.871946871281,-21.2229232788,134.227874756,0.00999899953604,1.0,0.0,0.0,0.0,1.0,0.0,0.0,0.0,1.0,7.43902492523,-18.7195110321,2.19512200356,1.0,0.0,0.0,0.0,1.0,0.0,0.0,0.0,1.0,-0.181959326172,-0.565031591797,-8.74362446289,1.0,0.0,0.0,0.0,1.0,0.0,0.0,0.0,1.0
1463563511901696837,742,1463563511863549456,,0.946767807007,-21.2269802094,134.209197998,0.00996599998325,1.0,0.0,0.0,0.0,1.0,0.0,0.0,0.0,1.0,4.39024400711,-20.8536586761,0.853658556938,1.0,0.0,0.0,0.0,1.0,0.0,0.0,0.0,1.0,-0.239420166016,-0.646434448242,-8.86812294922,1.0,0.0,0.0,0.0,1.0,0.0,0.0,0.0,1.0
1463563511902086684,743,1463563511873502450,,0.995720565319,-21.2588500977,134.177932739,0.0102869998664,1.0,0.0,0.0,0.0,1.0,0.0,0.0,0.0,1.0,1.09756100178,-22.5,-0.12195122242,1.0,0.0,0.0,0.0,1.0,0.0,0.0,0.0,1.0,-0.426167895508,-0.694318481445,-9.06923588867,1.0,0.0,0.0,0.0,1.0,0.0,0.0,0.0,1.0
1463563511902365280,744,1463563511883727166,,1.01713180542,-21.3051872253,134.13104248,0.00994000025094,1.0,0.0,0.0,0.0,1.0,0.0,0.0,0.0,1.0,-2.13414645195,-22.4390239716,-1.64634156227,1.0,0.0,0.0,0.0,1.0,0.0,0.0,0.0,1.0,-0.703895288086,-0.699106884766,-8.97825622559,1.0,0.0,0.0,0.0,1.0,0.0,0.0,0.0,1.0
1463563511902650386,745,1463563511893682972,,1.01614320278,-21.3545074463,134.071487427,0.0100919995457,1.0,0.0,0.0,0.0,1.0,0.0,0.0,0.0,1.0,-5.42682933807,-22.2560977936,-2.5,1.0,0.0,0.0,0.0,1.0,0.0,0.0,0.0,1.0,-0.794874951172,-0.823605371094,-9.16021555176,1.0,0.0,0.0,0.0,1.0,0.0,0.0,0.0,1.0
1463563511959640882,746,1463563511904161387,,0.981614589691,-21.3770771027,133.999511719,0.0101330000907,1.0,0.0,0.0,0.0,1.0,0.0,0.0,0.0,1.0,-8.04878044128,-20.7926826477,-4.08536577225,1.0,0.0,0.0,0.0,1.0,0.0,0.0,0.0,1.0,-0.612915625,-0.632069238281,-9.27513723145,1.0,0.0,0.0,0.0,1.0,0.0,0.0,0.0,1.0
1463563511959981458,747,1463563511914075215,,0.940815865993,-21.3843955994,133.90057373,0.0104980003089,1.0,0.0,0.0,0.0,1.0,0.0,0.0,0.0,1.0,-9.87804889679,-21.158536911,-6.0365858078,1.0,0.0,0.0,0.0,1.0,0.0,0.0,0.0,1.0,-0.292092584273,-0.723048901367,-9.37569311665,1.0,0.0,0.0,0.0,1.0,0.0,0.0,0.0,1.0
1463563511960308752,748,1463563511923981177,,0.885996520519,-21.3965244293,133.779647827,0.00974799972028,1.0,0.0,0.0,0.0,1.0,0.0,0.0,0.0,1.0,-11.341463089,-22.3780498505,-9.32926845551,1.0,0.0,0.0,0.0,1.0,0.0,0.0,0.0,1.0,-0.191536132812,-0.488417138672,-9.68693991699,1.0,0.0,0.0,0.0,1.0,0.0,0.0,0.0,1.0
1463563511960632557,749,1463563511934338341,,0.825530052185,-21.4335193634,133.622497559,0.010048000142,1.0,0.0,0.0,0.0,1.0,0.0,0.0,0.0,1.0,-11.0975618362,-23.1707324982,-13.048781395,1.0,0.0,0.0,0.0,1.0,0.0,0.0,0.0,1.0,-0.541089611728,-0.15322890625,-10.3190091553,1.0,0.0,0.0,0.0,1.0,0.0,0.0,0.0,1.0
1463563512052187073,750,1463563511943833207,,0.798575043678,-21.46626091,133.417358398,0.0100889997557,1.0,0.0,0.0,0.0,1.0,0.0,0.0,0.0,1.0,-10.6707315445,-22.0121955872,-16.9512195587,1.0,0.0,0.0,0.0,1.0,0.0,0.0,0.0,1.0,-0.713472094727,-0.387860668945,-10.5967365479,1.0,0.0,0.0,0.0,1.0,0.0,0.0,0.0,1.0
1463563512052454002,751,1463563511954906627,,0.791146814823,-21.4798126221,133.153793335,0.0105309998617,1.0,0.0,0.0,0.0,1.0,0.0,0.0,0.0,1.0,-10.8536586761,-20.3658542633,-21.158536911,1.0,0.0,0.0,0.0,1.0,0.0,0.0,0.0,1.0,-0.694318481445,-0.488417138672,-11.0372696533,1.0,0.0,0.0,0.0,1.0,0.0,0.0,0.0,1.0
1463563512071167481,752,1463563511964691286,,0.790670156479,-21.4704151154,132.879180908,0.00968299992383,1.0,0.0,0.0,0.0,1.0,0.0,0.0,0.0,1.0,-11.7073173523,-19.2073173523,-24.1463432312,1.0,0.0,0.0,0.0,1.0,0.0,0.0,0.0,1.0,-0.497993945312,-0.574608398438,-11.5735708252,1.0,0.0,0.0,0.0,1.0,0.0,0.0,0.0,1.0
1463563512071378055,753,1463563511974472717,,0.823600113392,-21.4487438202,132.554214478,0.0101020000875,1.0,0.0,0.0,0.0,1.0,0.0,0.0,0.0,1.0,-11.0365858078,-17.9268302917,-27.1951236725,1.0,0.0,0.0,0.0,1.0,0.0,0.0,0.0,1.0,-0.541089611728,-0.881066210937,-11.9614314941,1.0,0.0,0.0,0.0,1.0,0.0,0.0,0.0,1.0
1463563512071698318,754,1463563511984444201,,0.875059247017,-21.4059143066,132.185165405,0.0101229995489,1.0,0.0,0.0,0.0,1.0,0.0,0.0,0.0,1.0,-13.7804880142,-16.0975608826,-30.0000019073,1.0,0.0,0.0,0.0,1.0,0.0,0.0,0.0,1.0,-0.483628735352,-1.62805712891,-12.2918313232,1.0,0.0,0.0,0.0,1.0,0.0,0.0,0.0,1.0
1463563512071970456,755,1463563511994670270,,0.875220537186,-21.3497543335,131.779037476,0.0100779999048,1.0,0.0,0.0,0.0,1.0,0.0,0.0,0.0,1.0,-19.8780498505,-14.4512205124,-33.7195129395,1.0,0.0,0.0,0.0,1.0,0.0,0.0,0.0,1.0,-0.588973571866,-1.62326872559,-12.8137672852,1.0,0.0,0.0,0.0,1.0,0.0,0.0,0.0,1.0
1463563512072238479,756,1463563512005780148,,0.847333192825,-21.2500915527,131.316299438,0.0101290000603,1.0,0.0,0.0,0.0,1.0,0.0,0.0,0.0,1.0,-24.6951236725,-12.3780488968,-38.7195129395,1.0,0.0,0.0,0.0,1.0,0.0,0.0,0.0,1.0,-0.067037651051,-1.77170922852,-13.723563916,1.0,0.0,0.0,0.0,1.0,0.0,0.0,0.0,1.0
1463563512072503533,757,1463563512015358921,,0.895794570446,-21.011341095,130.766708374,0.01070600003,1.0,0.0,0.0,0.0,1.0,0.0,0.0,0.0,1.0,-24.0243911743,-13.1707324982,-42.1951255798,1.0,0.0,0.0,0.0,1.0,0.0,0.0,0.0,1.0,3.66791694336,-2.96402165527,-12.9047469482,1.0,0.0,0.0,0.0,1.0,0.0,0.0,0.0,1.0
1463563512072782598,758,1463563512025501500,,0.95546156168,-21.0754680634,130.24508667,0.00952500011772,1.0,0.0,0.0,0.0,1.0,0.0,0.0,0.0,1.0,-22.6219520569,-24.2073173523,-45.5487823486,1.0,0.0,0.0,0.0,1.0,0.0,0.0,0.0,1.0,-1.24019645996,-2.90656081543,-14.0683289551,1.0,0.0,0.0,0.0,1.0,0.0,0.0,0.0,1.0
1463563512073045308,759,1463563512035142929,,0.942625820637,-21.119726181,129.711807251,0.0100220004097,1.0,0.0,0.0,0.0,1.0,0.0,0.0,0.0,1.0,-22.8658542633,-20.3048782349,-46.7682952881,1.0,0.0,0.0,0.0,1.0,0.0,0.0,0.0,1.0,-2.05901342773,-1.2497732666,-16.6444887724,1.0,0.0,0.0,0.0,1.0,0.0,0.0,0.0,1.0
1463563512073300154,760,1463563512045190508,,0.810976862907,-20.5147666931,129.273986816,0.0101969996467,1.0,0.0,0.0,0.0,1.0,0.0,0.0,0.0,1.0,-29.2682933807,32.9878044128,-38.7195129395,1.0,0.0,0.0,0.0,1.0,0.0,0.0,0.0,1.0,1.34075292969,-0.837970581055,-17.3292316162,1.0,0.0,0.0,0.0,1.0,0.0,0.0,0.0,1.0
1463563512073576406,761,1463563512055477775,,0.819578051567,-20.2899093628,128.719802856,0.0100279999897,1.0,0.0,0.0,0.0,1.0,0.0,0.0,0.0,1.0,-30.3048782349,3.41463422775,-45.7926826477,1.0,0.0,0.0,0.0,1.0,0.0,0.0,0.0,1.0,-0.651222851562,-3.80678063965,-14.7530706299,1.0,0.0,0.0,0.0,1.0,0.0,0.0,0.0,1.0
1463563512133948022,762,1463563512065411446,,0.736971795559,-19.8722724915,128.135345459,0.0101610003039,1.0,0.0,0.0,0.0,1.0,0.0,0.0,0.0,1.0,-31.341463089,13.1707324982,-51.3414649963,1.0,0.0,0.0,0.0,1.0,0.0,0.0,0.0,1.0,1.47961662598,-1.10133276367,-12.0141039307,1.0,0.0,0.0,0.0,1.0,0.0,0.0,0.0,1.0
1463563512134230629,763,1463563512075738454,,0.620400428772,-19.5327110291,127.621185303,0.0100400000811,1.0,0.0,0.0,0.0,1.0,0.0,0.0,0.0,1.0,-32.5,11.5243911743,-45.4878082275,1.0,0.0,0.0,0.0,1.0,0.0,0.0,0.0,1.0,0.354341845703,-1.40300217285,-15.1792385254,1.0,0.0,0.0,0.0,1.0,0.0,0.0,0.0,1.0
1463563512134500006,764,1463563512085805512,,0.45709130168,-19.0778369904,127.141517639,0.0100849997252,1.0,0.0,0.0,0.0,1.0,0.0,0.0,0.0,1.0,-27.7439041138,21.5243911743,-45.0609779358,1.0,0.0,0.0,0.0,1.0,0.0,0.0,0.0,1.0,0.9193734375,0.933738647461,-16.4864726318,1.0,0.0,0.0,0.0,1.0,0.0,0.0,0.0,1.0
1463563512134776727,765,1463563512096237624,,0.366744071245,-18.7296333313,126.673652649,0.0101380003616,1.0,0.0,0.0,0.0,1.0,0.0,0.0,0.0,1.0,-19.5121955872,22.9268302917,-43.8414649963,1.0,0.0,0.0,0.0,1.0,0.0,0.0,0.0,1.0,-2.3415290775,0.92416184082,-14.604630127,1.0,0.0,0.0,0.0,1.0,0.0,0.0,0.0,1.0
1463563512161521571,766,1463563512105933950,,0.29190531373,-18.2022304535,126.236099243,0.0100689996034,1.0,0.0,0.0,0.0,1.0,0.0,0.0,0.0,1.0,-13.3536586761,33.9024391174,-42.6219520569,1.0,0.0,0.0,0.0,1.0,0.0,0.0,0.0,1.0,-0.3064578125,1.94888015137,-14.9829139893,1.0,0.0,0.0,0.0,1.0,0.0,0.0,0.0,1.0
1463563512161778552,767,1463563512116405906,,0.289281874895,-17.6946716309,125.819992065,0.0102899996564,1.0,0.0,0.0,0.0,1.0,0.0,0.0,0.0,1.0,-5.42682933807,37.9268302917,-39.634147644,1.0,0.0,0.0,0.0,1.0,0.0,0.0,0.0,1.0,-2.57137258301,2.20266552734,-18.1432613497,1.0,0.0,0.0,0.0,1.0,0.0,0.0,0.0,1.0
1463563512162023502,768,1463563512125654572,,0.290495961905,-17.0736255646,125.465934753,0.00990800000727,1.0,0.0,0.0,0.0,1.0,0.0,0.0,0.0,1.0,0.609756112099,46.5243911743,-36.5243911743,1.0,0.0,0.0,0.0,1.0,0.0,0.0,0.0,1.0,-0.727837304687,3.40455476074,-17.5016141357,1.0,0.0,0.0,0.0,1.0,0.0,0.0,0.0,1.0
1463563512162282514,769,1463563512136319447,,0.434933632612,-16.3153018951,125.066673279,0.0101169999689,1.0,0.0,0.0,0.0,1.0,0.0,0.0,0.0,1.0,4.20731735229,61.5853691101,-37.1951255798,1.0,0.0,0.0,0.0,1.0,0.0,0.0,0.0,1.0,-1.93451494141,0.162805712891,-22.1272117432,1.0,0.0,0.0,0.0,1.0,0.0,0.0,0.0,1.0
1463563512186446036,770,1463563512146461818,,0.577291071415,-15.5365362167,124.704826355,0.0100870002061,1.0,0.0,0.0,0.0,1.0,0.0,0.0,0.0,1.0,3.04878044128,65.4268341064,-33.3536605835,1.0,0.0,0.0,0.0,1.0,0.0,0.0,0.0,1.0,-2.16435844691,-0.857124194336,-20.8199776367,1.0,0.0,0.0,0.0,1.0,0.0,0.0,0.0,1.0
1463563512187625055,771,1463563512156151737,,0.743501782417,-14.6487817764,124.323104858,0.0100910002366,1.0,0.0,0.0,0.0,1.0,0.0,0.0,0.0,1.0,-1.03658533096,75.365852356,-33.9024391174,1.0,0.0,0.0,0.0,1.0,0.0,0.0,0.0,1.0,-1.37906015625,-3.03584770508,-18.5406976562,1.0,0.0,0.0,0.0,1.0,0.0,0.0,0.0,1.0
1463563512187953391,772,1463563512166372338,,0.775433659554,-13.6717481613,123.980308533,0.0101140001789,1.0,0.0,0.0,0.0,1.0,0.0,0.0,0.0,1.0,-8.96341514587,83.8414611816,-31.6463413239,1.0,0.0,0.0,0.0,1.0,0.0,0.0,0.0,1.0,-1.11090957031,-1.80522805176,-19.1967089111,1.0,0.0,0.0,0.0,1.0,0.0,0.0,0.0,1.0
1463563512188230737,773,1463563512176658772,,0.720292031765,-12.7373371124,123.655509949,0.010108999908,1.0,0.0,0.0,0.0,1.0,0.0,0.0,0.0,1.0,-16.341463089,87.5609741211,-30.2439022064,1.0,0.0,0.0,0.0,1.0,0.0,0.0,0.0,1.0,-4.06056601562,-1.99197578125,-22.1320001465,1.0,0.0,0.0,0.0,1.0,0.0,0.0,0.0,1.0
1463563512240286976,774,1463563512186786299,,0.549924552441,-11.6189079285,123.367698669,0.0102040003985,1.0,0.0,0.0,0.0,1.0,0.0,0.0,0.0,1.0,-24.4512195587,92.8048782349,-26.8902454376,1.0,0.0,0.0,0.0,1.0,0.0,0.0,0.0,1.0,0.785298144531,-0.852335791016,-15.308525415,1.0,0.0,0.0,0.0,1.0,0.0,0.0,0.0,1.0
1463563512240684011,775,1463563512196669918,,0.326251685619,-10.609834671,123.105949402,0.00998399965465,1.0,0.0,0.0,0.0,1.0,0.0,0.0,0.0,1.0,-32.1951217651,90.4268264771,-24.1463432312,1.0,0.0,0.0,0.0,1.0,0.0,0.0,0.0,1.0,-0.603338854892,-1.67115275879,-15.7921541504,1.0,0.0,0.0,0.0,1.0,0.0,0.0,0.0,1.0
1463563512241154327,776,1463563512206513276,,-0.022479724139,-9.38769245148,122.868591309,0.010098000057,1.0,0.0,0.0,0.0,1.0,0.0,0.0,0.0,1.0,-29.6341457367,97.1951217651,-23.7804889679,1.0,0.0,0.0,0.0,1.0,0.0,0.0,0.0,1.0,3.21301862793,2.08295529821,-13.7762363525,1.0,0.0,0.0,0.0,1.0,0.0,0.0,0.0,1.0
1463563512241715894,777,1463563512217518309,,-0.48399028182,-7.66981649399,122.606895447,0.0101849995553,1.0,0.0,0.0,0.0,1.0,0.0,0.0,0.0,1.0,-60.4268302917,215.853668213,-21.5243911743,1.0,0.0,0.0,0.0,1.0,0.0,0.0,0.0,1.0,-59.0984737793,-13.6469494629,-21.691467041,1.0,0.0,0.0,0.0,1.0,0.0,0.0,0.0,1.0
1463563512307393072,778,1463563512226945466,,-1.84105861187,-4.382584095,122.843238831,0.0100640002638,1.0,0.0,0.0,0.0,1.0,0.0,0.0,0.0,1.0,-93.841468811,292.865875244,25.4878044128,1.0,0.0,0.0,0.0,1.0,0.0,0.0,0.0,1.0,22.4767651855,30.4159378906,-23.6930196289,1.0,0.0,0.0,0.0,1.0,0.0,0.0,0.0,1.0
1463563512307752711,779,1463563512237157317,,-2.41713285446,-3.11623692513,123.162406921,0.0100520001724,1.0,0.0,0.0,0.0,1.0,0.0,0.0,0.0,1.0,-80.3048858643,78.4146347046,37.8048782349,1.0,0.0,0.0,0.0,1.0,0.0,0.0,0.0,1.0,10.2519715088,-5.88494768066,-6.39730683594,1.0,0.0,0.0,0.0,1.0,0.0,0.0,0.0,1.0
1463563512308051984,780,1463563512247019008,,-3.12866997719,-0.52793264389,123.704544067,0.0101140001789,1.0,0.0,0.0,0.0,1.0,0.0,0.0,0.0,1.0,-39.0853652954,237.012191772,64.5731735229,1.0,0.0,0.0,0.0,1.0,0.0,0.0,0.0,1.0,6.77559069824,16.759410452,-24.6842191162,1.0,0.0,0.0,0.0,1.0,0.0,0.0,0.0,1.0
1463563512309612100,781,1463563512257403620,,-3.52478194237,0.782538712025,123.74987793,0.0101110003889,1.0,0.0,0.0,0.0,1.0,0.0,0.0,0.0,1.0,-22.9878044128,74.2073135376,10.0,1.0,0.0,0.0,0.0,1.0,0.0,0.0,0.0,1.0,10.7547538574,3.21780703125,-1.58496149902,1.0,0.0,0.0,0.0,1.0,0.0,0.0,0.0,1.0
1463563512311146122,782,1463563512267738753,,-3.90982937813,3.1584239006,123.787162781,0.0100969998166,1.0,0.0,0.0,0.0,1.0,0.0,0.0,0.0,1.0,7.07317113876,220.731704712,19.9390239716,1.0,0.0,0.0,0.0,1.0,0.0,0.0,0.0,1.0,3.78283862305,13.3309148437,-8.35576320942,1.0,0.0,0.0,0.0,1.0,0.0,0.0,0.0,1.0
1463563512311747690,783,1463563512277654143,,-3.58363103867,4.0129442215,123.892868042,0.0103000001982,1.0,0.0,0.0,0.0,1.0,0.0,0.0,0.0,1.0,25.0609760284,86.8292694092,16.7682933807,1.0,0.0,0.0,0.0,1.0,0.0,0.0,0.0,1.0,-1.75734401855,-1.73340200195,-36.2913087646,1.0,0.0,0.0,0.0,1.0,0.0,0.0,0.0,1.0
1463563512312101442,784,1463563512287721825,,-3.12210655212,7.31739664078,123.938583374,0.0100079998374,1.0,0.0,0.0,0.0,1.0,0.0,0.0,0.0,1.0,30.0000019073,287.743896484,21.4024391174,1.0,0.0,0.0,0.0,1.0,0.0,0.0,0.0,1.0,31.7231719971,-10.4099888184,-24.7895639893,1.0,0.0,0.0,0.0,1.0,0.0,0.0,0.0,1.0
1463563512312384257,785,1463563512297835550,,-3.20326447487,7.6443734169,123.768791199,0.00999299995601,1.0,0.0,0.0,0.0,1.0,0.0,0.0,0.0,1.0,20.0,-6.52439069748,-12.6829271317,1.0,0.0,0.0,0.0,1.0,0.0,0.0,0.0,1.0,10.2280294922,6.47392128906,-6.2009822998,1.0,0.0,0.0,0.0,1.0,0.0,0.0,0.0,1.0
1463563512374474429,786,1463563512307909535,,-2.19667267799,10.6380319595,123.988998413,0.0102789998055,1.0,0.0,0.0,0.0,1.0,0.0,0.0,0.0,1.0,44.6341438293,297.378051758,29.6951236725,1.0,0.0,0.0,0.0,1.0,0.0,0.0,0.0,1.0,-1.2737152832,-13.1633207275,-7.20654699707,1.0,0.0,0.0,0.0,1.0,0.0,0.0,0.0,1.0
1463563512374763650,787,1463563512317598308,,-1.90833544731,11.326423645,123.620681763,0.0099139995873,1.0,0.0,0.0,0.0,1.0,0.0,0.0,0.0,1.0,20.6097564697,23.0487823486,-37.5,1.0,0.0,0.0,0.0,1.0,0.0,0.0,0.0,1.0,31.4215025879,-9.67257470703,-11.8943938477,1.0,0.0,0.0,0.0,1.0,0.0,0.0,0.0,1.0
1463563512375036152,788,1463563512328174380,,-1.56808722019,7.66234922409,123.43069458,0.0100999996066,1.0,0.0,0.0,0.0,1.0,0.0,0.0,0.0,1.0,44.0243911743,-316.707305908,-25.6707324982,1.0,0.0,0.0,0.0,1.0,0.0,0.0,0.0,1.0,-26.5612732178,5.34385810547,-26.1303169189,1.0,0.0,0.0,0.0,1.0,0.0,0.0,0.0,1.0
1463563512375311519,789,1463563512337855758,,-1.56274807453,11.7681331635,123.486480713,0.0101020000875,1.0,0.0,0.0,0.0,1.0,0.0,0.0,0.0,1.0,-28.0487804413,390.914642334,13.658536911,1.0,0.0,0.0,0.0,1.0,0.0,0.0,0.0,1.0,3.30399829102,-4.32871689382,-7.20175859375,1.0,0.0,0.0,0.0,1.0,0.0,0.0,0.0,1.0
1463563512387563697,790,1463563512351108830,,-2.47877264023,9.53654003143,123.515571594,0.0100999996066,1.0,0.0,0.0,0.0,1.0,0.0,0.0,0.0,1.0,-69.8780517578,-225.487808228,0.243902444839,1.0,0.0,0.0,0.0,1.0,0.0,0.0,0.0,1.0,6.30632717285,10.4004120117,-23.0226431641,1.0,0.0,0.0,0.0,1.0,0.0,0.0,0.0,1.0
1463563512387824481,791,1463563512358054249,,-2.79719519615,9.56630325317,123.524147034,0.0100969998166,1.0,0.0,0.0,0.0,1.0,0.0,0.0,0.0,1.0,-31.6463413239,51.4634170532,4.14634132385,1.0,0.0,0.0,0.0,1.0,0.0,0.0,0.0,1.0,-25.637111377,-0.641646044922,8.78672009277,1.0,0.0,0.0,0.0,1.0,0.0,0.0,0.0,1.0
1463563512388112764,792,1463563512368424642,,-3.44368767738,8.91867923737,123.647247314,0.0101030003279,1.0,0.0,0.0,0.0,1.0,0.0,0.0,0.0,1.0,-58.5365867615,-72.5,10.3658542633,1.0,0.0,0.0,0.0,1.0,0.0,0.0,0.0,1.0,-1.29286889648,1.85790048828,25.0050421387,1.0,0.0,0.0,0.0,1.0,0.0,0.0,0.0,1.0
1463563512388389798,793,1463563512378129353,,-4.30926895142,9.59952926636,123.435096741,0.0100840004161,1.0,0.0,0.0,0.0,1.0,0.0,0.0,0.0,1.0,-54.207321167,51.8902435303,-11.4634151459,1.0,0.0,0.0,0.0,1.0,0.0,0.0,0.0,1.0,0.885854614258,2.7820623291,5.5641246582,1.0,0.0,0.0,0.0,1.0,0.0,0.0,0.0,1.0
1463563512421532035,794,1463563512388818082,,-4.55694437027,8.40090751648,123.548278809,0.0101319998503,1.0,0.0,0.0,0.0,1.0,0.0,0.0,0.0,1.0,-40.7926826477,-82.8658599854,3.04878044128,1.0,0.0,0.0,0.0,1.0,0.0,0.0,0.0,1.0,-9.8305920166,-3.9121255127,-15.3468326416,1.0,0.0,0.0,0.0,1.0,0.0,0.0,0.0,1.0
1463563512421802089,795,1463563512399196028,,-4.940574646,9.72592163086,123.564109802,0.0102120004594,1.0,0.0,0.0,0.0,1.0,0.0,0.0,0.0,1.0,-56.1585388184,106.280487061,8.90243911743,1.0,0.0,0.0,0.0,1.0,0.0,0.0,0.0,1.0,2.5234885498,-1.34554133301,-4.02225878906,1.0,0.0,0.0,0.0,1.0,0.0,0.0,0.0,1.0
1463563512422217145,796,1463563512409290013,,-5.28641986847,9.41450119019,123.729118347,0.010108999908,1.0,0.0,0.0,0.0,1.0,0.0,0.0,0.0,1.0,-46.6463432312,-62.8048782349,9.93902492523,1.0,0.0,0.0,0.0,1.0,0.0,0.0,0.0,1.0,15.2606413818,-2.78685073242,-17.2526171631,1.0,0.0,0.0,0.0,1.0,0.0,0.0,0.0,1.0
1463563512422591575,797,1463563512418623627,,-5.90328359604,9.18492031097,124.022583008,0.00997800007463,1.0,0.0,0.0,0.0,1.0,0.0,0.0,0.0,1.0,-75.6097564697,5.0,28.9634151459,1.0,0.0,0.0,0.0,1.0,0.0,0.0,0.0,1.0,-9.45230756977,-1.96803376465,-20.1926968018,1.0,0.0,0.0,0.0,1.0,0.0,0.0,0.0,1.0
1463563512458025497,798,1463563512429129751,,-6.50472164154,10.0455884933,123.9974823,0.0101439999416,1.0,0.0,0.0,0.0,1.0,0.0,0.0,0.0,1.0,-71.0365905762,85.7317123413,6.09756088257,1.0,0.0,0.0,0.0,1.0,0.0,0.0,0.0,1.0,1.96324536133,-2.04943662109,-16.0746711153,1.0,0.0,0.0,0.0,1.0,0.0,0.0,0.0,1.0
1463563512458322009,799,1463563512439662854,,-7.6471362114,9.22111797333,124.131111145,0.0101640000939,1.0,0.0,0.0,0.0,1.0,0.0,0.0,0.0,1.0,-65.365852356,-100.0,10.6707315445,1.0,0.0,0.0,0.0,1.0,0.0,0.0,0.0,1.0,0.344765039063,0.909796630859,-0.244208569336,1.0,0.0,0.0,0.0,1.0,0.0,0.0,0.0,1.0
1463563512458725554,800,1463563512449161730,,-8.49355697632,9.22690391541,124.275535583,0.0101250000298,1.0,0.0,0.0,0.0,1.0,0.0,0.0,0.0,1.0,-86.1585388184,41.2195129395,20.8536586761,1.0,0.0,0.0,0.0,1.0,0.0,0.0,0.0,1.0,-16.9844665771,2.16435844691,-18.7274453857,1.0,0.0,0.0,0.0,1.0,0.0,0.0,0.0,1.0
1463563512479217485,801,1463563512459608061,,-9.48450279236,9.80992507935,124.263000488,0.00997699983418,1.0,0.0,0.0,0.0,1.0,0.0,0.0,0.0,1.0,-84.0853652954,2.25609779358,3.29268312454,1.0,0.0,0.0,0.0,1.0,0.0,0.0,0.0,1.0,9.77313117676,2.44687409668,1.49877023926,1.0,0.0,0.0,0.0,1.0,0.0,0.0,0.0,1.0
1463563512480969061,802,1463563512469168813,,-10.3438816071,9.40943145752,124.342216492,0.0101969996467,1.0,0.0,0.0,0.0,1.0,0.0,0.0,0.0,1.0,-93.9634170532,-20.1219520569,3.7804877758,1.0,0.0,0.0,0.0,1.0,0.0,0.0,0.0,1.0,-4.683058155,0.0574608398438,-21.7297742676,1.0,0.0,0.0,0.0,1.0,0.0,0.0,0.0,1.0
1463563512482265634,803,1463563512479593946,,-11.1674194336,10.3377723694,123.9429245,0.010006999597,1.0,0.0,0.0,0.0,1.0,0.0,0.0,0.0,1.0,-81.1585388184,152.256103516,-10.8536586761,1.0,0.0,0.0,0.0,1.0,0.0,0.0,0.0,1.0,-16.4816842285,-0.905008227539,-5.80833322754,1.0,0.0,0.0,0.0,1.0,0.0,0.0,0.0,1.0
1463563512509654962,804,1463563512489572149,,-11.9597549438,11.4494714737,123.75717926,0.010098000057,1.0,0.0,0.0,0.0,1.0,0.0,0.0,0.0,1.0,-66.8292694092,57.5000038147,-3.35365867615,1.0,0.0,0.0,0.0,1.0,0.0,0.0,0.0,1.0,31.991322583,5.14753356934,-2.96402165527,1.0,0.0,0.0,0.0,1.0,0.0,0.0,0.0,1.0
1463563512510124913,805,1463563512500109575,,-12.8961725235,8.9446516037,124.272987366,0.0100840004161,1.0,0.0,0.0,0.0,1.0,0.0,0.0,0.0,1.0,-95.7317123413,-307.500030518,-13.841463089,1.0,0.0,0.0,0.0,1.0,0.0,0.0,0.0,1.0,14.9110879395,1.838746875,-1.32638771973,1.0,0.0,0.0,0.0,1.0,0.0,0.0,0.0,1.0
1463563512511272891,806,1463563512509620170,,-14.0226459503,7.99361944199,124.429756165,0.0101169999689,1.0,0.0,0.0,0.0,1.0,0.0,0.0,0.0,1.0,-105.121955872,-42.1951255798,7.68292665482,1.0,0.0,0.0,0.0,1.0,0.0,0.0,0.0,1.0,-49.899951001,7.55610043945,-0.775721337891,1.0,0.0,0.0,0.0,1.0,0.0,0.0,0.0,1.0
1463563512531141483,807,1463563512528499119,,-15.2217750549,10.5687093735,123.569664001,0.0101770004258,1.0,0.0,0.0,0.0,1.0,0.0,0.0,0.0,1.0,-105.487808228,212.317077637,-28.4146347046,1.0,0.0,0.0,0.0,1.0,0.0,0.0,0.0,1.0,27.4902234619,-4.0318355957,12.2008516602,1.0,0.0,0.0,0.0,1.0,0.0,0.0,0.0,1.0
1463563512535972094,808,1463563512533459522,,-15.9511966705,7.75637197495,123.989730835,0.0126889999956,1.0,0.0,0.0,0.0,1.0,0.0,0.0,0.0,1.0,-62.682926178,-211.341461182,-24.2073173523,1.0,0.0,0.0,0.0,1.0,0.0,0.0,0.0,1.0,-0.818816967773,5.22414802246,-19.8000477295,1.0,0.0,0.0,0.0,1.0,0.0,0.0,0.0,1.0
1463563512546524416,809,1463563512541444324,,-16.6928005219,8.29358863831,123.456848145,0.00871500000358,1.0,0.0,0.0,0.0,1.0,0.0,0.0,0.0,1.0,-76.8902435303,129.329269409,-23.7804889679,1.0,0.0,0.0,0.0,1.0,0.0,0.0,0.0,1.0,-28.9363212646,0.067037651051,-1.8148048584,1.0,0.0,0.0,0.0,1.0,0.0,0.0,0.0,1.0
1463563512569167561,810,1463563512554692813,,-17.7472286224,7.75333929062,123.007484436,0.0117790000513,1.0,0.0,0.0,0.0,1.0,0.0,0.0,0.0,1.0,-86.4024429321,-40.4268302917,-50.8536605835,1.0,0.0,0.0,0.0,1.0,0.0,0.0,0.0,1.0,20.85349646,18.1863558105,-73.5115677734,1.0,0.0,0.0,0.0,1.0,0.0,0.0,0.0,1.0
1463563513090063236,811,1463563512569698242,,-18.170042038,7.5331735611,122.747543335,0.00719500007108,1.0,0.0,0.0,0.0,1.0,0.0,0.0,0.0,1.0,-52.9268302917,34.2682952881,-24.9390239716,1.0,0.0,0.0,0.0,1.0,0.0,0.0,0.0,1.0,-25.0146189453,0.383072265625,-0.493205541992,1.0,0.0,0.0,0.0,1.0,0.0,0.0,0.0,1.0
1463563513090603188,812,1463563512577368615,,-18.8352451324,7.5040807724,122.451896667,0.0152510004118,1.0,0.0,0.0,0.0,1.0,0.0,0.0,0.0,1.0,-63.5365829468,3.65853667259,-20.6707324982,1.0,0.0,0.0,0.0,1.0,0.0,0.0,0.0,1.0,3.36145913086,-2.7820623291,-26.0824328857,1.0,0.0,0.0,0.0,1.0,0.0,0.0,0.0,1.0
1463563513090896628,813,1463563512582746886,,-19.9967365265,8.48649120331,121.907287598,0.00722099980339,1.0,0.0,0.0,0.0,1.0,0.0,0.0,0.0,1.0,-137.621948242,99.3292694092,-39.8780479431,1.0,0.0,0.0,0.0,1.0,0.0,0.0,0.0,1.0,31.7806328369,4.47715710449,9.47624958638,1.0,0.0,0.0,0.0,1.0,0.0,0.0,0.0,1.0
1463563513091200641,814,1463563512590725021,,-20.4713249207,7.53589868546,121.971954346,0.00778099987656,1.0,0.0,0.0,0.0,1.0,0.0,0.0,0.0,1.0,-59.7560997009,-167.012207031,-51.0975608826,1.0,0.0,0.0,0.0,1.0,0.0,0.0,0.0,1.0,26.7959049805,-5.1379567627,17.0371401827,1.0,0.0,0.0,0.0,1.0,0.0,0.0,0.0,1.0
1463563513091495799,815,1463563512604590702,,-21.4781589508,7.10345745087,121.679672241,0.0100769996643,1.0,0.0,0.0,0.0,1.0,0.0,0.0,0.0,1.0,-84.9390258789,20.6097564697,-20.1219520569,1.0,0.0,0.0,0.0,1.0,0.0,0.0,0.0,1.0,-33.4374203857,7.69017573242,-1.80522805176,1.0,0.0,0.0,0.0,1.0,0.0,0.0,0.0,1.0
1463563513091772312,816,1463563512612872798,,-22.0722961426,7.68169641495,120.703025818,0.0111159998924,1.0,0.0,0.0,0.0,1.0,0.0,0.0,0.0,1.0,-47.5609779358,127.134147644,-41.8902435303,1.0,0.0,0.0,0.0,1.0,0.0,0.0,0.0,1.0,-9.50498117534,1.10133276367,-6.02381137695,1.0,0.0,0.0,0.0,1.0,0.0,0.0,0.0,1.0
1463563513093521232,817,1463563512621840472,,-22.7731132507,9.0229177475,119.85243988,0.00915599986911,1.0,0.0,0.0,0.0,1.0,0.0,0.0,0.0,1.0,-66.9512252808,117.743896484,-48.9634170532,1.0,0.0,0.0,0.0,1.0,0.0,0.0,0.0,1.0,19.120094458,-3.62482131348,4.72615378489,1.0,0.0,0.0,0.0,1.0,0.0,0.0,0.0,1.0
1463563513093804151,818,1463563512643604600,,-23.1250152588,7.53611898422,119.44329071,0.0100440001115,1.0,0.0,0.0,0.0,1.0,0.0,0.0,0.0,1.0,-28.7195110321,-73.0487823486,-73.2317123413,1.0,0.0,0.0,0.0,1.0,0.0,0.0,0.0,1.0,-13.8720044189,3.06936652832,-7.36935270996,1.0,0.0,0.0,0.0,1.0,0.0,0.0,0.0,1.0
1463563513094865045,819,1463563512648329845,,-24.7115058899,9.89751529694,117.181900024,0.0174380000681,1.0,0.0,0.0,0.0,1.0,0.0,0.0,0.0,1.0,-63.5365829468,143.231719971,-72.7439041138,1.0,0.0,0.0,0.0,1.0,0.0,0.0,0.0,1.0,27.9642753906,-12.9143237549,49.0428268066,1.0,0.0,0.0,0.0,1.0,0.0,0.0,0.0,1.0
1463563513095192599,820,1463563512657175851,,-24.839132309,9.24368572235,116.997055054,0.00904799997807,1.0,0.0,0.0,0.0,1.0,0.0,0.0,0.0,1.0,-5.97560977936,-64.8780441284,-49.7560997009,1.0,0.0,0.0,0.0,1.0,0.0,0.0,0.0,1.0,13.0675526611,21.1360122559,-37.6703689209,1.0,0.0,0.0,0.0,1.0,0.0,0.0,0.0,1.0
1463563513099361330,821,1463563512664316063,,-25.0444030762,10.0460014343,116.089416504,0.00710000004619,1.0,0.0,0.0,0.0,1.0,0.0,0.0,0.0,1.0,-38.0487823486,134.634155273,-79.5121994019,1.0,0.0,0.0,0.0,1.0,0.0,0.0,0.0,1.0,35.6017810246,-15.576676001,-54.0371314697,1.0,0.0,0.0,0.0,1.0,0.0,0.0,0.0,1.0
1463563513099869146,822,1463563512672673368,,-25.35987854,9.19044208527,116.094207764,0.00739599997178,1.0,0.0,0.0,0.0,1.0,0.0,0.0,0.0,1.0,-30.1829280853,-145.426834106,-63.9634170532,1.0,0.0,0.0,0.0,1.0,0.0,0.0,0.0,1.0,17.8751084257,-3.59130249023,22.0075016602,1.0,0.0,0.0,0.0,1.0,0.0,0.0,0.0,1.0
1463563513100175711,823,1463563512683342670,,-24.9960327148,7.60605669022,115.964302063,0.00962700042874,1.0,0.0,0.0,0.0,1.0,0.0,0.0,0.0,1.0,7.98780536652,-105.426834106,-68.4756164551,1.0,0.0,0.0,0.0,1.0,0.0,0.0,0.0,1.0,-35.8938712891,-17.0993882568,-38.747759668,1.0,0.0,0.0,0.0,1.0,0.0,0.0,0.0,1.0
1463563513100528266,824,1463563512694024524,,-25.5741786957,10.5236539841,113.706741333,0.0111579997465,1.0,0.0,0.0,0.0,1.0,0.0,0.0,0.0,1.0,-33.2317085266,302.317077637,-77.0731658936,1.0,0.0,0.0,0.0,1.0,0.0,0.0,0.0,1.0,26.8006933838,7.47469758301,-47.6685550537,1.0,0.0,0.0,0.0,1.0,0.0,0.0,0.0,1.0
1463563513100882018,825,1463563512708769899,,-24.9215087891,12.8961696625,111.125076294,0.0162480007857,1.0,0.0,0.0,0.0,1.0,0.0,0.0,0.0,1.0,40.1829299927,206.036590576,-78.9024429321,1.0,0.0,0.0,0.0,1.0,0.0,0.0,0.0,1.0,0.474051928711,-3.03105930176,-16.7450464111,1.0,0.0,0.0,0.0,1.0,0.0,0.0,0.0,1.0
1463563513101191552,826,1463563512712794514,,-24.8315258026,13.4052934647,110.54964447,0.00325799989514,1.0,0.0,0.0,0.0,1.0,0.0,0.0,0.0,1.0,48.5365867615,187.804885864,-104.878051758,1.0,0.0,0.0,0.0,1.0,0.0,0.0,0.0,1.0,48.1330301758,-3.84987626953,-51.125782251,1.0,0.0,0.0,0.0,1.0,0.0,0.0,0.0,1.0
1463563513101478117,827,1463563512722428652,,-24.3562221527,12.07462883,110.608917236,0.0096540004015,1.0,0.0,0.0,0.0,1.0,0.0,0.0,0.0,1.0,32.3780517578,-111.463417053,-47.2560958862,1.0,0.0,0.0,0.0,1.0,0.0,0.0,0.0,1.0,-3.68228215332,5.58327827148,-40.332721167,1.0,0.0,0.0,0.0,1.0,0.0,0.0,0.0,1.0
1463563513101752129,828,1463563512737346268,,-24.3837604523,12.3188724518,109.647605896,0.0146150002256,1.0,0.0,0.0,0.0,1.0,0.0,0.0,0.0,1.0,22.9878044128,38.4756126404,-48.7195129395,1.0,0.0,0.0,0.0,1.0,0.0,0.0,0.0,1.0,3.41413156738,8.50899328472,-11.8704518311,1.0,0.0,0.0,0.0,1.0,0.0,0.0,0.0,1.0
1463563513102024632,829,1463563512742394328,,-24.1550483704,12.7297973633,109.052711487,0.00602099997923,1.0,0.0,0.0,0.0,1.0,0.0,0.0,0.0,1.0,36.7682952881,79.3292694092,-73.5365905762,1.0,0.0,0.0,0.0,1.0,0.0,0.0,0.0,1.0,12.3061965332,-2.05422502441,-15.7825773437,1.0,0.0,0.0,0.0,1.0,0.0,0.0,0.0,1.0
1463563513102292759,830,1463563512751902892,,-23.9900417328,11.9581031799,108.699012756,0.00962499994785,1.0,0.0,0.0,0.0,1.0,0.0,0.0,0.0,1.0,50.9146347046,-107.439025879,-79.634147644,1.0,0.0,0.0,0.0,1.0,0.0,0.0,0.0,1.0,5.95677373047,1.99676418457,3.64397492676,1.0,0.0,0.0,0.0,1.0,0.0,0.0,0.0,1.0
1463563513102555417,831,1463563512763082250,,-23.5913028717,11.8796710968,108.004005432,0.0102239996195,1.0,0.0,0.0,0.0,1.0,0.0,0.0,0.0,1.0,65.9756088257,65.1219558716,-38.8414649963,1.0,0.0,0.0,0.0,1.0,0.0,0.0,0.0,1.0,-20.9875717529,3.28005627441,4.46758029785,1.0,0.0,0.0,0.0,1.0,0.0,0.0,0.0,1.0
1463563513102823075,832,1463563512772243988,,-23.4564628601,13.060338974,106.805671692,0.00998899992555,1.0,0.0,0.0,0.0,1.0,0.0,0.0,0.0,1.0,55.7317085266,107.378044128,-75.1829299927,1.0,0.0,0.0,0.0,1.0,0.0,0.0,0.0,1.0,22.3283246826,8.28393774414,-1.92972653809,1.0,0.0,0.0,0.0,1.0,0.0,0.0,0.0,1.0
1463563513103114275,833,1463563512783282616,,-22.4543991089,10.7540616989,106.723297119,0.0111750001088,1.0,0.0,0.0,0.0,1.0,0.0,0.0,0.0,1.0,67.7439041138,-165.304885864,-82.5,1.0,0.0,0.0,0.0,1.0,0.0,0.0,0.0,1.0,-20.4225401611,-4.96557424316,-95.361052124,1.0,0.0,0.0,0.0,1.0,0.0,0.0,0.0,1.0
1463563513103409330,834,1463563512792323259,,-22.2660598755,12.4232082367,105.132133484,0.00902200024575,1.0,0.0,0.0,0.0,1.0,0.0,0.0,0.0,1.0,36.5243911743,268.475616455,-77.7439041138,1.0,0.0,0.0,0.0,1.0,0.0,0.0,0.0,1.0,-13.3740104736,-0.708683691406,-26.1638357422,1.0,0.0,0.0,0.0,1.0,0.0,0.0,0.0,1.0
1463563513105610441,835,1463563512803356574,,-21.6019706726,12.1100549698,104.892868042,0.010108999908,1.0,0.0,0.0,0.0,1.0,0.0,0.0,0.0,1.0,50.5487785339,-58.8414649963,-52.3780517578,1.0,0.0,0.0,0.0,1.0,0.0,0.0,0.0,1.0,10.0317049561,-2.43729729004,-5.73171877441,1.0,0.0,0.0,0.0,1.0,0.0,0.0,0.0,1.0
1463563513108578797,836,1463563512812688730,,-20.9637527466,11.8119325638,104.208679199,0.0101039996371,1.0,0.0,0.0,0.0,1.0,0.0,0.0,0.0,1.0,54.9390258789,35.6707344055,-60.3658561707,1.0,0.0,0.0,0.0,1.0,0.0,0.0,0.0,1.0,-9.47624958638,-2.05422502441,-12.4402718262,1.0,0.0,0.0,0.0,1.0,0.0,0.0,0.0,1.0
1463563513112433931,837,1463563512834970883,,-20.4478645325,11.9345149994,103.574028015,0.0101129999384,1.0,0.0,0.0,0.0,1.0,0.0,0.0,0.0,1.0,55.2439041138,28.9634151459,-55.0,1.0,0.0,0.0,0.0,1.0,0.0,0.0,0.0,1.0,3.9121255127,2.70065947266,-13.7666595459,1.0,0.0,0.0,0.0,1.0,0.0,0.0,0.0,1.0
1463563513112768986,838,1463563512844238768,,-19.7404766083,10.739159584,103.12412262,0.0170699991286,1.0,0.0,0.0,0.0,1.0,0.0,0.0,0.0,1.0,33.1707305908,-13.841463089,-33.8414649963,1.0,0.0,0.0,0.0,1.0,0.0,0.0,0.0,1.0,-20.0059490723,0.0430956298828,-21.1264354492,1.0,0.0,0.0,0.0,1.0,0.0,0.0,0.0,1.0
1463563513113042009,839,1463563512850544754,,-19.1677322388,11.7219524384,102.375518799,0.00961800012738,1.0,0.0,0.0,0.0,1.0,0.0,0.0,0.0,1.0,51.5243911743,119.146347046,-41.7073173523,1.0,0.0,0.0,0.0,1.0,0.0,0.0,0.0,1.0,5.41568415527,-2.50433493652,-23.4296574463,1.0,0.0,0.0,0.0,1.0,0.0,0.0,0.0,1.0
1463563513113305188,840,1463563512855609273,,-19.0747470856,12.5788726807,101.965110779,0.00584199978039,1.0,0.0,0.0,0.0,1.0,0.0,0.0,0.0,1.0,25.975610733,110.121955872,-33.7804870605,1.0,0.0,0.0,0.0,1.0,0.0,0.0,0.0,1.0,17.0179865694,-0.746990917969,-2.82036955566,1.0,0.0,0.0,0.0,1.0,0.0,0.0,0.0,1.0
1463563513113594253,841,1463563512864343456,,-18.8912067413,11.4736146927,101.797409058,0.00784599967301,1.0,0.0,0.0,0.0,1.0,0.0,0.0,0.0,1.0,47.3780517578,-109.573173523,-53.9024391174,1.0,0.0,0.0,0.0,1.0,0.0,0.0,0.0,1.0,-5.42526096191,0.699106884766,8.31745598286,1.0,0.0,0.0,0.0,1.0,0.0,0.0,0.0,1.0
1463563513113913787,842,1463563512874193272,,-18.7382621765,11.9418563843,101.091430664,0.0112519999966,1.0,0.0,0.0,0.0,1.0,0.0,0.0,0.0,1.0,25.8536586761,107.56098175,-26.4634151459,1.0,0.0,0.0,0.0,1.0,0.0,0.0,0.0,1.0,-18.746598999,3.74453139648,-12.1769096436,1.0,0.0,0.0,0.0,1.0,0.0,0.0,0.0,1.0
1463563513114969680,843,1463563512884596426,,-18.4254360199,12.8673334122,100.624572754,0.0089699998498,1.0,0.0,0.0,0.0,1.0,0.0,0.0,0.0,1.0,29.6951236725,63.5365829468,-34.4512214661,1.0,0.0,0.0,0.0,1.0,0.0,0.0,0.0,1.0,13.2830308105,-4.20900622629,-0.847547387695,1.0,0.0,0.0,0.0,1.0,0.0,0.0,0.0,1.0
1463563513115413121,844,1463563512893302484,,-18.0298595428,12.0562477112,100.572372437,0.0100910002366,1.0,0.0,0.0,0.0,1.0,0.0,0.0,0.0,1.0,31.158536911,-63.5975646973,-27.1951236725,1.0,0.0,0.0,0.0,1.0,0.0,0.0,0.0,1.0,0.076614453125,3.57214887695,-24.396914917,1.0,0.0,0.0,0.0,1.0,0.0,0.0,0.0,1.0
1463563513119660446,845,1463563512903422406,,-18.088476181,12.6410064697,100.201171875,0.0100929997861,1.0,0.0,0.0,0.0,1.0,0.0,0.0,0.0,1.0,17.5609760284,14.8170728683,-27.9268302917,1.0,0.0,0.0,0.0,1.0,0.0,0.0,0.0,1.0,12.4737906494,1.5562310791,8.27914934082,1.0,0.0,0.0,0.0,1.0,0.0,0.0,0.0,1.0
1463563513119993001,846,1463563512914969580,,-17.6371650696,10.9266443253,100.156700134,0.0114860003814,1.0,0.0,0.0,0.0,1.0,0.0,0.0,0.0,1.0,22.2560977936,-95.1829223633,-37.5,1.0,0.0,0.0,0.0,1.0,0.0,0.0,0.0,1.0,-19.2254393311,-3.49553442383,-17.2861371554,1.0,0.0,0.0,0.0,1.0,0.0,0.0,0.0,1.0
1463563513120298212,847,1463563512923658918,,-17.4298191071,12.3473167419,99.5918502808,0.00871699955314,1.0,0.0,0.0,0.0,1.0,0.0,0.0,0.0,1.0,22.6219520569,172.012207031,-13.2317075729,1.0,0.0,0.0,0.0,1.0,0.0,0.0,0.0,1.0,8.84896933594,1.30244570312,-38.4365111141,1.0,0.0,0.0,0.0,1.0,0.0,0.0,0.0,1.0
1463563513120567641,848,1463563512933735976,,-17.0116844177,12.2119483948,99.4615783691,0.0101079996675,1.0,0.0,0.0,0.0,1.0,0.0,0.0,0.0,1.0,24.9390239716,-12.9878053665,-20.3048782349,1.0,0.0,0.0,0.0,1.0,0.0,0.0,0.0,1.0,5.52581743164,-1.44130939941,-19.4265522705,1.0,0.0,0.0,0.0,1.0,0.0,0.0,0.0,1.0
1463563513120860455,849,1463563512943736418,,-17.1077384949,11.1642427444,99.3140640259,0.0101009998471,1.0,0.0,0.0,0.0,1.0,0.0,0.0,0.0,1.0,12.5,-50.0,-24.6951236725,1.0,0.0,0.0,0.0,1.0,0.0,0.0,0.0,1.0,-4.13718046875,2.5234885498,-2.18830031738,1.0,0.0,0.0,0.0,1.0,0.0,0.0,0.0,1.0
1463563513121149937,850,1463563512955102445,,-17.0375823975,10.8031139374,98.9243850708,0.0113070001826,1.0,0.0,0.0,0.0,1.0,0.0,0.0,0.0,1.0,-8.41463470459,-2.07317066193,-38.9634132385,1.0,0.0,0.0,0.0,1.0,0.0,0.0,0.0,1.0,-6.31111557617,-3.99352836914,-36.8180307918,1.0,0.0,0.0,0.0,1.0,0.0,0.0,0.0,1.0
1463563513121433064,851,1463563512965825549,,-17.9472007751,11.6047315598,98.2404251099,0.00985199958086,1.0,0.0,0.0,0.0,1.0,0.0,0.0,0.0,1.0,-42.4390258789,93.7804870605,-32.7439041138,1.0,0.0,0.0,0.0,1.0,0.0,0.0,0.0,1.0,-4.5250411377,14.2119810547,32.9825220703,1.0,0.0,0.0,0.0,1.0,0.0,0.0,0.0,1.0
1463563513121725566,852,1463563512974183010,,-18.1167469025,9.75827121735,98.9270706177,0.00915599986911,1.0,0.0,0.0,0.0,1.0,0.0,0.0,0.0,1.0,-24.6341457367,-251.707321167,-2.01219511032,1.0,0.0,0.0,0.0,1.0,0.0,0.0,0.0,1.0,5.51145222168,-1.62326872559,9.62469125835,1.0,0.0,0.0,0.0,1.0,0.0,0.0,0.0,1.0
1463563513121996089,853,1463563512985022001,,-18.5814113617,11.4099836349,97.9683837891,0.0108789997175,1.0,0.0,0.0,0.0,1.0,0.0,0.0,0.0,1.0,-22.0121955872,222.012191772,-14.9390249252,1.0,0.0,0.0,0.0,1.0,0.0,0.0,0.0,1.0,-31.2108128418,1.36948334961,3.02148249512,1.0,0.0,0.0,0.0,1.0,0.0,0.0,0.0,1.0
1463563513122271091,854,1463563512995667344,,-18.4970397949,14.2052612305,96.9421157837,0.0106380004436,1.0,0.0,0.0,0.0,1.0,0.0,0.0,0.0,1.0,15.3048791885,267.743927002,-10.2439022064,1.0,0.0,0.0,0.0,1.0,0.0,0.0,0.0,1.0,19.718644873,1.80522805176,-46.3661093506,1.0,0.0,0.0,0.0,1.0,0.0,0.0,0.0,1.0
1463563513122552396,855,1463563513004653925,,-18.4128570557,13.5547866821,96.9925613403,0.00877999980003,1.0,0.0,0.0,0.0,1.0,0.0,0.0,0.0,1.0,4.45121955872,-122.987808228,-35.1829299927,1.0,0.0,0.0,0.0,1.0,0.0,0.0,0.0,1.0,17.9613020235,-5.72693037109,11.4730143555,1.0,0.0,0.0,0.0,1.0,0.0,0.0,0.0,1.0
1463563513122813179,856,1463563513014796035,,-18.1623153687,10.2562475204,97.5034561157,0.0102800000459,1.0,0.0,0.0,0.0,1.0,0.0,0.0,0.0,1.0,-6.64634132385,-272.378051758,-43.2926864624,1.0,0.0,0.0,0.0,1.0,0.0,0.0,0.0,1.0,-12.4929442627,-3.47159240723,-9.01656345215,1.0,0.0,0.0,0.0,1.0,0.0,0.0,0.0,1.0
1463563513123079639,857,1463563513025652995,,-19.107591629,12.816192627,96.1431121826,0.00992999970913,1.0,0.0,0.0,0.0,1.0,0.0,0.0,0.0,1.0,-67.865852356,328.719512939,-28.7804889679,1.0,0.0,0.0,0.0,1.0,0.0,0.0,0.0,1.0,-16.3619741455,5.47793339844,-17.3052907687,1.0,0.0,0.0,0.0,1.0,0.0,0.0,0.0,1.0
1463563513123357558,858,1463563513034733065,,-19.3816127777,13.7061986923,95.6858444214,0.0100889997557,1.0,0.0,0.0,0.0,1.0,0.0,0.0,0.0,1.0,-8.04878044128,48.9634170532,-25.7926845551,1.0,0.0,0.0,0.0,1.0,0.0,0.0,0.0,1.0,23.4535994629,-2.18351191406,20.1926968018,1.0,0.0,0.0,0.0,1.0,0.0,0.0,0.0,1.0
1463563513123675321,859,1463563513045290648,,-19.2464618683,12.2495622635,95.6476974487,0.0101070003584,1.0,0.0,0.0,0.0,1.0,0.0,0.0,0.0,1.0,-2.01219511032,-102.743904114,-42.9268302917,1.0,0.0,0.0,0.0,1.0,0.0,0.0,0.0,1.0,-20.7529399902,-0.0622492431641,-47.0700046387,1.0,0.0,0.0,0.0,1.0,0.0,0.0,0.0,1.0
1463563513123960688,860,1463563513056561308,,-19.6382293701,13.8802490234,94.7984085083,0.0116889998317,1.0,0.0,0.0,0.0,1.0,0.0,0.0,0.0,1.0,-22.682926178,126.951217651,-29.5731697083,1.0,0.0,0.0,0.0,1.0,0.0,0.0,0.0,1.0,3.94564433594,0.785298144531,-4.15154538645,1.0,0.0,0.0,0.0,1.0,0.0,0.0,0.0,1.0
1463563513124834653,861,1463563513065098771,,-19.6545257568,13.4751157761,94.7304916382,0.00850099977106,1.0,0.0,0.0,0.0,1.0,0.0,0.0,0.0,1.0,-10.8536586761,-79.8780517578,-38.4146347046,1.0,0.0,0.0,0.0,1.0,0.0,0.0,0.0,1.0,13.125013501,-0.445321508789,-8.31745598286,1.0,0.0,0.0,0.0,1.0,0.0,0.0,0.0,1.0
1463563513129875370,862,1463563513076717820,,-19.8304271698,14.0279502869,94.4055328369,0.0101239997894,1.0,0.0,0.0,0.0,1.0,0.0,0.0,0.0,1.0,-7.19512224197,12.0121955872,-26.5853652954,1.0,0.0,0.0,0.0,1.0,0.0,0.0,0.0,1.0,10.285490332,-2.27449157715,7.71890615234,1.0,0.0,0.0,0.0,1.0,0.0,0.0,0.0,1.0
1463563513130259279,863,1463563513085371325,,-20.272605896,11.4938354492,94.7225875854,0.010095000267,1.0,0.0,0.0,0.0,1.0,0.0,0.0,0.0,1.0,-19.4512195587,-206.402435303,-33.6585388184,1.0,0.0,0.0,0.0,1.0,0.0,0.0,0.0,1.0,-11.3533042725,9.28950185688,-1.51792385254,1.0,0.0,0.0,0.0,1.0,0.0,0.0,0.0,1.0
1463563513130569906,864,1463563513095522810,,-20.4129295349,11.9409618378,94.0356216431,0.0100999996066,1.0,0.0,0.0,0.0,1.0,0.0,0.0,0.0,1.0,-6.82926845551,116.524398804,-27.5,1.0,0.0,0.0,0.0,1.0,0.0,0.0,0.0,1.0,-26.0201836426,-2.08774370153,-4.39096584473,1.0,0.0,0.0,0.0,1.0,0.0,0.0,0.0,1.0
1463563513130853450,865,1463563513108961873,,-20.8032913208,12.0587406158,93.500793457,0.0112140001729,1.0,0.0,0.0,0.0,1.0,0.0,0.0,0.0,1.0,-20.4878044128,-10.548781395,-51.1585388184,1.0,0.0,0.0,0.0,1.0,0.0,0.0,0.0,1.0,7.97747993164,2.69108266602,-5.22414802246,1.0,0.0,0.0,0.0,1.0,0.0,0.0,0.0,1.0
1463563513131139234,866,1463563513115576352,,-20.7735919952,10.8367319107,93.4065246582,0.00897799991071,1.0,0.0,0.0,0.0,1.0,0.0,0.0,0.0,1.0,-0.914634168148,-73.9634170532,-39.2073173523,1.0,0.0,0.0,0.0,1.0,0.0,0.0,0.0,1.0,-8.24084211426,0.502782348633,-4.63517441406,1.0,0.0,0.0,0.0,1.0,0.0,0.0,0.0,1.0
1463563513131426059,867,1463563513126756595,,-20.9842357635,10.9405193329,92.6279754639,0.0100919995457,1.0,0.0,0.0,0.0,1.0,0.0,0.0,0.0,1.0,1.03658533096,83.6585388184,-45.9146347046,1.0,0.0,0.0,0.0,1.0,0.0,0.0,0.0,1.0,-20.7385747803,0.928950244141,4.80276882253,1.0,0.0,0.0,0.0,1.0,0.0,0.0,0.0,1.0
1463563513699767781,868,1463563513136112970,,-21.1437530518,12.8290262222,91.5185012817,0.0103139998391,1.0,0.0,0.0,0.0,1.0,0.0,0.0,0.0,1.0,23.7195129395,233.292678833,-17.1951217651,1.0,0.0,0.0,0.0,1.0,0.0,0.0,0.0,1.0,-8.28393774414,14.336479541,-17.3531736328,1.0,0.0,0.0,0.0,1.0,0.0,0.0,0.0,1.0
1463563513700971384,869,1463563513145796014,,-21.4433345795,11.9071998596,91.2270431519,0.00989099964499,1.0,0.0,0.0,0.0,1.0,0.0,0.0,0.0,1.0,4.14634132385,-88.2926864624,-57.0731697083,1.0,0.0,0.0,0.0,1.0,0.0,0.0,0.0,1.0,-0.545877978516,2.28885678711,15.1505081055,1.0,0.0,0.0,0.0,1.0,0.0,0.0,0.0,1.0
1463563513701283209,870,1463563513158749605,,-21.3033370972,12.5710134506,90.402557373,0.0101380003616,1.0,0.0,0.0,0.0,1.0,0.0,0.0,0.0,1.0,38.4756126404,125.0,-32.7439041138,1.0,0.0,0.0,0.0,1.0,0.0,0.0,0.0,1.0,-31.6944415771,-3.27047946777,21.092916626,1.0,0.0,0.0,0.0,1.0,0.0,0.0,0.0,1.0
1463563513705774182,871,1463563513166451384,,-21.4630775452,13.3978366852,89.7021408081,0.0103000001982,1.0,0.0,0.0,0.0,1.0,0.0,0.0,0.0,1.0,24.7560977936,53.2926864624,-42.5,1.0,0.0,0.0,0.0,1.0,0.0,0.0,0.0,1.0,25.7376678467,14.4466128174,-1.10133276367,1.0,0.0,0.0,0.0,1.0,0.0,0.0,0.0,1.0
1463563513706172154,872,1463563513176131459,,-20.928691864,12.2531137466,89.4747238159,0.00986399967223,1.0,0.0,0.0,0.0,1.0,0.0,0.0,0.0,1.0,40.8536605835,-76.4024353027,-57.0731697083,1.0,0.0,0.0,0.0,1.0,0.0,0.0,0.0,1.0,-20.8870152832,1.11569797363,-86.5695436279,1.0,0.0,0.0,0.0,1.0,0.0,0.0,0.0,1.0
1463563513706483302,873,1463563513188500045,,-20.5447921753,13.9575119019,88.1928939819,0.0112770004198,1.0,0.0,0.0,0.0,1.0,0.0,0.0,0.0,1.0,46.7682952881,171.89024353,-54.3292694092,1.0,0.0,0.0,0.0,1.0,0.0,0.0,0.0,1.0,-0.31124621582,-3.88818349609,5.4922986084,1.0,0.0,0.0,0.0,1.0,0.0,0.0,0.0,1.0
1463563513706754606,874,1463563513196756047,,-20.4155406952,13.6391735077,87.809387207,0.00897299963981,1.0,0.0,0.0,0.0,1.0,0.0,0.0,0.0,1.0,48.3536567688,-63.8414649963,-60.5487823486,1.0,0.0,0.0,0.0,1.0,0.0,0.0,0.0,1.0,8.14986245117,2.14041643031,9.09317790527,1.0,0.0,0.0,0.0,1.0,0.0,0.0,0.0,1.0
1463563513707026275,875,1463563513207151076,,-20.0643577576,13.4948883057,87.075378418,0.010274999775,1.0,0.0,0.0,0.0,1.0,0.0,0.0,0.0,1.0,48.6585388184,53.1707305908,-53.1707305908,1.0,0.0,0.0,0.0,1.0,0.0,0.0,0.0,1.0,-16.4960494385,5.41568415527,-18.2246630371,1.0,0.0,0.0,0.0,1.0,0.0,0.0,0.0,1.0
1463563513707273516,876,1463563513216555576,,-19.7520637512,14.0281963348,86.1311798096,0.00987500045449,1.0,0.0,0.0,0.0,1.0,0.0,0.0,0.0,1.0,40.8536605835,84.634147644,-69.8170776367,1.0,0.0,0.0,0.0,1.0,0.0,0.0,0.0,1.0,1.60890351563,0.756567724609,-8.47068488911,1.0,0.0,0.0,0.0,1.0,0.0,0.0,0.0,1.0
1463563513707552842,877,1463563513227303525,,-18.9585399628,13.320599556,85.8721008301,0.0105779999867,1.0,0.0,0.0,0.0,1.0,0.0,0.0,0.0,1.0,64.2073135376,-42.5,-43.1707305908,1.0,0.0,0.0,0.0,1.0,0.0,0.0,0.0,1.0,-0.0383072265625,0.488417138672,-17.4776721191,1.0,0.0,0.0,0.0,1.0,0.0,0.0,0.0,1.0
1463563513707841333,878,1463563513236883131,,-18.8106002808,13.5926914215,85.0346755981,0.0096540004015,1.0,0.0,0.0,0.0,1.0,0.0,0.0,0.0,1.0,54.7560997009,86.1585388184,-53.0487823486,1.0,0.0,0.0,0.0,1.0,0.0,0.0,0.0,1.0,-3.3231519043,4.10366164551,-4.61602080078,1.0,0.0,0.0,0.0,1.0,0.0,0.0,0.0,1.0
1463563513708159096,879,1463563513247219930,,-18.4566802979,13.5013437271,84.5418395996,0.0100830001757,1.0,0.0,0.0,0.0,1.0,0.0,0.0,0.0,1.0,59.0853652954,-45.1219520569,-60.9756088257,1.0,0.0,0.0,0.0,1.0,0.0,0.0,0.0,1.0,17.8368011991,4.28562126394,-0.282515795898,1.0,0.0,0.0,0.0,1.0,0.0,0.0,0.0,1.0
1463563513708456390,880,1463563513256925787,,-17.4248371124,11.9411239624,84.5266418457,0.0101319998503,1.0,0.0,0.0,0.0,1.0,0.0,0.0,0.0,1.0,79.5121994019,-110.609764099,-41.6463432312,1.0,0.0,0.0,0.0,1.0,0.0,0.0,0.0,1.0,-13.737929126,-4.48194550781,-24.5214134033,1.0,0.0,0.0,0.0,1.0,0.0,0.0,0.0,1.0
1463563513708718007,881,1463563513269828648,,-17.1126537323,15.1405801773,82.785949707,0.0112309996039,1.0,0.0,0.0,0.0,1.0,0.0,0.0,0.0,1.0,56.8902435303,348.658569336,-48.5975608826,1.0,0.0,0.0,0.0,1.0,0.0,0.0,0.0,1.0,-8.93994899902,2.92092602539,-19.0386927706,1.0,0.0,0.0,0.0,1.0,0.0,0.0,0.0,1.0
1463563513712150586,882,1463563513278884031,,-16.8107337952,16.5344696045,81.9444732666,0.00893499981612,1.0,0.0,0.0,0.0,1.0,0.0,0.0,0.0,1.0,75.7317047119,122.073181152,-51.2804870605,1.0,0.0,0.0,0.0,1.0,0.0,0.0,0.0,1.0,46.4714542236,8.25520732422,25.0529261719,1.0,0.0,0.0,0.0,1.0,0.0,0.0,0.0,1.0
1463563513712788872,883,1463563513287265867,,-15.855509758,13.7379179001,82.3222351074,0.0101209999993,1.0,0.0,0.0,0.0,1.0,0.0,0.0,0.0,1.0,103.658538818,-328.841491699,-52.8658561707,1.0,0.0,0.0,0.0,1.0,0.0,0.0,0.0,1.0,11.7938373779,2.82036955566,6.69897624512,1.0,0.0,0.0,0.0,1.0,0.0,0.0,0.0,1.0
1463563513713371481,884,1463563513298981844,,-15.2858533859,14.1878662109,81.7233657837,0.0100889997557,1.0,0.0,0.0,0.0,1.0,0.0,0.0,0.0,1.0,75.0609817505,105.121955872,-27.5609760284,1.0,0.0,0.0,0.0,1.0,0.0,0.0,0.0,1.0,-41.5872828369,-0.134075302102,10.8026378906,1.0,0.0,0.0,0.0,1.0,0.0,0.0,0.0,1.0
1463563513718474593,885,1463563513307775923,,-14.7438383102,15.8118581772,81.3689117432,0.0101030003279,1.0,0.0,0.0,0.0,1.0,0.0,0.0,0.0,1.0,73.9634170532,109.939025879,-1.34146344662,1.0,0.0,0.0,0.0,1.0,0.0,0.0,0.0,1.0,17.2669835421,3.21301862793,1.20188930646,1.0,0.0,0.0,0.0,1.0,0.0,0.0,0.0,1.0
1463563513718781262,886,1463563513317532509,,-13.7545204163,14.3215274811,81.2122573853,0.0100969998166,1.0,0.0,0.0,0.0,1.0,0.0,0.0,0.0,1.0,88.7195129395,-111.707321167,-46.4634170532,1.0,0.0,0.0,0.0,1.0,0.0,0.0,0.0,1.0,-1.34075292969,-0.0526724365234,-4.88417138672,1.0,0.0,0.0,0.0,1.0,0.0,0.0,0.0,1.0
1463563513719077515,887,1463563513329554791,,-13.3182153702,15.789601326,80.7155456543,0.0118559999391,1.0,0.0,0.0,0.0,1.0,0.0,0.0,0.0,1.0,51.2804870605,74.5731735229,-21.4634151459,1.0,0.0,0.0,0.0,1.0,0.0,0.0,0.0,1.0,9.05965908203,0.368707055664,0.593762048251,1.0,0.0,0.0,0.0,1.0,0.0,0.0,0.0,1.0
1463563513719360850,888,1463563513337693187,,-12.4397249222,14.7382688522,80.8116455078,0.00834999978542,1.0,0.0,0.0,0.0,1.0,0.0,0.0,0.0,1.0,73.7195129395,-127.256095886,-25.1219520569,1.0,0.0,0.0,0.0,1.0,0.0,0.0,0.0,1.0,3.20344182129,-3.86902988281,-10.3908352051,1.0,0.0,0.0,0.0,1.0,0.0,0.0,0.0,1.0
1463563513719704499,889,1463563513347914882,,-11.7741622925,14.801908493,80.4653396606,0.0100880004466,1.0,0.0,0.0,0.0,1.0,0.0,0.0,0.0,1.0,62.8048782349,66.5243911743,-21.2195129395,1.0,0.0,0.0,0.0,1.0,0.0,0.0,0.0,1.0,-13.7522943359,-2.46123930664,-4.41011945801,1.0,0.0,0.0,0.0,1.0,0.0,0.0,0.0,1.0
1463563513719975490,890,1463563513359542056,,-10.8688955307,13.8646202087,80.1518859863,0.0116299996153,1.0,0.0,0.0,0.0,1.0,0.0,0.0,0.0,1.0,74.0853729248,-36.2195129395,-35.2439041138,1.0,0.0,0.0,0.0,1.0,0.0,0.0,0.0,1.0,-15.2989486084,-0.76135612793,-27.2316496826,1.0,0.0,0.0,0.0,1.0,0.0,0.0,0.0,1.0
1463563513720539609,891,1463563513368122591,,-10.6657152176,14.7813282013,80.0257415771,0.00857200007886,1.0,0.0,0.0,0.0,1.0,0.0,0.0,0.0,1.0,28.2317066193,55.2439041138,-2.56097555161,1.0,0.0,0.0,0.0,1.0,0.0,0.0,0.0,1.0,18.6077341337,0.656011254883,-2.81558115234,1.0,0.0,0.0,0.0,1.0,0.0,0.0,0.0,1.0
1463563513721199823,892,1463563513379984923,,-9.94353580475,13.4470663071,80.0633468628,0.0109599996358,1.0,0.0,0.0,0.0,1.0,0.0,0.0,0.0,1.0,50.7926826477,-98.5365829468,-17.2560977936,1.0,0.0,0.0,0.0,1.0,0.0,0.0,0.0,1.0,-8.78672009277,-4.88417138672,-52.6197640869,1.0,0.0,0.0,0.0,1.0,0.0,0.0,0.0,1.0
1463563513721668056,893,1463563513388805096,,-10.2319030762,14.2858285904,79.70337677,0.00976799987257,1.0,0.0,0.0,0.0,1.0,0.0,0.0,0.0,1.0,3.23170733452,102.317077637,-10.9146347046,1.0,0.0,0.0,0.0,1.0,0.0,0.0,0.0,1.0,-6.93360800781,4.40054265137,13.3740104736,1.0,0.0,0.0,0.0,1.0,0.0,0.0,0.0,1.0
1463563513725483971,894,1463563513399173719,,-9.76812553406,13.708946228,79.601890564,0.0103580001742,1.0,0.0,0.0,0.0,1.0,0.0,0.0,0.0,1.0,38.7804870605,-36.4634170532,-17.0731716156,1.0,0.0,0.0,0.0,1.0,0.0,0.0,0.0,1.0,-4.31435168386,0.861912597656,-58.9404564697,1.0,0.0,0.0,0.0,1.0,0.0,0.0,0.0,1.0
1463563513725837828,895,1463563513411128291,,-10.0985422134,15.4000043869,79.1754989624,0.00932400021702,1.0,0.0,0.0,0.0,1.0,0.0,0.0,0.0,1.0,-11.341463089,132.073165894,-17.0121955872,1.0,0.0,0.0,0.0,1.0,0.0,0.0,0.0,1.0,19.0051727783,3.0166940918,11.2383825928,1.0,0.0,0.0,0.0,1.0,0.0,0.0,0.0,1.0
1463563513726126788,896,1463563513418891477,,-9.70408630371,13.6215114594,79.3290863037,0.0101079996675,1.0,0.0,0.0,0.0,1.0,0.0,0.0,0.0,1.0,44.8780479431,-180.914642334,-13.1097564697,1.0,0.0,0.0,0.0,1.0,0.0,0.0,0.0,1.0,4.09408483887,4.18506420969,-11.3963999023,1.0,0.0,0.0,0.0,1.0,0.0,0.0,0.0,1.0
1463563513726394186,897,1463563513428684470,,-9.31307697296,13.8096351624,79.1260528564,0.0100870002061,1.0,0.0,0.0,0.0,1.0,0.0,0.0,0.0,1.0,33.0487823486,73.0487823486,-8.71951198578,1.0,0.0,0.0,0.0,1.0,0.0,0.0,0.0,1.0,-13.1010714844,-1.76213242187,-8.35576320942,1.0,0.0,0.0,0.0,1.0,0.0,0.0,0.0,1.0
1463563513726700230,898,1463563513438729756,,-9.31665039062,15.1157770157,78.6814117432,0.010106000118,1.0,0.0,0.0,0.0,1.0,0.0,0.0,0.0,1.0,23.1097564697,90.2439041138,-23.8414649963,1.0,0.0,0.0,0.0,1.0,0.0,0.0,0.0,1.0,19.3451494141,6.12915625,-8.09719001465,1.0,0.0,0.0,0.0,1.0,0.0,0.0,0.0,1.0
1463563513728485661,899,1463563513449606924,,-8.59269523621,13.7832660675,78.7803955078,0.0101110003889,1.0,0.0,0.0,0.0,1.0,0.0,0.0,0.0,1.0,57.5609779358,-125.975608826,-12.5,1.0,0.0,0.0,0.0,1.0,0.0,0.0,0.0,1.0,2.86825358887,-1.29286889648,-19.8622969727,1.0,0.0,0.0,0.0,1.0,0.0,0.0,0.0,1.0
1463563513728820612,900,1463563513462032751,,-8.26861667633,13.7185726166,78.3889389038,0.0118370000273,1.0,0.0,0.0,0.0,1.0,0.0,0.0,0.0,1.0,42.317073822,48.0487823486,-22.1951236725,1.0,0.0,0.0,0.0,1.0,0.0,0.0,0.0,1.0,-24.4256453369,2.15478164027,5.43004936523,1.0,0.0,0.0,0.0,1.0,0.0,0.0,0.0,1.0
1463563513729087228,901,1463563513469715883,,-8.0310382843,14.0212278366,77.884552002,0.0083720004186,1.0,0.0,0.0,0.0,1.0,0.0,0.0,0.0,1.0,37.9878044128,59.024394989,-50.4878082275,1.0,0.0,0.0,0.0,1.0,0.0,0.0,0.0,1.0,-1.43652099609,1.36948334961,-29.7311962158,1.0,0.0,0.0,0.0,1.0,0.0,0.0,0.0,1.0
1463563513729377491,902,1463563513481155295,,-7.52635955811,13.8330249786,77.703163147,0.0100940000266,1.0,0.0,0.0,0.0,1.0,0.0,0.0,0.0,1.0,70.3658599854,-70.0000076294,-22.2560977936,1.0,0.0,0.0,0.0,1.0,0.0,0.0,0.0,1.0,19.0626336182,4.80755722585,11.3533042725,1.0,0.0,0.0,0.0,1.0,0.0,0.0,0.0,1.0
1463563513730012340,903,1463563513489196660,,-6.29348278046,12.0069818497,77.6366653442,0.0100880004466,1.0,0.0,0.0,0.0,1.0,0.0,0.0,0.0,1.0,112.195121765,-151.707321167,-26.5243911743,1.0,0.0,0.0,0.0,1.0,0.0,0.0,0.0,1.0,-20.7673052002,-7.06768330078,-69.4797275016,1.0,0.0,0.0,0.0,1.0,0.0,0.0,0.0,1.0
1463563513730737293,904,1463563513499718617,,-6.51671361923,13.6768274307,77.1565322876,0.010108999908,1.0,0.0,0.0,0.0,1.0,0.0,0.0,0.0,1.0,5.0,113.902442932,-28.7804889679,1.0,0.0,0.0,0.0,1.0,0.0,0.0,0.0,1.0,16.0794583496,4.51067592773,4.58729038086,1.0,0.0,0.0,0.0,1.0,0.0,0.0,0.0,1.0
1463563513731390319,905,1463563513509972030,,-5.45098543167,11.3347940445,76.9674682617,0.0104780001566,1.0,0.0,0.0,0.0,1.0,0.0,0.0,0.0,1.0,113.719512939,-188.841461182,-34.3292694092,1.0,0.0,0.0,0.0,1.0,0.0,0.0,0.0,1.0,-5.66946953125,3.50511123047,-13.1728975342,1.0,0.0,0.0,0.0,1.0,0.0,0.0,0.0,1.0
1463563513733733619,906,1463563513520629093,,-5.02428531647,12.9657497406,76.4897537231,0.00973900035024,1.0,0.0,0.0,0.0,1.0,0.0,0.0,0.0,1.0,56.5243911743,166.219512939,-31.0975627899,1.0,0.0,0.0,0.0,1.0,0.0,0.0,0.0,1.0,12.4019645996,5.84185205078,-45.0014144043,1.0,0.0,0.0,0.0,1.0,0.0,0.0,0.0,1.0
1463563513735543060,907,1463563513531170060,,-4.62127399445,11.9837903976,76.0640106201,0.0111260004342,1.0,0.0,0.0,0.0,1.0,0.0,0.0,0.0,1.0,100.060974121,-90.9756164551,-31.2195129395,1.0,0.0,0.0,0.0,1.0,0.0,0.0,0.0,1.0,0.392649072266,4.5489831543,0.0526724365234,1.0,0.0,0.0,0.0,1.0,0.0,0.0,0.0,1.0
1463563513735853166,908,1463563513540969720,,-3.86255192757,12.2901248932,75.8379364014,0.00905499979854,1.0,0.0,0.0,0.0,1.0,0.0,0.0,0.0,1.0,81.0365905762,35.9756088257,-22.3780498505,1.0,0.0,0.0,0.0,1.0,0.0,0.0,0.0,1.0,2.59531459961,-1.10133276367,-14.0635405518,1.0,0.0,0.0,0.0,1.0,0.0,0.0,0.0,1.0
1463563513736153794,909,1463563513551154070,,-2.91750025749,11.3116493225,75.5233612061,0.0113800000399,1.0,0.0,0.0,0.0,1.0,0.0,0.0,0.0,1.0,93.4756088257,-42.5,-27.1951236725,1.0,0.0,0.0,0.0,1.0,0.0,0.0,0.0,1.0,-8.61433815776,1.8148048584,-11.1761333496,1.0,0.0,0.0,0.0,1.0,0.0,0.0,0.0,1.0
1463563513736446556,910,1463563513560099765,,-2.09825658798,11.3501443863,75.2915649414,0.00883799977601,1.0,0.0,0.0,0.0,1.0,0.0,0.0,0.0,1.0,77.1951217651,15.9146347046,-28.0487804413,1.0,0.0,0.0,0.0,1.0,0.0,0.0,0.0,1.0,-0.0478840332031,-0.799663354492,-2.24097275391,1.0,0.0,0.0,0.0,1.0,0.0,0.0,0.0,1.0
1463563513736724163,911,1463563513571430947,,-1.06085264683,9.83766078949,75.1725082397,0.0112950000912,1.0,0.0,0.0,0.0,1.0,0.0,0.0,0.0,1.0,100.365852356,-78.7195129395,-9.75609779358,1.0,0.0,0.0,0.0,1.0,0.0,0.0,0.0,1.0,-13.6134306396,1.52750065918,-1.68072956543,1.0,0.0,0.0,0.0,1.0,0.0,0.0,0.0,1.0
1463563513737978287,912,1463563513582679524,,-0.663484156132,11.9281082153,75.1438980103,0.0113040003926,1.0,0.0,0.0,0.0,1.0,0.0,0.0,0.0,1.0,49.5731735229,133.536590576,2.92682933807,1.0,0.0,0.0,0.0,1.0,0.0,0.0,0.0,1.0,7.62792648926,2.16435844691,5.1379567627,1.0,0.0,0.0,0.0,1.0,0.0,0.0,0.0,1.0
1463563513738360061,913,1463563513591641000,,0.217714294791,10.3944339752,75.2411193848,0.00812999997288,1.0,0.0,0.0,0.0,1.0,0.0,0.0,0.0,1.0,89.0853652954,-202.439025879,8.04878044128,1.0,0.0,0.0,0.0,1.0,0.0,0.0,0.0,1.0,7.78115539551,-5.92325490723,-16.4864726318,1.0,0.0,0.0,0.0,1.0,0.0,0.0,0.0,1.0
1463563513738634178,914,1463563513601993425,,1.2568693161,10.6200037003,75.3709640503,0.00966900028288,1.0,0.0,0.0,0.0,1.0,0.0,0.0,0.0,1.0,107.378044128,78.9634170532,14.0853662491,1.0,0.0,0.0,0.0,1.0,0.0,0.0,0.0,1.0,-41.7117813232,1.25935007324,-9.8545340332,1.0,0.0,0.0,0.0,1.0,0.0,0.0,0.0,1.0
1463563513738906732,915,1463563513613906539,,1.72939634323,11.7528219223,75.416809082,0.0101549997926,1.0,0.0,0.0,0.0,1.0,0.0,0.0,0.0,1.0,61.5853691101,105.853660583,5.67073154449,1.0,0.0,0.0,0.0,1.0,0.0,0.0,0.0,1.0,-2.84909997559,8.80108530273,28.2467911865,1.0,0.0,0.0,0.0,1.0,0.0,0.0,0.0,1.0
1463563513739183557,916,1463563513621171335,,2.55661535263,10.2840242386,75.4687347412,0.010050999932,1.0,0.0,0.0,0.0,1.0,0.0,0.0,0.0,1.0,89.3902435303,-201.280487061,14.7560987473,1.0,0.0,0.0,0.0,1.0,0.0,0.0,0.0,1.0,20.9301109131,3.50032282715,10.6877162109,1.0,0.0,0.0,0.0,1.0,0.0,0.0,0.0,1.0
1463563513740194034,917,1463563513631082923,,3.46444606781,8.4710483551,75.5578384399,0.0101020000875,1.0,0.0,0.0,0.0,1.0,0.0,0.0,0.0,1.0,76.9512252808,-125.06098175,14.4512205124,1.0,0.0,0.0,0.0,1.0,0.0,0.0,0.0,1.0,-34.3663706299,-7.85776984863,-3.31836350098,1.0,0.0,0.0,0.0,1.0,0.0,0.0,0.0,1.0
