%time,field.header.seq,field.header.stamp,field.header.frame_id,field.orientation.x,field.orientation.y,field.orientation.z,field.orientation.w,field.orientation_covariance0,field.orientation_covariance1,field.orientation_covariance2,field.orientation_covariance3,field.orientation_covariance4,field.orientation_covariance5,field.orientation_covariance6,field.orientation_covariance7,field.orientation_covariance8,field.angular_velocity.x,field.angular_velocity.y,field.angular_velocity.z,field.angular_velocity_covariance0,field.angular_velocity_covariance1,field.angular_velocity_covariance2,field.angular_velocity_covariance3,field.angular_velocity_covariance4,field.angular_velocity_covariance5,field.angular_velocity_covariance6,field.angular_velocity_covariance7,field.angular_velocity_covariance8,field.linear_acceleration.x,field.linear_acceleration.y,field.linear_acceleration.z,field.linear_acceleration_covariance0,field.linear_acceleration_covariance1,field.linear_acceleration_covariance2,field.linear_acceleration_covariance3,field.linear_acceleration_covariance4,field.linear_acceleration_covariance5,field.linear_acceleration_covariance6,field.linear_acceleration_covariance7,field.linear_acceleration_covariance8
1463082682473005314,342,1463082682290190670,,4.23759078979,-6.20501899719,152.581039429,0.00999800022691,1.0,0.0,0.0,0.0,1.0,0.0,0.0,0.0,1.0,-0.365853667259,3.84146332741,45.4878082275,1.0,0.0,0.0,0.0,1.0,0.0,0.0,0.0,1.0,0.656011254883,4.17548740305,-3.27526787109,1.0,0.0,0.0,0.0,1.0,0.0,0.0,0.0,1.0
1463082682473058908,343,1463082682297185136,,4.20649766922,-6.21459722519,153.014816284,0.0118300002068,1.0,0.0,0.0,0.0,1.0,0.0,0.0,0.0,1.0,-1.15853655338,-1.70731711388,48.3536567688,1.0,0.0,0.0,0.0,1.0,0.0,0.0,0.0,1.0,0.00957680664062,-1.08217922346,-15.8687686035,1.0,0.0,0.0,0.0,1.0,0.0,0.0,0.0,1.0
1463082682473098283,344,1463082682304046789,,4.49214696884,-6.13062477112,153.226669312,0.00813699979335,1.0,0.0,0.0,0.0,1.0,0.0,0.0,0.0,1.0,-1.70731711388,2.98780488968,41.5243911743,1.0,0.0,0.0,0.0,1.0,0.0,0.0,0.0,1.0,0.76614453125,-4.01268198242,-3.95522114258,1.0,0.0,0.0,0.0,1.0,0.0,0.0,0.0,1.0
1463082682473135887,345,1463082682313878593,,4.58590555191,-6.2847442627,153.506515503,0.0100269997492,1.0,0.0,0.0,0.0,1.0,0.0,0.0,0.0,1.0,-0.18292683363,-9.26829242706,41.4024391174,1.0,0.0,0.0,0.0,1.0,0.0,0.0,0.0,1.0,-1.13006318359,-2.2170307373,-8.56645412456,1.0,0.0,0.0,0.0,1.0,0.0,0.0,0.0,1.0
1463082682473199741,346,1463082682323907532,,4.53741598129,-6.2326169014,153.761306763,0.0100159998983,1.0,0.0,0.0,0.0,1.0,0.0,0.0,0.0,1.0,2.13414645195,1.2195122242,36.2804908752,1.0,0.0,0.0,0.0,1.0,0.0,0.0,0.0,1.0,0.316034619141,0.339976635742,-7.52737001953,1.0,0.0,0.0,0.0,1.0,0.0,0.0,0.0,1.0
1463082682473281303,347,1463082682335185114,,4.48539304733,-6.25392580032,154.02394104,0.0111609995365,1.0,0.0,0.0,0.0,1.0,0.0,0.0,0.0,1.0,6.15853643417,-1.34146344662,34.1463432312,1.0,0.0,0.0,0.0,1.0,0.0,0.0,0.0,1.0,-0.483628735352,1.42215578613,-11.8943938477,1.0,0.0,0.0,0.0,1.0,0.0,0.0,0.0,1.0
1463082682473777500,348,1463082682344067336,,4.55935287476,-6.26668310165,154.179260254,0.00884300004691,1.0,0.0,0.0,0.0,1.0,0.0,0.0,0.0,1.0,8.41463470459,-3.47560977936,29.5121974945,1.0,0.0,0.0,0.0,1.0,0.0,0.0,0.0,1.0,-0.0383072265625,-0.689530078125,-11.2048637695,1.0,0.0,0.0,0.0,1.0,0.0,0.0,0.0,1.0
1463082682473857969,349,1463082682353735078,,4.81569814682,-6.29982566833,154.299102783,0.00997500028461,1.0,0.0,0.0,0.0,1.0,0.0,0.0,0.0,1.0,11.4634151459,1.03658533096,25.182926178,1.0,0.0,0.0,0.0,1.0,0.0,0.0,0.0,1.0,-1.58496149902,-4.04141240234,-12.6413847656,1.0,0.0,0.0,0.0,1.0,0.0,0.0,0.0,1.0
1463082682473903750,350,1463082682363877402,,4.93267965317,-6.21364068985,154.410858154,0.0100889997557,1.0,0.0,0.0,0.0,1.0,0.0,0.0,0.0,1.0,15.0609760284,-0.243902444839,22.3780498505,1.0,0.0,0.0,0.0,1.0,0.0,0.0,0.0,1.0,1.27850368652,0.076614453125,-11.7411649414,1.0,0.0,0.0,0.0,1.0,0.0,0.0,0.0,1.0
1463082682474198958,351,1463082682374203840,,5.00992870331,-6.15964651108,154.534744263,0.0102899996564,1.0,0.0,0.0,0.0,1.0,0.0,0.0,0.0,1.0,17.8658542633,3.10975623131,22.3170719147,1.0,0.0,0.0,0.0,1.0,0.0,0.0,0.0,1.0,-0.076614453125,1.48919343262,-11.7411649414,1.0,0.0,0.0,0.0,1.0,0.0,0.0,0.0,1.0
1463082682474262812,352,1463082682383945644,,5.16418647766,-6.1684422493,154.644866943,0.00976799987257,1.0,0.0,0.0,0.0,1.0,0.0,0.0,0.0,1.0,19.0243911743,2.68292689323,22.3780498505,1.0,0.0,0.0,0.0,1.0,0.0,0.0,0.0,1.0,-1.19231249982,-0.0143652099609,-10.9654436035,1.0,0.0,0.0,0.0,1.0,0.0,0.0,0.0,1.0
1463082682474349895,353,1463082682393915885,,5.3089094162,-6.19783687592,154.774368286,0.00986499991268,1.0,0.0,0.0,0.0,1.0,0.0,0.0,0.0,1.0,19.6951236725,4.2682929039,23.9024391174,1.0,0.0,0.0,0.0,1.0,0.0,0.0,0.0,1.0,-1.86747729492,0.277727392578,-10.8936175537,1.0,0.0,0.0,0.0,1.0,0.0,0.0,0.0,1.0
1463082682474544790,354,1463082682404563000,,5.74093437195,-6.22602939606,154.880340576,0.0103510003537,1.0,0.0,0.0,0.0,1.0,0.0,0.0,0.0,1.0,19.9390239716,2.19512200356,24.1463432312,1.0,0.0,0.0,0.0,1.0,0.0,0.0,0.0,1.0,-1.60890351563,-5.85621726074,-11.8034141846,1.0,0.0,0.0,0.0,1.0,0.0,0.0,0.0,1.0
1463082682477642024,355,1463082682414630897,,6.10207605362,-6.26744365692,155.021133423,0.00999100040644,1.0,0.0,0.0,0.0,1.0,0.0,0.0,0.0,1.0,18.1097564697,1.64634156227,27.682926178,1.0,0.0,0.0,0.0,1.0,0.0,0.0,0.0,1.0,-1.71903679199,-5.11880314941,-11.9279126709,1.0,0.0,0.0,0.0,1.0,0.0,0.0,0.0,1.0
1463082682477707545,356,1463082682426623061,,5.96003341675,-6.11681365967,155.279525757,0.0103169996291,1.0,0.0,0.0,0.0,1.0,0.0,0.0,0.0,1.0,12.1951217651,0.548780500889,33.9634132385,1.0,0.0,0.0,0.0,1.0,0.0,0.0,0.0,1.0,1.87226569824,2.84909997559,-6.90487758789,1.0,0.0,0.0,0.0,1.0,0.0,0.0,0.0,1.0
1463082682477754055,357,1463082682443757871,,6.18074560165,-6.17890930176,155.735122681,0.0164889991283,1.0,0.0,0.0,0.0,1.0,0.0,0.0,0.0,1.0,10.1219511032,-3.29268312454,40.1829299927,1.0,0.0,0.0,0.0,1.0,0.0,0.0,0.0,1.0,-0.138863696289,-1.35032973633,-8.12113203125,1.0,0.0,0.0,0.0,1.0,0.0,0.0,0.0,1.0
1463082682485739091,358,1463082682446520105,,6.15475797653,-6.21261310577,155.895980835,0.00535799982026,1.0,0.0,0.0,0.0,1.0,0.0,0.0,0.0,1.0,6.0365858078,-4.14634132385,41.1585350037,1.0,0.0,0.0,0.0,1.0,0.0,0.0,0.0,1.0,-0.387860668945,0.703895288086,-8.91600698242,1.0,0.0,0.0,0.0,1.0,0.0,0.0,0.0,1.0
1463082682485825966,359,1463082682455171286,,6.11570596695,-6.21717786789,156.125030518,0.0074729998596,1.0,0.0,0.0,0.0,1.0,0.0,0.0,0.0,1.0,7.01219511032,-6.52439069748,41.8902435303,1.0,0.0,0.0,0.0,1.0,0.0,0.0,0.0,1.0,0.857124194336,0.871489404297,-8.39885883931,1.0,0.0,0.0,0.0,1.0,0.0,0.0,0.0,1.0
1463082682485884925,360,1463082682466217932,,6.17390727997,-6.36069440842,156.401702881,0.0100199999288,1.0,0.0,0.0,0.0,1.0,0.0,0.0,0.0,1.0,7.25609779358,-6.89024400711,40.0609741211,1.0,0.0,0.0,0.0,1.0,0.0,0.0,0.0,1.0,-1.16358193377,-0.689530078125,-8.12113203125,1.0,0.0,0.0,0.0,1.0,0.0,0.0,0.0,1.0
1463082682486003101,361,1463082682475032758,,6.22228384018,-6.38433980942,156.647460938,0.0101450001821,1.0,0.0,0.0,0.0,1.0,0.0,0.0,0.0,1.0,8.10975551605,-7.07317113876,36.4634170532,1.0,0.0,0.0,0.0,1.0,0.0,0.0,0.0,1.0,0.488417138672,-0.344765039063,-7.46033237305,1.0,0.0,0.0,0.0,1.0,0.0,0.0,0.0,1.0
1463082682486995912,362,1463082682483793522,,6.24378633499,-6.50151920319,156.851654053,0.00982599984854,1.0,0.0,0.0,0.0,1.0,0.0,0.0,0.0,1.0,7.80487823486,-8.71951198578,32.9268302917,1.0,0.0,0.0,0.0,1.0,0.0,0.0,0.0,1.0,-0.727837304687,0.0,-8.78193168945,1.0,0.0,0.0,0.0,1.0,0.0,0.0,0.0,1.0
1463082682495225896,363,1463082682493831472,,6.28990793228,-6.51096630096,157.024047852,0.0100140003487,1.0,0.0,0.0,0.0,1.0,0.0,0.0,0.0,1.0,7.98780536652,-3.59756112099,29.0243911743,1.0,0.0,0.0,0.0,1.0,0.0,0.0,0.0,1.0,0.100556469727,-0.282515795898,-8.37970522602,1.0,0.0,0.0,0.0,1.0,0.0,0.0,0.0,1.0
1463082682505083793,364,1463082682503593796,,6.33568954468,-6.52096223831,157.151535034,0.0100060002878,1.0,0.0,0.0,0.0,1.0,0.0,0.0,0.0,1.0,8.5365858078,-2.43902444839,24.3292694092,1.0,0.0,0.0,0.0,1.0,0.0,0.0,0.0,1.0,-0.167594116211,-0.138863696289,-9.06923588867,1.0,0.0,0.0,0.0,1.0,0.0,0.0,0.0,1.0
1463082682519219235,365,1463082682513767422,,6.43638563156,-6.53108596802,157.21937561,0.00997900031507,1.0,0.0,0.0,0.0,1.0,0.0,0.0,0.0,1.0,8.35365867615,-2.01219511032,18.9634151459,1.0,0.0,0.0,0.0,1.0,0.0,0.0,0.0,1.0,-0.368707055664,-1.04387185076,-9.85932243652,1.0,0.0,0.0,0.0,1.0,0.0,0.0,0.0,1.0
1463082682526651251,366,1463082682523811049,,6.53739118576,-6.53018474579,157.234237671,0.0100260004401,1.0,0.0,0.0,0.0,1.0,0.0,0.0,0.0,1.0,6.70731735229,-0.18292683363,13.5975618362,1.0,0.0,0.0,0.0,1.0,0.0,0.0,0.0,1.0,-0.660799658203,-1.36469494629,-10.8170031006,1.0,0.0,0.0,0.0,1.0,0.0,0.0,0.0,1.0
1463082682535356234,367,1463082682533735248,,6.60938262939,-6.53401184082,157.218475342,0.00998799968511,1.0,0.0,0.0,0.0,1.0,0.0,0.0,0.0,1.0,4.39024400711,-0.975609779358,10.548781395,1.0,0.0,0.0,0.0,1.0,0.0,0.0,0.0,1.0,-0.646434448242,-1.17315874041,-10.4961800781,1.0,0.0,0.0,0.0,1.0,0.0,0.0,0.0,1.0
1463082682545184080,368,1463082682543621427,,6.65833711624,-6.5082988739,157.199798584,0.0100060002878,1.0,0.0,0.0,0.0,1.0,0.0,0.0,0.0,1.0,2.07317066193,-0.304878056049,10.1829271317,1.0,0.0,0.0,0.0,1.0,0.0,0.0,0.0,1.0,-0.220266552734,-1.14442839355,-10.1753570557,1.0,0.0,0.0,0.0,1.0,0.0,0.0,0.0,1.0
1463082682555220623,369,1463082682553629688,,6.67453432083,-6.48876476288,157.159088135,0.0100010000169,1.0,0.0,0.0,0.0,1.0,0.0,0.0,0.0,1.0,-1.70731711388,-2.07317066193,8.23170757294,1.0,0.0,0.0,0.0,1.0,0.0,0.0,0.0,1.0,-0.0526724365234,-1.24498486328,-10.553640918,1.0,0.0,0.0,0.0,1.0,0.0,0.0,0.0,1.0
1463082682565144926,370,1463082682563682169,,6.6200671196,-6.47170734406,157.13343811,0.0100010000169,1.0,0.0,0.0,0.0,1.0,0.0,0.0,0.0,1.0,-5.30487823486,-2.92682933807,9.45121955872,1.0,0.0,0.0,0.0,1.0,0.0,0.0,0.0,1.0,0.0909796630859,-0.612915625,-10.3573163818,1.0,0.0,0.0,0.0,1.0,0.0,0.0,0.0,1.0
1463082682575784906,371,1463082682574075274,,6.56385421753,-6.49478912354,157.115737915,0.0100079998374,1.0,0.0,0.0,0.0,1.0,0.0,0.0,0.0,1.0,-10.3048782349,-4.93902444839,11.0365858078,1.0,0.0,0.0,0.0,1.0,0.0,0.0,0.0,1.0,-0.268150604204,-1.65678754883,-11.3102086426,1.0,0.0,0.0,0.0,1.0,0.0,0.0,0.0,1.0
1463082682585200408,372,1463082682583728744,,6.37201452255,-6.52450704575,157.142562866,0.00999100040644,1.0,0.0,0.0,0.0,1.0,0.0,0.0,0.0,1.0,-15.0000009537,-6.21951246262,14.6341466904,1.0,0.0,0.0,0.0,1.0,0.0,0.0,0.0,1.0,-0.0574608398438,0.0526724365234,-11.03248125,1.0,0.0,0.0,0.0,1.0,0.0,0.0,0.0,1.0
1463082682595771950,373,1463082682593952891,,6.20501661301,-6.57049131393,157.181564331,0.00999800022691,1.0,0.0,0.0,0.0,1.0,0.0,0.0,0.0,1.0,-15.975610733,-7.80487823486,16.4024391174,1.0,0.0,0.0,0.0,1.0,0.0,0.0,0.0,1.0,-0.0430956298828,-0.61770402832,-10.9702320068,1.0,0.0,0.0,0.0,1.0,0.0,0.0,0.0,1.0
1463082682605195630,374,1463082682603740476,,6.00323820114,-6.60372924805,157.217849731,0.00998099986464,1.0,0.0,0.0,0.0,1.0,0.0,0.0,0.0,1.0,-16.6463413239,-7.43902492523,15.7317075729,1.0,0.0,0.0,0.0,1.0,0.0,0.0,0.0,1.0,0.114921679688,-0.0239420166016,-11.0851536865,1.0,0.0,0.0,0.0,1.0,0.0,0.0,0.0,1.0
1463082682615364308,375,1463082682613855977,,5.82110452652,-6.69247722626,157.248901367,0.0100140003487,1.0,0.0,0.0,0.0,1.0,0.0,0.0,0.0,1.0,-16.4024391174,-11.0365858078,15.7317075729,1.0,0.0,0.0,0.0,1.0,0.0,0.0,0.0,1.0,-0.277727392578,-0.320823022461,-10.912771167,1.0,0.0,0.0,0.0,1.0,0.0,0.0,0.0,1.0
1463082682625399757,376,1463082682623744604,,5.67277765274,-6.76085996628,157.256774902,0.0100010000169,1.0,0.0,0.0,0.0,1.0,0.0,0.0,0.0,1.0,-14.8170728683,-10.1219511032,13.4756097794,1.0,0.0,0.0,0.0,1.0,0.0,0.0,0.0,1.0,-0.129286889648,-0.593762048251,-11.1952869629,1.0,0.0,0.0,0.0,1.0,0.0,0.0,0.0,1.0
1463082682637461504,377,1463082682634949790,,5.51681375504,-6.8532500267,157.253173828,0.0106629999354,1.0,0.0,0.0,0.0,1.0,0.0,0.0,0.0,1.0,-11.8902444839,-11.7073173523,12.1341466904,1.0,0.0,0.0,0.0,1.0,0.0,0.0,0.0,1.0,-0.210689746094,0.00478840332031,-11.03248125,1.0,0.0,0.0,0.0,1.0,0.0,0.0,0.0,1.0
1463082682646318414,378,1463082682644285710,,5.40198040009,-6.94623422623,157.242263794,0.00972000043839,1.0,0.0,0.0,0.0,1.0,0.0,0.0,0.0,1.0,-8.65853691101,-13.2926826477,11.4024391174,1.0,0.0,0.0,0.0,1.0,0.0,0.0,0.0,1.0,-0.110133276367,0.138863696289,-11.2527478027,1.0,0.0,0.0,0.0,1.0,0.0,0.0,0.0,1.0
1463082682655208761,379,1463082682653615327,,5.32844114304,-7.0517873764,157.225341797,0.0096110003069,1.0,0.0,0.0,0.0,1.0,0.0,0.0,0.0,1.0,-5.24390268326,-12.4390249252,10.7317075729,1.0,0.0,0.0,0.0,1.0,0.0,0.0,0.0,1.0,-0.598550451572,0.0287304199219,-11.3389390625,1.0,0.0,0.0,0.0,1.0,0.0,0.0,0.0,1.0
1463082682665245460,380,1463082682663626037,,5.27325057983,-7.13696718216,157.197418213,0.0100050000474,1.0,0.0,0.0,0.0,1.0,0.0,0.0,0.0,1.0,-2.37804889679,-11.0975618362,9.45121955872,1.0,0.0,0.0,0.0,1.0,0.0,0.0,0.0,1.0,-0.426167895508,0.225054956055,-11.7267997314,1.0,0.0,0.0,0.0,1.0,0.0,0.0,0.0,1.0
1463082682675831690,381,1463082682673714402,,5.23938941956,-7.21399974823,157.163024902,0.00999599974602,1.0,0.0,0.0,0.0,1.0,0.0,0.0,0.0,1.0,1.58536589146,-10.3658542633,8.47560977936,1.0,0.0,0.0,0.0,1.0,0.0,0.0,0.0,1.0,-0.421379492187,0.612915625,-11.2335941895,1.0,0.0,0.0,0.0,1.0,0.0,0.0,0.0,1.0
1463082682685819743,382,1463082682683769331,,5.26647663116,-7.26768398285,157.119384766,0.0101389996707,1.0,0.0,0.0,0.0,1.0,0.0,0.0,0.0,1.0,6.21951246262,-8.04878044128,7.56097555161,1.0,0.0,0.0,0.0,1.0,0.0,0.0,0.0,1.0,-0.430956298828,0.349553442383,-11.0995188965,1.0,0.0,0.0,0.0,1.0,0.0,0.0,0.0,1.0
1463082682695836599,383,1463082682694069519,,5.35611581802,-7.28796100616,157.067367554,0.0103219999,1.0,0.0,0.0,0.0,1.0,0.0,0.0,0.0,1.0,11.0365858078,-6.46341466904,6.82926845551,1.0,0.0,0.0,0.0,1.0,0.0,0.0,0.0,1.0,-0.110133276367,0.119710083008,-10.7356002441,1.0,0.0,0.0,0.0,1.0,0.0,0.0,0.0,1.0
1463082682705354445,384,1463082682703742677,,5.46815729141,-7.27643108368,157.022537231,0.00955499988049,1.0,0.0,0.0,0.0,1.0,0.0,0.0,0.0,1.0,14.9390249252,-4.51219558716,6.89024400711,1.0,0.0,0.0,0.0,1.0,0.0,0.0,0.0,1.0,0.119710083008,0.253785375977,-10.5009684814,1.0,0.0,0.0,0.0,1.0,0.0,0.0,0.0,1.0
1463082682715408852,385,1463082682713733491,,5.62306022644,-7.25617647171,157.002059937,0.009990000166,1.0,0.0,0.0,0.0,1.0,0.0,0.0,0.0,1.0,17.8658542633,-2.80487799644,9.51219558716,1.0,0.0,0.0,0.0,1.0,0.0,0.0,0.0,1.0,0.0,0.00957680664062,-10.4674496582,1.0,0.0,0.0,0.0,1.0,0.0,0.0,0.0,1.0
1463082682726082009,386,1463082682723884877,,5.78605365753,-7.26038694382,157.022735596,0.0100039998069,1.0,0.0,0.0,0.0,1.0,0.0,0.0,0.0,1.0,19.2682914734,-2.19512200356,13.5365858078,1.0,0.0,0.0,0.0,1.0,0.0,0.0,0.0,1.0,-0.497993945312,0.0,-10.6302553711,1.0,0.0,0.0,0.0,1.0,0.0,0.0,0.0,1.0
1463082682736268864,387,1463082682733746994,,5.94667863846,-7.21115493774,157.070449829,0.0100969998166,1.0,0.0,0.0,0.0,1.0,0.0,0.0,0.0,1.0,17.6829280853,-2.43902444839,16.4024391174,1.0,0.0,0.0,0.0,1.0,0.0,0.0,0.0,1.0,0.670376464844,-0.354341845703,-11.765106958,1.0,0.0,0.0,0.0,1.0,0.0,0.0,0.0,1.0
1463082682748310611,388,1463082682744027547,,6.1403632164,-7.14732980728,157.11315918,0.00989800039679,1.0,0.0,0.0,0.0,1.0,0.0,0.0,0.0,1.0,15.0609760284,6.09756088257,15.9146347046,1.0,0.0,0.0,0.0,1.0,0.0,0.0,0.0,1.0,-0.866701000977,-1.87705410156,-12.9478425781,1.0,0.0,0.0,0.0,1.0,0.0,0.0,0.0,1.0
1463082682756111377,389,1463082682753598570,,6.21846961975,-6.97728300095,157.221313477,0.0100039998069,1.0,0.0,0.0,0.0,1.0,0.0,0.0,0.0,1.0,16.2804889679,7.86585378647,20.6097564697,1.0,0.0,0.0,0.0,1.0,0.0,0.0,0.0,1.0,1.26892687988,0.876277807617,-12.2104284668,1.0,0.0,0.0,0.0,1.0,0.0,0.0,0.0,1.0
1463082682766632398,390,1463082682763869383,,6.3101849556,-6.93088960648,157.381607056,0.010006999597,1.0,0.0,0.0,0.0,1.0,0.0,0.0,0.0,1.0,12.6219520569,5.48780488968,26.7682933807,1.0,0.0,0.0,0.0,1.0,0.0,0.0,0.0,1.0,-0.732625708008,-0.373495458984,-11.8369330078,1.0,0.0,0.0,0.0,1.0,0.0,0.0,0.0,1.0
1463082682777159461,391,1463082682774059519,,6.41731548309,-6.87931060791,157.538803101,0.00999800022691,1.0,0.0,0.0,0.0,1.0,0.0,0.0,0.0,1.0,10.6707315445,5.60975599289,26.8902454376,1.0,0.0,0.0,0.0,1.0,0.0,0.0,0.0,1.0,-0.732625708008,-1.29286889648,-13.603853833,1.0,0.0,0.0,0.0,1.0,0.0,0.0,0.0,1.0
1463082682786123090,392,1463082682783644761,,6.55020809174,-6.7562251091,157.681427002,0.009990000166,1.0,0.0,0.0,0.0,1.0,0.0,0.0,0.0,1.0,10.0,7.50000047684,25.6097564697,1.0,0.0,0.0,0.0,1.0,0.0,0.0,0.0,1.0,0.407014282227,-1.56101948242,-10.2519715088,1.0,0.0,0.0,0.0,1.0,0.0,0.0,0.0,1.0
1463082682795881039,393,1463082682793755679,,6.53214454651,-6.6805934906,157.823944092,0.010006999597,1.0,0.0,0.0,0.0,1.0,0.0,0.0,0.0,1.0,7.98780536652,6.7682929039,24.0853652954,1.0,0.0,0.0,0.0,1.0,0.0,0.0,0.0,1.0,-0.330399829102,0.861912597656,-10.6158901611,1.0,0.0,0.0,0.0,1.0,0.0,0.0,0.0,1.0
1463082682806034353,394,1463082682803766701,,6.61133337021,-6.61709737778,157.953887939,0.0099950004369,1.0,0.0,0.0,0.0,1.0,0.0,0.0,0.0,1.0,8.29268264771,-1.15853655338,24.8780498505,1.0,0.0,0.0,0.0,1.0,0.0,0.0,0.0,1.0,0.991199487305,-0.938527050781,-11.0995188965,1.0,0.0,0.0,0.0,1.0,0.0,0.0,0.0,1.0
1463082682816280687,395,1463082682813759338,,6.53604984283,-6.52483844757,158.056533813,0.0100039998069,1.0,0.0,0.0,0.0,1.0,0.0,0.0,0.0,1.0,6.28048801422,2.56097555161,20.1219520569,1.0,0.0,0.0,0.0,1.0,0.0,0.0,0.0,1.0,0.660799658203,1.5322890625,-9.30386706685,1.0,0.0,0.0,0.0,1.0,0.0,0.0,0.0,1.0
1463082682826644365,396,1463082682823695516,,6.71127414703,-6.53963279724,158.102859497,0.0100290002301,1.0,0.0,0.0,0.0,1.0,0.0,0.0,0.0,1.0,5.79268312454,-1.8902438879,17.9268302917,1.0,0.0,0.0,0.0,1.0,0.0,0.0,0.0,1.0,-0.531512805087,-3.10288535156,-10.7068698242,1.0,0.0,0.0,0.0,1.0,0.0,0.0,0.0,1.0
1463082682836438408,397,1463082682833846747,,6.68569755554,-6.4724946022,158.128295898,0.00996099971235,1.0,0.0,0.0,0.0,1.0,0.0,0.0,0.0,1.0,3.71951246262,-0.914634168148,13.658536911,1.0,0.0,0.0,0.0,1.0,0.0,0.0,0.0,1.0,0.751779321289,0.416591088867,-10.405200415,1.0,0.0,0.0,0.0,1.0,0.0,0.0,0.0,1.0
1463082682847600522,398,1463082682844393705,,6.6943526268,-6.45183706284,158.133453369,0.0102190002799,1.0,0.0,0.0,0.0,1.0,0.0,0.0,0.0,1.0,2.98780488968,-2.92682933807,12.3170728683,1.0,0.0,0.0,0.0,1.0,0.0,0.0,0.0,1.0,0.272938989258,-0.387860668945,-12.990938208,1.0,0.0,0.0,0.0,1.0,0.0,0.0,0.0,1.0
1463082682856203213,399,1463082682853741604,,6.67980098724,-6.46228313446,158.105102539,0.00985599961132,1.0,0.0,0.0,0.0,1.0,0.0,0.0,0.0,1.0,3.96341490746,0.12195122242,8.17073154449,1.0,0.0,0.0,0.0,1.0,0.0,0.0,0.0,1.0,-0.732625708008,0.282515795898,-7.72369455566,1.0,0.0,0.0,0.0,1.0,0.0,0.0,0.0,1.0
1463082682867073713,400,1463082682863720386,,6.69568157196,-6.46394014359,158.035552979,0.00999299995601,1.0,0.0,0.0,0.0,1.0,0.0,0.0,0.0,1.0,1.2195122242,2.43902444839,4.45121955872,1.0,0.0,0.0,0.0,1.0,0.0,0.0,0.0,1.0,-1.23540805664,-0.565031591797,-9.55765361187,1.0,0.0,0.0,0.0,1.0,0.0,0.0,0.0,1.0
1463082682876913329,401,1463082682873801096,,6.73821687698,-6.39097547531,157.96043396,0.0100870002061,1.0,0.0,0.0,0.0,1.0,0.0,0.0,0.0,1.0,2.5,6.28048801422,3.65853667259,1.0,0.0,0.0,0.0,1.0,0.0,0.0,0.0,1.0,-0.588973571866,-0.727837304687,-8.76277807617,1.0,0.0,0.0,0.0,1.0,0.0,0.0,0.0,1.0
1463082682886742685,402,1463082682883666181,,6.71228456497,-6.37883615494,157.87689209,0.00985000003129,1.0,0.0,0.0,0.0,1.0,0.0,0.0,0.0,1.0,1.2804877758,7.01219511032,1.8902438879,1.0,0.0,0.0,0.0,1.0,0.0,0.0,0.0,1.0,-1.45088620605,0.162805712891,-7.6614453125,1.0,0.0,0.0,0.0,1.0,0.0,0.0,0.0,1.0
1463082682896315739,403,1463082682893763557,,6.70590305328,-6.50031375885,157.777862549,0.0100010000169,1.0,0.0,0.0,0.0,1.0,0.0,0.0,0.0,1.0,2.5,10.6097564697,0.12195122242,1.0,0.0,0.0,0.0,1.0,0.0,0.0,0.0,1.0,-6.68939943848,0.316034619141,-12.27267771,1.0,0.0,0.0,0.0,1.0,0.0,0.0,0.0,1.0
1463082682905318014,404,1463082682903655413,,6.74700880051,-6.41755533218,157.699874878,0.0100060002878,1.0,0.0,0.0,0.0,1.0,0.0,0.0,0.0,1.0,1.52439022064,10.8536586761,2.86585378647,1.0,0.0,0.0,0.0,1.0,0.0,0.0,0.0,1.0,-1.65199914551,-1.22104284668,-12.4785790527,1.0,0.0,0.0,0.0,1.0,0.0,0.0,0.0,1.0
1463082682916148305,405,1463082682913676018,,6.73838949203,-6.25279474258,157.615158081,0.0100039998069,1.0,0.0,0.0,0.0,1.0,0.0,0.0,0.0,1.0,2.80487799644,15.548781395,0.914634168148,1.0,0.0,0.0,0.0,1.0,0.0,0.0,0.0,1.0,-0.737414111328,0.148440512063,-10.4818148682,1.0,0.0,0.0,0.0,1.0,0.0,0.0,0.0,1.0
1463082682926112400,406,1463082682923642092,,6.84261131287,-6.04475545883,157.547180176,0.00997800007463,1.0,0.0,0.0,0.0,1.0,0.0,0.0,0.0,1.0,6.34146356583,14.3292694092,3.59756112099,1.0,0.0,0.0,0.0,1.0,0.0,0.0,0.0,1.0,0.469263525391,-1.64242233887,-12.765883252,1.0,0.0,0.0,0.0,1.0,0.0,0.0,0.0,1.0
1463082682936384724,407,1463082682933878322,,6.74636507034,-5.91181278229,157.476577759,0.0100159998983,1.0,0.0,0.0,0.0,1.0,0.0,0.0,0.0,1.0,3.35365867615,13.3536586761,1.64634156227,1.0,0.0,0.0,0.0,1.0,0.0,0.0,0.0,1.0,-1.00077629395,2.31758720703,-12.8377093018,1.0,0.0,0.0,0.0,1.0,0.0,0.0,0.0,1.0
1463082682946132569,408,1463082682943686585,,6.78801345825,-5.58200311661,157.425933838,0.0100079998374,1.0,0.0,0.0,0.0,1.0,0.0,0.0,0.0,1.0,4.81707286835,16.2804889679,4.63414621353,1.0,0.0,0.0,0.0,1.0,0.0,0.0,0.0,1.0,2.37983659633,-0.46447512207,-10.1705686523,1.0,0.0,0.0,0.0,1.0,0.0,0.0,0.0,1.0
1463082682955932134,409,1463082682953690680,,6.74980354309,-5.43573904037,157.389175415,0.00999999977648,1.0,0.0,0.0,0.0,1.0,0.0,0.0,0.0,1.0,6.52439069748,11.9512195587,5.60975599289,1.0,0.0,0.0,0.0,1.0,0.0,0.0,0.0,1.0,-0.134075302102,1.23061965332,-9.94551369629,1.0,0.0,0.0,0.0,1.0,0.0,0.0,0.0,1.0
1463082682967007164,410,1463082682963794254,,6.84968185425,-5.21411180496,157.35786438,0.0100029995665,1.0,0.0,0.0,0.0,1.0,0.0,0.0,0.0,1.0,6.64634132385,11.9512195587,7.50000047684,1.0,0.0,0.0,0.0,1.0,0.0,0.0,0.0,1.0,1.30244570312,-1.26892687988,-10.3190091553,1.0,0.0,0.0,0.0,1.0,0.0,0.0,0.0,1.0
1463082682977274332,411,1463082682974026005,,6.99398899078,-5.44383859634,157.307037354,0.0100640002638,1.0,0.0,0.0,0.0,1.0,0.0,0.0,0.0,1.0,7.68292665482,5.73170757294,6.64634132385,1.0,0.0,0.0,0.0,1.0,0.0,0.0,0.0,1.0,-3.7493197998,-1.09175595703,-5.63595070801,1.0,0.0,0.0,0.0,1.0,0.0,0.0,0.0,1.0
1463082682987000615,412,1463082682983756142,,7.12364816666,-5.19191598892,157.248275757,0.00992199964821,1.0,0.0,0.0,0.0,1.0,0.0,0.0,0.0,1.0,3.7804877758,5.79268312454,5.97560977936,1.0,0.0,0.0,0.0,1.0,0.0,0.0,0.0,1.0,3.05021291504,-2.31758720703,-9.79707319336,1.0,0.0,0.0,0.0,1.0,0.0,0.0,0.0,1.0
1463082682996946898,413,1463082682993748206,,7.21931791306,-5.23697948456,157.216766357,0.0100159998983,1.0,0.0,0.0,0.0,1.0,0.0,0.0,0.0,1.0,1.8292683363,-2.31707310677,9.63414573669,1.0,0.0,0.0,0.0,1.0,0.0,0.0,0.0,1.0,-0.976834277344,-2.25533796387,-10.7403886475,1.0,0.0,0.0,0.0,1.0,0.0,0.0,0.0,1.0
1463082683006031151,414,1463082683003729749,,7.00359916687,-5.29249858856,157.180603027,0.00997299980372,1.0,0.0,0.0,0.0,1.0,0.0,0.0,0.0,1.0,-1.34146344662,-5.54878091812,6.95121955872,1.0,0.0,0.0,0.0,1.0,0.0,0.0,0.0,1.0,-0.526724328702,3.14598098145,-10.0939541992,1.0,0.0,0.0,0.0,1.0,0.0,0.0,0.0,1.0
1463082683016915296,415,1463082683013762490,,6.83662891388,-5.27254533768,157.114257812,0.0100060002878,1.0,0.0,0.0,0.0,1.0,0.0,0.0,0.0,1.0,-0.365853667259,-9.51219558716,4.75609779358,1.0,0.0,0.0,0.0,1.0,0.0,0.0,0.0,1.0,0.679953271484,1.08217922346,-4.44363828125,1.0,0.0,0.0,0.0,1.0,0.0,0.0,0.0,1.0
1463082683027213401,416,1463082683023764970,,6.92289590836,-5.42288351059,156.945480347,0.0100279999897,1.0,0.0,0.0,0.0,1.0,0.0,0.0,0.0,1.0,-0.914634168148,-16.0365848541,-2.31707310677,1.0,0.0,0.0,0.0,1.0,0.0,0.0,0.0,1.0,-0.76135612793,-2.64798703613,-12.3588689697,1.0,0.0,0.0,0.0,1.0,0.0,0.0,0.0,1.0
1463082683036362185,417,1463082683033814899,,7.00382900238,-5.35026550293,156.742202759,0.00998799968511,1.0,0.0,0.0,0.0,1.0,0.0,0.0,0.0,1.0,-1.2804877758,-13.4756097794,-6.15853643417,1.0,0.0,0.0,0.0,1.0,0.0,0.0,0.0,1.0,2.40377861293,-1.68551796875,-8.01099875488,1.0,0.0,0.0,0.0,1.0,0.0,0.0,0.0,1.0
1463082683046328208,418,1463082683043776077,,7.02054548264,-5.51974725723,156.495498657,0.0100159998983,1.0,0.0,0.0,0.0,1.0,0.0,0.0,0.0,1.0,-3.41463422775,-16.4634151459,-10.4878053665,1.0,0.0,0.0,0.0,1.0,0.0,0.0,0.0,1.0,-1.06302561017,-1.20188930646,-9.84016882324,1.0,0.0,0.0,0.0,1.0,0.0,0.0,0.0,1.0
1463082683055924074,419,1463082683053665485,,6.94418764114,-5.61342716217,156.221755981,0.00997900031507,1.0,0.0,0.0,0.0,1.0,0.0,0.0,0.0,1.0,-7.56097555161,-16.7682933807,-13.7804880142,1.0,0.0,0.0,0.0,1.0,0.0,0.0,0.0,1.0,0.215478149414,-0.229843359375,-9.58638403179,1.0,0.0,0.0,0.0,1.0,0.0,0.0,0.0,1.0
1463082683066115982,420,1463082683063643330,,6.88417434692,-5.76747369766,155.947067261,0.009990000166,1.0,0.0,0.0,0.0,1.0,0.0,0.0,0.0,1.0,-13.2926826477,-15.548781395,-13.2926826477,1.0,0.0,0.0,0.0,1.0,0.0,0.0,0.0,1.0,-1.14442839355,-1.63284553223,-10.6158901611,1.0,0.0,0.0,0.0,1.0,0.0,0.0,0.0,1.0
1463082683076287420,421,1463082683073717477,,6.58500671387,-5.76971340179,155.673217773,0.0100239999592,1.0,0.0,0.0,0.0,1.0,0.0,0.0,0.0,1.0,-18.5365848541,-13.7195129395,-15.2439022064,1.0,0.0,0.0,0.0,1.0,0.0,0.0,0.0,1.0,0.847547387695,1.1875240965,-6.29675036621,1.0,0.0,0.0,0.0,1.0,0.0,0.0,0.0,1.0
1463082683086124328,422,1463082683083609906,,6.29059648514,-5.96663427353,155.369308472,0.00996800046414,1.0,0.0,0.0,0.0,1.0,0.0,0.0,0.0,1.0,-24.5121955872,-19.3902435303,-17.2560977936,1.0,0.0,0.0,0.0,1.0,0.0,0.0,0.0,1.0,-1.21625444336,0.823605371094,-10.0412817627,1.0,0.0,0.0,0.0,1.0,0.0,0.0,0.0,1.0
1463082683096440454,423,1463082683093872698,,6.02983903885,-5.94674396515,155.022613525,0.0101570002735,1.0,0.0,0.0,0.0,1.0,0.0,0.0,0.0,1.0,-31.8292694092,-9.45121955872,-20.9146347046,1.0,0.0,0.0,0.0,1.0,0.0,0.0,0.0,1.0,0.861912597656,-1.13963999023,-10.6829278076,1.0,0.0,0.0,0.0,1.0,0.0,0.0,0.0,1.0
1463082683105258249,424,1463082683103621638,,5.82560682297,-5.95491170883,154.687301636,0.00984700024128,1.0,0.0,0.0,0.0,1.0,0.0,0.0,0.0,1.0,-35.7317085266,-11.8292684555,-19.6951236725,1.0,0.0,0.0,0.0,1.0,0.0,0.0,0.0,1.0,0.823605371094,-2.67671745605,-10.0795889893,1.0,0.0,0.0,0.0,1.0,0.0,0.0,0.0,1.0
1463082683115281250,425,1463082683113654274,,5.58203840256,-5.96221256256,154.33744812,0.0100020002574,1.0,0.0,0.0,0.0,1.0,0.0,0.0,0.0,1.0,-42.5609779358,-9.63414573669,-20.5487823486,1.0,0.0,0.0,0.0,1.0,0.0,0.0,0.0,1.0,0.526724328702,-3.71580097656,-11.5161099854,1.0,0.0,0.0,0.0,1.0,0.0,0.0,0.0,1.0
1463082683127008259,426,1463082683123732067,,5.2059211731,-6.01079273224,154.015274048,0.0100090000778,1.0,0.0,0.0,0.0,1.0,0.0,0.0,0.0,1.0,-46.5243911743,-10.2439022064,-18.7195110321,1.0,0.0,0.0,0.0,1.0,0.0,0.0,0.0,1.0,-0.215478149414,-2.06859023437,-14.0252333252,1.0,0.0,0.0,0.0,1.0,0.0,0.0,0.0,1.0
1463082683137419332,427,1463082683134151526,,4.72108459473,-6.09872865677,153.719451904,0.0100619997829,1.0,0.0,0.0,0.0,1.0,0.0,0.0,0.0,1.0,-50.4878082275,-10.3048782349,-16.7073173523,1.0,0.0,0.0,0.0,1.0,0.0,0.0,0.0,1.0,-0.952892260742,-0.325611425781,-12.4594254395,1.0,0.0,0.0,0.0,1.0,0.0,0.0,0.0,1.0
1463082683147171761,428,1463082683143690726,,4.2611117363,-6.09560394287,153.449966431,0.00992699991912,1.0,0.0,0.0,0.0,1.0,0.0,0.0,0.0,1.0,-53.5365867615,-8.23170757294,-14.1463422775,1.0,0.0,0.0,0.0,1.0,0.0,0.0,0.0,1.0,0.574608398438,-1.15879360352,-10.6254669678,1.0,0.0,0.0,0.0,1.0,0.0,0.0,0.0,1.0
1463082683156091119,429,1463082683153758415,,3.84268569946,-6.14437913895,153.183120728,0.0099950004369,1.0,0.0,0.0,0.0,1.0,0.0,0.0,0.0,1.0,-51.9512214661,-9.02439117432,-13.4146347046,1.0,0.0,0.0,0.0,1.0,0.0,0.0,0.0,1.0,-0.229843359375,-1.78607443848,-11.6166664551,1.0,0.0,0.0,0.0,1.0,0.0,0.0,0.0,1.0
1463082683165983339,430,1463082683163686729,,3.1240978241,-6.31346893311,152.986022949,0.0100109996274,1.0,0.0,0.0,0.0,1.0,0.0,0.0,0.0,1.0,-52.8658561707,-9.08536529541,-9.69512176514,1.0,0.0,0.0,0.0,1.0,0.0,0.0,0.0,1.0,-2.17393510742,3.73974299316,-9.31823227681,1.0,0.0,0.0,0.0,1.0,0.0,0.0,0.0,1.0
1463082683176883578,431,1463082683173626866,,2.59403777122,-6.30076408386,152.756271362,0.0100079998374,1.0,0.0,0.0,0.0,1.0,0.0,0.0,0.0,1.0,-50.7926826477,-6.34146356583,-11.341463089,1.0,0.0,0.0,0.0,1.0,0.0,0.0,0.0,1.0,0.440533105469,0.699106884766,-8.72925925293,1.0,0.0,0.0,0.0,1.0,0.0,0.0,0.0,1.0
1463082683186748142,432,1463082683183660127,,2.29400420189,-6.49702882767,152.544021606,0.00997999962419,1.0,0.0,0.0,0.0,1.0,0.0,0.0,0.0,1.0,-45.6707344055,-12.8658542633,-7.50000047684,1.0,0.0,0.0,0.0,1.0,0.0,0.0,0.0,1.0,-2.01591779785,-2.33674067418,-9.78749638672,1.0,0.0,0.0,0.0,1.0,0.0,0.0,0.0,1.0
1463082683196868643,433,1463082683193773806,,1.86399567127,-6.49689865112,152.296875,0.0100109996274,1.0,0.0,0.0,0.0,1.0,0.0,0.0,0.0,1.0,-41.4024391174,-5.79268312454,-13.1707324982,1.0,0.0,0.0,0.0,1.0,0.0,0.0,0.0,1.0,0.225054956055,1.01992990723,-11.5448404053,1.0,0.0,0.0,0.0,1.0,0.0,0.0,0.0,1.0
1463082683205912636,434,1463082683203660818,,1.47803211212,-6.59407329559,152.057800293,0.0099950004369,1.0,0.0,0.0,0.0,1.0,0.0,0.0,0.0,1.0,-34.4512214661,-9.02439117432,-12.6829271317,1.0,0.0,0.0,0.0,1.0,0.0,0.0,0.0,1.0,-0.986411083984,1.51792385254,-10.6254669678,1.0,0.0,0.0,0.0,1.0,0.0,0.0,0.0,1.0
1463082683215866523,435,1463082683213598767,,1.06729340553,-6.69809579849,151.855194092,0.0100020002574,1.0,0.0,0.0,0.0,1.0,0.0,0.0,0.0,1.0,-25.3658542633,-12.4390249252,-10.3658542633,1.0,0.0,0.0,0.0,1.0,0.0,0.0,0.0,1.0,-0.320823022461,3.21301862793,-8.68137521973,1.0,0.0,0.0,0.0,1.0,0.0,0.0,0.0,1.0
1463082683226878116,436,1463082683223698695,,0.728008389473,-6.75446557999,151.625030518,0.0100379996002,1.0,0.0,0.0,0.0,1.0,0.0,0.0,0.0,1.0,-20.4268302917,-7.31707334518,-12.9878053665,1.0,0.0,0.0,0.0,1.0,0.0,0.0,0.0,1.0,-0.421379492187,3.20344182129,-9.53371159526,1.0,0.0,0.0,0.0,1.0,0.0,0.0,0.0,1.0
1463082683236980024,437,1463082683233838207,,0.651342332363,-6.86012077332,151.419845581,0.00995900016278,1.0,0.0,0.0,0.0,1.0,0.0,0.0,0.0,1.0,-8.71951198578,-10.3048782349,-8.96341514587,1.0,0.0,0.0,0.0,1.0,0.0,0.0,0.0,1.0,-0.804451757813,0.61770402832,-9.73961235352,1.0,0.0,0.0,0.0,1.0,0.0,0.0,0.0,1.0
1463082683246717453,438,1463082683243600219,,0.598680138588,-6.91452312469,151.210601807,0.0100159998983,1.0,0.0,0.0,0.0,1.0,0.0,0.0,0.0,1.0,-0.548780500889,-7.68292665482,-10.0,1.0,0.0,0.0,0.0,1.0,0.0,0.0,0.0,1.0,-0.402225878906,1.81001645508,-10.6637741943,1.0,0.0,0.0,0.0,1.0,0.0,0.0,0.0,1.0
1463082683255999466,439,1463082683253650147,,0.738790929317,-6.98113536835,150.995071411,0.00999999977648,1.0,0.0,0.0,0.0,1.0,0.0,0.0,0.0,1.0,6.70731735229,-7.01219511032,-9.20731735229,1.0,0.0,0.0,0.0,1.0,0.0,0.0,0.0,1.0,-1.00077629395,-0.593762048251,-13.5463929932,1.0,0.0,0.0,0.0,1.0,0.0,0.0,0.0,1.0
1463082683266498924,440,1463082683263686013,,0.940521717072,-7.04580354691,150.775421143,0.00999599974602,1.0,0.0,0.0,0.0,1.0,0.0,0.0,0.0,1.0,12.1951217651,-7.50000047684,-9.51219558716,1.0,0.0,0.0,0.0,1.0,0.0,0.0,0.0,1.0,-0.699106884766,-0.622492431641,-10.8888291504,1.0,0.0,0.0,0.0,1.0,0.0,0.0,0.0,1.0
1463082683276863019,441,1463082683273649223,,1.11170136929,-7.13807296753,150.587097168,0.00999400019646,1.0,0.0,0.0,0.0,1.0,0.0,0.0,0.0,1.0,12.1341466904,-7.37804937363,-6.70731735229,1.0,0.0,0.0,0.0,1.0,0.0,0.0,0.0,1.0,-1.26892687988,-0.148440512063,-10.8409451172,1.0,0.0,0.0,0.0,1.0,0.0,0.0,0.0,1.0
1463082683285904668,442,1463082683283569204,,1.31245231628,-7.19167613983,150.446029663,0.00998899992555,1.0,0.0,0.0,0.0,1.0,0.0,0.0,0.0,1.0,12.7439022064,-7.80487823486,-1.64634156227,1.0,0.0,0.0,0.0,1.0,0.0,0.0,0.0,1.0,-0.483628735352,-0.804451757813,-11.6789156982,1.0,0.0,0.0,0.0,1.0,0.0,0.0,0.0,1.0
1463082683297294802,443,1463082683293653924,,1.46392023563,-7.24292945862,150.327636719,0.00999999977648,1.0,0.0,0.0,0.0,1.0,0.0,0.0,0.0,1.0,11.7073173523,-10.548781395,0.243902444839,1.0,0.0,0.0,0.0,1.0,0.0,0.0,0.0,1.0,0.114921679688,-0.0814028564453,-10.898405957,1.0,0.0,0.0,0.0,1.0,0.0,0.0,0.0,1.0
1463082683306108222,444,1463082683303583331,,1.62560451031,-7.31989097595,150.231750488,0.0100079998374,1.0,0.0,0.0,0.0,1.0,0.0,0.0,0.0,1.0,11.5243911743,-12.2560977936,2.74390244484,1.0,0.0,0.0,0.0,1.0,0.0,0.0,0.0,1.0,-0.0526724365234,-0.378283862305,-10.4578728516,1.0,0.0,0.0,0.0,1.0,0.0,0.0,0.0,1.0
1463082683319443248,445,1463082683313650135,,1.77377736568,-7.38971853256,150.143035889,0.0100050000474,1.0,0.0,0.0,0.0,1.0,0.0,0.0,0.0,1.0,11.1585359573,-11.5853662491,3.35365867615,1.0,0.0,0.0,0.0,1.0,0.0,0.0,0.0,1.0,-0.067037651051,-0.272938989258,-11.8800286377,1.0,0.0,0.0,0.0,1.0,0.0,0.0,0.0,1.0
1463082683326475630,446,1463082683323635636,,1.91840970516,-7.49817562103,150.029953003,0.00998799968511,1.0,0.0,0.0,0.0,1.0,0.0,0.0,0.0,1.0,11.4024391174,-11.4634151459,0.853658556938,1.0,0.0,0.0,0.0,1.0,0.0,0.0,0.0,1.0,-0.77093293457,-0.0909796630859,-9.66778688823,1.0,0.0,0.0,0.0,1.0,0.0,0.0,0.0,1.0
1463082683336241966,447,1463082683334499157,,2.08042216301,-7.54173612595,149.869476318,0.0105670001358,1.0,0.0,0.0,0.0,1.0,0.0,0.0,0.0,1.0,11.4024391174,-8.5365858078,-2.98780488968,1.0,0.0,0.0,0.0,1.0,0.0,0.0,0.0,1.0,-0.15801730957,-0.167594116211,-9.34217429341,1.0,0.0,0.0,0.0,1.0,0.0,0.0,0.0,1.0
1463082683346361321,448,1463082683344534710,,2.2075741291,-7.57122087479,149.679931641,0.00944199971855,1.0,0.0,0.0,0.0,1.0,0.0,0.0,0.0,1.0,11.8902444839,-5.48780488968,-8.29268264771,1.0,0.0,0.0,0.0,1.0,0.0,0.0,0.0,1.0,-0.555454785156,0.316034619141,-9.60074924175,1.0,0.0,0.0,0.0,1.0,0.0,0.0,0.0,1.0
1463082683356335312,449,1463082683353679484,,2.39584183693,-7.56750965118,149.424285889,0.0100250001997,1.0,0.0,0.0,0.0,1.0,0.0,0.0,0.0,1.0,12.8048782349,-3.17073178291,-13.2317075729,1.0,0.0,0.0,0.0,1.0,0.0,0.0,0.0,1.0,-0.421379492187,-0.349553442383,-9.95509050293,1.0,0.0,0.0,0.0,1.0,0.0,0.0,0.0,1.0
1463082683366188001,450,1463082683363652641,,2.60101938248,-7.52585506439,149.116958618,0.00997800007463,1.0,0.0,0.0,0.0,1.0,0.0,0.0,0.0,1.0,13.3536586761,0.548780500889,-18.5365848541,1.0,0.0,0.0,0.0,1.0,0.0,0.0,0.0,1.0,-0.46447512207,-0.483628735352,-10.0221281494,1.0,0.0,0.0,0.0,1.0,0.0,0.0,0.0,1.0
1463082683375542827,451,1463082683373805695,,2.84342384338,-7.46588420868,148.750106812,0.0100549999624,1.0,0.0,0.0,0.0,1.0,0.0,0.0,0.0,1.0,14.3902444839,2.98780488968,-24.0243911743,1.0,0.0,0.0,0.0,1.0,0.0,0.0,0.0,1.0,-0.61770402832,-0.814028564453,-9.67736311035,1.0,0.0,0.0,0.0,1.0,0.0,0.0,0.0,1.0
1463082683385462547,452,1463082683383884842,,3.11874914169,-7.38148832321,148.340820312,0.00994700007141,1.0,0.0,0.0,0.0,1.0,0.0,0.0,0.0,1.0,14.1463422775,4.39024400711,-28.2926845551,1.0,0.0,0.0,0.0,1.0,0.0,0.0,0.0,1.0,-0.469263525391,-1.39821376953,-9.48103915874,1.0,0.0,0.0,0.0,1.0,0.0,0.0,0.0,1.0
1463082683395757058,453,1463082683393837322,,3.29118704796,-7.28096723557,147.914230347,0.00999199971557,1.0,0.0,0.0,0.0,1.0,0.0,0.0,0.0,1.0,13.7195129395,6.34146356583,-31.2804889679,1.0,0.0,0.0,0.0,1.0,0.0,0.0,0.0,1.0,-0.545877978516,0.268150604204,-9.08838950195,1.0,0.0,0.0,0.0,1.0,0.0,0.0,0.0,1.0
1463082683405833184,454,1463082683403687511,,3.46645689011,-7.19818353653,147.457702637,0.0100649995729,1.0,0.0,0.0,0.0,1.0,0.0,0.0,0.0,1.0,13.1707324982,5.73170757294,-33.8414649963,1.0,0.0,0.0,0.0,1.0,0.0,0.0,0.0,1.0,-0.818816967773,0.181959326172,-9.62469125835,1.0,0.0,0.0,0.0,1.0,0.0,0.0,0.0,1.0
1463082683416037383,455,1463082683413813064,,3.73335337639,-7.08220386505,146.984115601,0.00994000025094,1.0,0.0,0.0,0.0,1.0,0.0,0.0,0.0,1.0,13.2926826477,4.14634132385,-34.8780479431,1.0,0.0,0.0,0.0,1.0,0.0,0.0,0.0,1.0,0.0143652099609,-1.42694418945,-9.64863327495,1.0,0.0,0.0,0.0,1.0,0.0,0.0,0.0,1.0
1463082683425217105,456,1463082683423628045,,3.89913511276,-6.95488405228,146.520843506,0.0100060002878,1.0,0.0,0.0,0.0,1.0,0.0,0.0,0.0,1.0,10.4878053665,5.42682933807,-34.5731735229,1.0,0.0,0.0,0.0,1.0,0.0,0.0,0.0,1.0,-0.0335188255255,-0.215478149414,-9.38048151997,1.0,0.0,0.0,0.0,1.0,0.0,0.0,0.0,1.0
1463082683435446095,457,1463082683433615370,,4.06463909149,-6.88874769211,146.045181274,0.00997999962419,1.0,0.0,0.0,0.0,1.0,0.0,0.0,0.0,1.0,8.78048801422,-1.70731711388,-35.2439041138,1.0,0.0,0.0,0.0,1.0,0.0,0.0,0.0,1.0,0.124498486328,-0.512359155273,-9.30865547017,1.0,0.0,0.0,0.0,1.0,0.0,0.0,0.0,1.0
1463082683445202222,458,1463082683443615558,,4.20860671997,-6.78121995926,145.582946777,0.00999699998647,1.0,0.0,0.0,0.0,1.0,0.0,0.0,0.0,1.0,7.80487823486,1.76829278469,-34.2073173523,1.0,0.0,0.0,0.0,1.0,0.0,0.0,0.0,1.0,0.229843359375,-0.368707055664,-9.05008227539,1.0,0.0,0.0,0.0,1.0,0.0,0.0,0.0,1.0
1463082683455943920,459,1463082683453605747,,4.37197542191,-6.73722553253,145.105438232,0.0100220004097,1.0,0.0,0.0,0.0,1.0,0.0,0.0,0.0,1.0,7.31707334518,-2.74390244484,-35.0000038147,1.0,0.0,0.0,0.0,1.0,0.0,0.0,0.0,1.0,-0.0861912597656,-0.790086547852,-9.40442353657,1.0,0.0,0.0,0.0,1.0,0.0,0.0,0.0,1.0
1463082683466016973,460,1463082683463763905,,4.5800204277,-6.69725227356,144.601928711,0.009990000166,1.0,0.0,0.0,0.0,1.0,0.0,0.0,0.0,1.0,7.50000047684,-3.41463422775,-37.1951255798,1.0,0.0,0.0,0.0,1.0,0.0,0.0,0.0,1.0,-0.0814028564453,-1.44130939941,-9.00219824219,1.0,0.0,0.0,0.0,1.0,0.0,0.0,0.0,1.0
1463082683475927214,461,1463082683473817010,,4.71708106995,-6.62580251694,144.099227905,0.0100029995665,1.0,0.0,0.0,0.0,1.0,0.0,0.0,0.0,1.0,3.90243911743,-3.71951246262,-37.4390220642,1.0,0.0,0.0,0.0,1.0,0.0,0.0,0.0,1.0,0.440533105469,-0.890643017578,-8.80108530273,1.0,0.0,0.0,0.0,1.0,0.0,0.0,0.0,1.0
1463082683486232715,462,1463082683484031521,,4.81078052521,-6.58918571472,143.596374512,0.0100710000843,1.0,0.0,0.0,0.0,1.0,0.0,0.0,0.0,1.0,0.609756112099,-6.40243911743,-37.0121955872,1.0,0.0,0.0,0.0,1.0,0.0,0.0,0.0,1.0,0.325611425781,-0.790086547852,-9.2655604248,1.0,0.0,0.0,0.0,1.0,0.0,0.0,0.0,1.0
1463082683495418530,463,1463082683493746502,,4.84000825882,-6.56370544434,143.115539551,0.00993300043046,1.0,0.0,0.0,0.0,1.0,0.0,0.0,0.0,1.0,-3.29268312454,-8.17073154449,-35.6097564697,1.0,0.0,0.0,0.0,1.0,0.0,0.0,0.0,1.0,0.421379492187,-0.397437475586,-8.54251210796,1.0,0.0,0.0,0.0,1.0,0.0,0.0,0.0,1.0
1463082683505235022,464,1463082683503652889,,4.84044313431,-6.55353546143,142.640228271,0.0100130001083,1.0,0.0,0.0,0.0,1.0,0.0,0.0,0.0,1.0,-7.25609779358,-8.47560977936,-34.5121955872,1.0,0.0,0.0,0.0,1.0,0.0,0.0,0.0,1.0,0.258573779297,-0.612915625,-8.98783303223,1.0,0.0,0.0,0.0,1.0,0.0,0.0,0.0,1.0
1463082683515456200,465,1463082683513733651,,4.80705881119,-6.56867647171,142.166534424,0.00997599959373,1.0,0.0,0.0,0.0,1.0,0.0,0.0,0.0,1.0,-11.2804880142,-9.93902492523,-34.3292694092,1.0,0.0,0.0,0.0,1.0,0.0,0.0,0.0,1.0,0.0909796630859,-0.703895288086,-8.8633345459,1.0,0.0,0.0,0.0,1.0,0.0,0.0,0.0,1.0
1463082683525257379,466,1463082683523652017,,4.75543928146,-6.58772039413,141.665847778,0.0100100003183,1.0,0.0,0.0,0.0,1.0,0.0,0.0,0.0,1.0,-13.658536911,-9.81707286835,-36.8292694092,1.0,0.0,0.0,0.0,1.0,0.0,0.0,0.0,1.0,-0.0191536132812,-0.77093293457,-9.23204160156,1.0,0.0,0.0,0.0,1.0,0.0,0.0,0.0,1.0
1463082683535284755,467,1463082683533641425,,4.72253990173,-6.61300897598,141.100509644,0.00999400019646,1.0,0.0,0.0,0.0,1.0,0.0,0.0,0.0,1.0,-14.3902444839,-9.87804889679,-43.1097564697,1.0,0.0,0.0,0.0,1.0,0.0,0.0,0.0,1.0,-0.191536132812,-1.04387185076,-9.05008227539,1.0,0.0,0.0,0.0,1.0,0.0,0.0,0.0,1.0
1463082683545561870,468,1463082683543678645,,4.69680023193,-6.63231706619,140.469573975,0.0100039998069,1.0,0.0,0.0,0.0,1.0,0.0,0.0,0.0,1.0,-14.6951217651,-9.32926845551,-49.5731735229,1.0,0.0,0.0,0.0,1.0,0.0,0.0,0.0,1.0,-0.272938989258,-1.10133276367,-9.22725319824,1.0,0.0,0.0,0.0,1.0,0.0,0.0,0.0,1.0
1463082683555549663,469,1463082683553659823,,4.66258382797,-6.63229990005,139.772613525,0.0100199999288,1.0,0.0,0.0,0.0,1.0,0.0,0.0,0.0,1.0,-16.0365848541,-7.86585378647,-56.1585388184,1.0,0.0,0.0,0.0,1.0,0.0,0.0,0.0,1.0,-0.277727392578,-1.03908344744,-9.09796630859,1.0,0.0,0.0,0.0,1.0,0.0,0.0,0.0,1.0
1463082683566639590,470,1463082683563586314,,4.58946657181,-6.61040353775,139.034469604,0.00997800007463,1.0,0.0,0.0,0.0,1.0,0.0,0.0,0.0,1.0,-18.2317085266,-7.31707334518,-60.8536643982,1.0,0.0,0.0,0.0,1.0,0.0,0.0,0.0,1.0,-0.0622492431641,-0.675164868164,-9.13627353516,1.0,0.0,0.0,0.0,1.0,0.0,0.0,0.0,1.0
1463082683575248062,471,1463082683573613534,,4.46467924118,-6.60472011566,138.274520874,0.0100079998374,1.0,0.0,0.0,0.0,1.0,0.0,0.0,0.0,1.0,-20.0,-7.19512224197,-63.2317123413,1.0,0.0,0.0,0.0,1.0,0.0,0.0,0.0,1.0,-0.354341845703,-0.0814028564453,-9.28471345356,1.0,0.0,0.0,0.0,1.0,0.0,0.0,0.0,1.0
1463082683586330020,472,1463082683583633932,,4.32507801056,-6.57016038895,137.505477905,0.00999400019646,1.0,0.0,0.0,0.0,1.0,0.0,0.0,0.0,1.0,-21.7682933807,-5.91463422775,-64.3292694092,1.0,0.0,0.0,0.0,1.0,0.0,0.0,0.0,1.0,-0.076614453125,-0.0957680664062,-9.85932243652,1.0,0.0,0.0,0.0,1.0,0.0,0.0,0.0,1.0
1463082683595995470,473,1463082683593786568,,4.20382261276,-6.53922128677,136.712402344,0.00999999977648,1.0,0.0,0.0,0.0,1.0,0.0,0.0,0.0,1.0,-22.8048782349,-6.28048801422,-66.3414611816,1.0,0.0,0.0,0.0,1.0,0.0,0.0,0.0,1.0,-0.067037651051,-0.526724328702,-9.65821008159,1.0,0.0,0.0,0.0,1.0,0.0,0.0,0.0,1.0
1463082683605546597,474,1463082683603651236,,4.0759100914,-6.50684452057,135.884689331,0.0100149996579,1.0,0.0,0.0,0.0,1.0,0.0,0.0,0.0,1.0,-23.5975627899,-6.15853643417,-69.6951217651,1.0,0.0,0.0,0.0,1.0,0.0,0.0,0.0,1.0,-0.0718260498047,-0.478840332031,-9.76834277344,1.0,0.0,0.0,0.0,1.0,0.0,0.0,0.0,1.0
1463082683615364495,475,1463082683613766217,,3.939909935,-6.48341608047,135.036361694,0.0099849998951,1.0,0.0,0.0,0.0,1.0,0.0,0.0,0.0,1.0,-24.5731716156,-7.01219511032,-71.9512176514,1.0,0.0,0.0,0.0,1.0,0.0,0.0,0.0,1.0,-0.067037651051,-0.440533105469,-9.77313117676,1.0,0.0,0.0,0.0,1.0,0.0,0.0,0.0,1.0
1463082683625195673,476,1463082683623600833,,3.8138821125,-6.48143005371,134.152313232,0.0100020002574,1.0,0.0,0.0,0.0,1.0,0.0,0.0,0.0,1.0,-24.5121955872,-7.74390268326,-75.2439041138,1.0,0.0,0.0,0.0,1.0,0.0,0.0,0.0,1.0,-0.316034619141,-0.521935925381,-9.80665,1.0,0.0,0.0,0.0,1.0,0.0,0.0,0.0,1.0
1463082683635713361,477,1463082683633602845,,3.69763445854,-6.47730016708,133.23840332,0.00999100040644,1.0,0.0,0.0,0.0,1.0,0.0,0.0,0.0,1.0,-23.3536586761,-8.10975551605,-78.3536605835,1.0,0.0,0.0,0.0,1.0,0.0,0.0,0.0,1.0,-0.234631762695,-0.435744702148,-10.5009684814,1.0,0.0,0.0,0.0,1.0,0.0,0.0,0.0,1.0
1463082683645719331,478,1463082683643620325,,3.63616061211,-6.48416090012,132.268493652,0.0100039998069,1.0,0.0,0.0,0.0,1.0,0.0,0.0,0.0,1.0,-21.9512195587,-8.78048801422,-83.3536605835,1.0,0.0,0.0,0.0,1.0,0.0,0.0,0.0,1.0,-0.344765039063,-1.0534486574,-10.3908352051,1.0,0.0,0.0,0.0,1.0,0.0,0.0,0.0,1.0
1463082683655812020,479,1463082683653604993,,3.57430052757,-6.50156211853,131.268432617,0.0100010000169,1.0,0.0,0.0,0.0,1.0,0.0,0.0,0.0,1.0,-22.1951236725,-8.65853691101,-86.4024429321,1.0,0.0,0.0,0.0,1.0,0.0,0.0,0.0,1.0,-0.584185168546,-1.01992990723,-10.4674496582,1.0,0.0,0.0,0.0,1.0,0.0,0.0,0.0,1.0
1463082683665348929,480,1463082683663633307,,3.49236345291,-6.52408266068,130.256866455,0.00999800022691,1.0,0.0,0.0,0.0,1.0,0.0,0.0,0.0,1.0,-23.475610733,-9.63414573669,-87.6219558716,1.0,0.0,0.0,0.0,1.0,0.0,0.0,0.0,1.0,-0.488417138672,-0.833182177734,-10.3860468018,1.0,0.0,0.0,0.0,1.0,0.0,0.0,0.0,1.0
1463082683675285420,481,1463082683673616621,,3.39513707161,-6.55748987198,129.23475647,0.0100020002574,1.0,0.0,0.0,0.0,1.0,0.0,0.0,0.0,1.0,-25.0609760284,-10.4268293381,-88.5975646973,1.0,0.0,0.0,0.0,1.0,0.0,0.0,0.0,1.0,-0.526724328702,-0.794874951172,-10.3381627686,1.0,0.0,0.0,0.0,1.0,0.0,0.0,0.0,1.0
1463082683685526910,482,1463082683683613580,,3.26265072823,-6.60248756409,128.219268799,0.00999999977648,1.0,0.0,0.0,0.0,1.0,0.0,0.0,0.0,1.0,-28.1097564697,-11.0975618362,-87.9878082275,1.0,0.0,0.0,0.0,1.0,0.0,0.0,0.0,1.0,-0.579396801758,-0.689530078125,-10.3477395752,1.0,0.0,0.0,0.0,1.0,0.0,0.0,0.0,1.0
1463082683696639076,483,1463082683693765384,,3.07395458221,-6.6501584053,127.217002869,0.0100060002878,1.0,0.0,0.0,0.0,1.0,0.0,0.0,0.0,1.0,-32.8048782349,-10.4878053665,-86.7682952881,1.0,0.0,0.0,0.0,1.0,0.0,0.0,0.0,1.0,-0.718260498047,-0.536301208408,-10.8792523438,1.0,0.0,0.0,0.0,1.0,0.0,0.0,0.0,1.0
1463082683705926245,484,1463082683703684896,,2.84540724754,-6.71123600006,126.218666077,0.0100849997252,1.0,0.0,0.0,0.0,1.0,0.0,0.0,0.0,1.0,-35.0609741211,-10.7317075729,-85.7926864624,1.0,0.0,0.0,0.0,1.0,0.0,0.0,0.0,1.0,-0.861912597656,-0.210689746094,-11.04684646,1.0,0.0,0.0,0.0,1.0,0.0,0.0,0.0,1.0
1463082683716157684,485,1463082683714104042,,2.6238079071,-6.77912187576,125.186149597,0.0102289998904,1.0,0.0,0.0,0.0,1.0,0.0,0.0,0.0,1.0,-35.9756088257,-9.51219558716,-87.6219558716,1.0,0.0,0.0,0.0,1.0,0.0,0.0,0.0,1.0,-1.13006318359,-0.45968671875,-10.6685625977,1.0,0.0,0.0,0.0,1.0,0.0,0.0,0.0,1.0
1463082683725361728,486,1463082683723776783,,2.43002390862,-6.84325456619,124.162055969,0.00980800017715,1.0,0.0,0.0,0.0,1.0,0.0,0.0,0.0,1.0,-35.7317085266,-7.50000047684,-91.0365905762,1.0,0.0,0.0,0.0,1.0,0.0,0.0,0.0,1.0,-1.52750065918,-0.660799658203,-11.0947304932,1.0,0.0,0.0,0.0,1.0,0.0,0.0,0.0,1.0
1463082683735731500,487,1463082683733618171,,2.25804543495,-6.89597892761,123.096298218,0.00987000018358,1.0,0.0,0.0,0.0,1.0,0.0,0.0,0.0,1.0,-34.0243911743,-7.13414621353,-94.5731735229,1.0,0.0,0.0,0.0,1.0,0.0,0.0,0.0,1.0,-1.2976572998,-0.622492431641,-10.7643306641,1.0,0.0,0.0,0.0,1.0,0.0,0.0,0.0,1.0
1463082683745683199,488,1463082683743637578,,2.11808848381,-6.92773532867,121.974319458,0.0100039998069,1.0,0.0,0.0,0.0,1.0,0.0,0.0,0.0,1.0,-32.0731697083,-5.60975599289,-98.6585388184,1.0,0.0,0.0,0.0,1.0,0.0,0.0,0.0,1.0,-1.19710090314,-0.790086547852,-11.1282493164,1.0,0.0,0.0,0.0,1.0,0.0,0.0,0.0,1.0
1463082683755740419,489,1463082683753709121,,2.01638484001,-6.9750585556,120.822738647,0.0100429998711,1.0,0.0,0.0,0.0,1.0,0.0,0.0,0.0,1.0,-30.3658542633,-6.09756088257,-100.914634705,1.0,0.0,0.0,0.0,1.0,0.0,0.0,0.0,1.0,-1.40779057617,-1.13963999023,-11.3197854492,1.0,0.0,0.0,0.0,1.0,0.0,0.0,0.0,1.0
1463082683765281807,490,1463082683763663841,,1.91959381104,-7.04073810577,119.698265076,0.00995500013232,1.0,0.0,0.0,0.0,1.0,0.0,0.0,0.0,1.0,-30.5487804413,-7.62195110321,-99.0853652954,1.0,0.0,0.0,0.0,1.0,0.0,0.0,0.0,1.0,-1.50355864258,-1.31681091309,-11.8273562012,1.0,0.0,0.0,0.0,1.0,0.0,0.0,0.0,1.0
1463082683775223246,491,1463082683773630072,,1.81186449528,-7.11926031113,118.59601593,0.0100079998374,1.0,0.0,0.0,0.0,1.0,0.0,0.0,0.0,1.0,-33.9024391174,-7.74390268326,-95.9756088257,1.0,0.0,0.0,0.0,1.0,0.0,0.0,0.0,1.0,-1.75734401855,-1.9105729248,-12.24394729,1.0,0.0,0.0,0.0,1.0,0.0,0.0,0.0,1.0
1463082683785550361,492,1463082683783631250,,1.65716707706,-7.2220749855,117.532150269,0.0100079998374,1.0,0.0,0.0,0.0,1.0,0.0,0.0,0.0,1.0,-38.6585388184,-9.63414573669,-92.0731735229,1.0,0.0,0.0,0.0,1.0,0.0,0.0,0.0,1.0,-1.87705410156,-2.03985981445,-12.6749035889,1.0,0.0,0.0,0.0,1.0,0.0,0.0,0.0,1.0
1463082683795948518,493,1463082683793741178,,1.45270323753,-7.33734321594,116.504447937,0.00999100040644,1.0,0.0,0.0,0.0,1.0,0.0,0.0,0.0,1.0,-43.4146347046,-10.2439022064,-88.6585388184,1.0,0.0,0.0,0.0,1.0,0.0,0.0,0.0,1.0,-1.98718737793,-2.03507141113,-12.8903817383,1.0,0.0,0.0,0.0,1.0,0.0,0.0,0.0,1.0
1463082683805537666,494,1463082683803625638,,1.21945011616,-7.48299741745,115.501502991,0.010006999597,1.0,0.0,0.0,0.0,1.0,0.0,0.0,0.0,1.0,-46.4634170532,-11.8292684555,-85.9756088257,1.0,0.0,0.0,0.0,1.0,0.0,0.0,0.0,1.0,-2.27927998047,-2.09732050817,-13.0771294678,1.0,0.0,0.0,0.0,1.0,0.0,0.0,0.0,1.0
1463082683815335251,495,1463082683813725931,,0.971988379955,-7.64116096497,114.498908997,0.0100710000843,1.0,0.0,0.0,0.0,1.0,0.0,0.0,0.0,1.0,-47.9268302917,-12.3170728683,-85.3048782349,1.0,0.0,0.0,0.0,1.0,0.0,0.0,0.0,1.0,-2.28406838379,-1.97761057129,-12.6030775391,1.0,0.0,0.0,0.0,1.0,0.0,0.0,0.0,1.0
1463082683825214294,496,1463082683823613308,,0.725397646427,-7.80454683304,113.508720398,0.00992500036955,1.0,0.0,0.0,0.0,1.0,0.0,0.0,0.0,1.0,-47.3780517578,-12.3780488968,-85.6707305908,1.0,0.0,0.0,0.0,1.0,0.0,0.0,0.0,1.0,-2.32237546422,-1.61848032227,-12.2870429199,1.0,0.0,0.0,0.0,1.0,0.0,0.0,0.0,1.0
1463082683835791409,497,1463082683833651309,,0.488471180201,-7.97038793564,112.499176025,0.00998700037599,1.0,0.0,0.0,0.0,1.0,0.0,0.0,0.0,1.0,-45.6097564697,-12.1341466904,-87.134147644,1.0,0.0,0.0,0.0,1.0,0.0,0.0,0.0,1.0,-2.23139594727,-1.24498486328,-11.6501852783,1.0,0.0,0.0,0.0,1.0,0.0,0.0,0.0,1.0
1463082683845854410,498,1463082683843734883,,0.281010121107,-8.14451694489,111.461860657,0.0100579997525,1.0,0.0,0.0,0.0,1.0,0.0,0.0,0.0,1.0,-42.317073822,-11.7682924271,-89.2682876587,1.0,0.0,0.0,0.0,1.0,0.0,0.0,0.0,1.0,-2.30801040039,-0.986411083984,-11.1330377197,1.0,0.0,0.0,0.0,1.0,0.0,0.0,0.0,1.0
1463082683855657777,499,1463082683853607676,,0.124005928636,-8.29961490631,110.396476746,0.00995500013232,1.0,0.0,0.0,0.0,1.0,0.0,0.0,0.0,1.0,-38.2317085266,-10.0,-93.1097564697,1.0,0.0,0.0,0.0,1.0,0.0,0.0,0.0,1.0,-2.17872351074,-0.885854614258,-10.6111017578,1.0,0.0,0.0,0.0,1.0,0.0,0.0,0.0,1.0
1463082683865231091,500,1463082683863650626,,0.0198526773602,-8.45121002197,109.289512634,0.00999699998647,1.0,0.0,0.0,0.0,1.0,0.0,0.0,0.0,1.0,-33.1707305908,-7.62195110321,-96.8292694092,1.0,0.0,0.0,0.0,1.0,0.0,0.0,0.0,1.0,-2.5234885498,-0.751779321289,-10.5057568848,1.0,0.0,0.0,0.0,1.0,0.0,0.0,0.0,1.0
1463082683878712732,501,1463082683873882116,,-0.0330529361963,-8.57687854767,108.128059387,0.010053999722,1.0,0.0,0.0,0.0,1.0,0.0,0.0,0.0,1.0,-28.5365848541,-4.81707286835,-101.585365295,1.0,0.0,0.0,0.0,1.0,0.0,0.0,0.0,1.0,-2.4756045166,-0.627280834961,-10.1992990723,1.0,0.0,0.0,0.0,1.0,0.0,0.0,0.0,1.0
1463082683887120424,502,1463082683883977357,,-0.0448119491339,-8.67425060272,106.942581177,0.00994400028139,1.0,0.0,0.0,0.0,1.0,0.0,0.0,0.0,1.0,-24.8780498505,-0.975609779358,-105.243904114,1.0,0.0,0.0,0.0,1.0,0.0,0.0,0.0,1.0,-2.61446821289,-0.536301208408,-9.85932243652,1.0,0.0,0.0,0.0,1.0,0.0,0.0,0.0,1.0
1463082683896454155,503,1463082683893862337,,-0.0141892749816,-8.72495746613,105.720397949,0.00997999962419,1.0,0.0,0.0,0.0,1.0,0.0,0.0,0.0,1.0,-21.7073173523,3.90243911743,-108.353660583,1.0,0.0,0.0,0.0,1.0,0.0,0.0,0.0,1.0,-2.61446821289,-0.603338854892,-9.66299848491,1.0,0.0,0.0,0.0,1.0,0.0,0.0,0.0,1.0
1463082683906084814,504,1463082683903695287,,0.0391675420105,-8.73799133301,104.484222412,0.0100260004401,1.0,0.0,0.0,0.0,1.0,0.0,0.0,0.0,1.0,-19.817073822,8.65853691101,-109.146347046,1.0,0.0,0.0,0.0,1.0,0.0,0.0,0.0,1.0,-2.7102362793,-0.61770402832,-9.27992563477,1.0,0.0,0.0,0.0,1.0,0.0,0.0,0.0,1.0
1463082683915926461,505,1463082683913749330,,0.0896044224501,-8.69199466705,103.255432129,0.0099950004369,1.0,0.0,0.0,0.0,1.0,0.0,0.0,0.0,1.0,-19.0853652954,13.7804880142,-108.963417053,1.0,0.0,0.0,0.0,1.0,0.0,0.0,0.0,1.0,-2.53306535645,-0.45489831543,-9.07402429199,1.0,0.0,0.0,0.0,1.0,0.0,0.0,0.0,1.0
1463082683926575815,506,1463082683923685196,,0.132216230035,-8.604180336,102.036247253,0.00999800022691,1.0,0.0,0.0,0.0,1.0,0.0,0.0,0.0,1.0,-18.2926826477,17.3780498505,-108.231712341,1.0,0.0,0.0,0.0,1.0,0.0,0.0,0.0,1.0,-2.4756045166,-0.248996972656,-9.20809958496,1.0,0.0,0.0,0.0,1.0,0.0,0.0,0.0,1.0
1463082683935448454,507,1463082683933678354,,0.204822435975,-8.47799968719,100.830841064,0.0100029995665,1.0,0.0,0.0,0.0,1.0,0.0,0.0,0.0,1.0,-16.8292694092,20.7926826477,-106.585372925,1.0,0.0,0.0,0.0,1.0,0.0,0.0,0.0,1.0,-2.36068269078,-0.579396801758,-9.02614025879,1.0,0.0,0.0,0.0,1.0,0.0,0.0,0.0,1.0
1463082683945667341,508,1463082683943664324,,0.246565595269,-8.32378864288,99.6613082886,0.00999899953604,1.0,0.0,0.0,0.0,1.0,0.0,0.0,0.0,1.0,-17.5609760284,22.3780498505,-103.414634705,1.0,0.0,0.0,0.0,1.0,0.0,0.0,0.0,1.0,-2.14520483363,-0.330399829102,-9.01656345215,1.0,0.0,0.0,0.0,1.0,0.0,0.0,0.0,1.0
1463082683956458778,509,1463082683953824148,,0.274891197681,-8.14291000366,98.5338287354,0.0100010000169,1.0,0.0,0.0,0.0,1.0,0.0,0.0,0.0,1.0,-16.7073173523,23.9024391174,-99.5121994019,1.0,0.0,0.0,0.0,1.0,0.0,0.0,0.0,1.0,-1.86747729492,-0.124498486328,-8.69574042969,1.0,0.0,0.0,0.0,1.0,0.0,0.0,0.0,1.0
1463082683965218865,510,1463082683963651941,,0.308829456568,-7.9571685791,97.4359970093,0.0099950004369,1.0,0.0,0.0,0.0,1.0,0.0,0.0,0.0,1.0,-15.0609760284,24.2682933807,-96.7682952881,1.0,0.0,0.0,0.0,1.0,0.0,0.0,0.0,1.0,-1.7908628418,-0.076614453125,-8.53293530132,1.0,0.0,0.0,0.0,1.0,0.0,0.0,0.0,1.0
1463082683976498635,511,1463082683973644630,,0.337735831738,-7.77264213562,96.369972229,0.00999100040644,1.0,0.0,0.0,0.0,1.0,0.0,0.0,0.0,1.0,-12.3170728683,23.7804889679,-94.0853652954,1.0,0.0,0.0,0.0,1.0,0.0,0.0,0.0,1.0,-1.63284553223,0.287304199219,-8.14507404785,1.0,0.0,0.0,0.0,1.0,0.0,0.0,0.0,1.0
1463082683985458565,512,1463082683983831381,,0.420972198248,-7.57456636429,95.3104782104,0.010150000453,1.0,0.0,0.0,0.0,1.0,0.0,0.0,0.0,1.0,-8.35365867615,23.1097564697,-91.5853652954,1.0,0.0,0.0,0.0,1.0,0.0,0.0,0.0,1.0,-1.34075292969,-0.0143652099609,-8.01099875488,1.0,0.0,0.0,0.0,1.0,0.0,0.0,0.0,1.0
1463082683998331196,513,1463082683993809799,,0.512421369553,-7.41600608826,94.2888946533,0.0100180003792,1.0,0.0,0.0,0.0,1.0,0.0,0.0,0.0,1.0,-4.87804889679,20.0609760284,-89.5121994019,1.0,0.0,0.0,0.0,1.0,0.0,0.0,0.0,1.0,-1.47003981934,0.258573779297,-8.25999572754,1.0,0.0,0.0,0.0,1.0,0.0,0.0,0.0,1.0
1463082684007907272,514,1463082684003824884,,0.667949199677,-7.29801559448,93.2786026001,0.00984499976039,1.0,0.0,0.0,0.0,1.0,0.0,0.0,0.0,1.0,0.487804889679,17.8048782349,-90.0,1.0,0.0,0.0,0.0,1.0,0.0,0.0,0.0,1.0,-1.88184250488,0.0287304199219,-9.03571706543,1.0,0.0,0.0,0.0,1.0,0.0,0.0,0.0,1.0
1463082684017740117,515,1463082684013833562,,0.90617531538,-7.19007015228,92.2312011719,0.0100010000169,1.0,0.0,0.0,0.0,1.0,0.0,0.0,0.0,1.0,5.42682933807,16.9512195587,-91.7682952881,1.0,0.0,0.0,0.0,1.0,0.0,0.0,0.0,1.0,-2.07816689489,-0.517147558594,-9.46188437642,1.0,0.0,0.0,0.0,1.0,0.0,0.0,0.0,1.0
1463082684026653537,516,1463082684023610835,,1.1604142189,-7.0886759758,91.1494445801,0.0100060002878,1.0,0.0,0.0,0.0,1.0,0.0,0.0,0.0,1.0,9.20731735229,14.7560987473,-95.4878082275,1.0,0.0,0.0,0.0,1.0,0.0,0.0,0.0,1.0,-1.88184250488,-0.138863696289,-9.47624958638,1.0,0.0,0.0,0.0,1.0,0.0,0.0,0.0,1.0
1463082684035543051,517,1463082684033757377,,1.47152686119,-6.97453832626,90.0505065918,0.00997999962419,1.0,0.0,0.0,0.0,1.0,0.0,0.0,0.0,1.0,12.2560977936,12.5609760284,-97.1951217651,1.0,0.0,0.0,0.0,1.0,0.0,0.0,0.0,1.0,-1.37906015625,-0.646434448242,-9.60074924175,1.0,0.0,0.0,0.0,1.0,0.0,0.0,0.0,1.0
1463082684046566988,518,1463082684043777618,,1.77060890198,-6.89322519302,88.9291229248,0.0100400000811,1.0,0.0,0.0,0.0,1.0,0.0,0.0,0.0,1.0,10.7317075729,8.10975551605,-98.7195129395,1.0,0.0,0.0,0.0,1.0,0.0,0.0,0.0,1.0,-1.27850368652,-0.723048901367,-9.61990285503,1.0,0.0,0.0,0.0,1.0,0.0,0.0,0.0,1.0
1463082684056229157,519,1463082684053811036,,2.04032850266,-6.84524106979,87.834602356,0.00996599998325,1.0,0.0,0.0,0.0,1.0,0.0,0.0,0.0,1.0,8.10975551605,3.84146332741,-96.7682952881,1.0,0.0,0.0,0.0,1.0,0.0,0.0,0.0,1.0,-1.16358193377,-0.804451757813,-9.49061596538,1.0,0.0,0.0,0.0,1.0,0.0,0.0,0.0,1.0
1463082684065333670,520,1463082684063723465,,2.21512532234,-6.84410429001,86.7909164429,0.0100220004097,1.0,0.0,0.0,0.0,1.0,0.0,0.0,0.0,1.0,2.56097555161,1.03658533096,-91.4634170532,1.0,0.0,0.0,0.0,1.0,0.0,0.0,0.0,1.0,-1.57538469238,-0.287304199219,-9.85932243652,1.0,0.0,0.0,0.0,1.0,0.0,0.0,0.0,1.0
1463082684076709273,521,1463082684073665008,,2.39201807976,-6.87031698227,85.7682952881,0.00998300034553,1.0,0.0,0.0,0.0,1.0,0.0,0.0,0.0,1.0,-0.487804889679,-2.80487799644,-89.207321167,1.0,0.0,0.0,0.0,1.0,0.0,0.0,0.0,1.0,-1.41257897949,-0.933738647461,-9.77791958008,1.0,0.0,0.0,0.0,1.0,0.0,0.0,0.0,1.0
1463082684085220298,522,1463082684083652280,,2.54448103905,-6.92888784409,84.7668304443,0.0100050000474,1.0,0.0,0.0,0.0,1.0,0.0,0.0,0.0,1.0,-3.59756112099,-4.39024400711,-86.7073135376,1.0,0.0,0.0,0.0,1.0,0.0,0.0,0.0,1.0,-1.81959326172,-1.16358193377,-10.1992990723,1.0,0.0,0.0,0.0,1.0,0.0,0.0,0.0,1.0
1463082684096740432,523,1463082684093732573,,2.64082789421,-7.04356575012,83.7566757202,0.0100279999897,1.0,0.0,0.0,0.0,1.0,0.0,0.0,0.0,1.0,-6.21951246262,-9.02439117432,-87.5,1.0,0.0,0.0,0.0,1.0,0.0,0.0,0.0,1.0,-2.04464821777,-0.588973571866,-10.1705686523,1.0,0.0,0.0,0.0,1.0,0.0,0.0,0.0,1.0
1463082684106280569,524,1463082684103620262,,2.75550293922,-7.15697336197,82.7188491821,0.00995799992234,1.0,0.0,0.0,0.0,1.0,0.0,0.0,0.0,1.0,-7.43902492523,-9.08536529541,-90.6097564697,1.0,0.0,0.0,0.0,1.0,0.0,0.0,0.0,1.0,-2.23139594727,-1.13006318359,-10.7356002441,1.0,0.0,0.0,0.0,1.0,0.0,0.0,0.0,1.0
1463082684115489979,525,1463082684113704045,,2.83223032951,-7.32577037811,81.6716384888,0.010045000352,1.0,0.0,0.0,0.0,1.0,0.0,0.0,0.0,1.0,-9.69512176514,-13.658536911,-90.6097564697,1.0,0.0,0.0,0.0,1.0,0.0,0.0,0.0,1.0,-2.37025978969,-0.756567724609,-10.3716815918,1.0,0.0,0.0,0.0,1.0,0.0,0.0,0.0,1.0
1463082684126473082,526,1463082684123628765,,2.88717365265,-7.46142721176,80.6347579956,0.00995500013232,1.0,0.0,0.0,0.0,1.0,0.0,0.0,0.0,1.0,-11.2804880142,-12.9878053665,-90.6097564697,1.0,0.0,0.0,0.0,1.0,0.0,0.0,0.0,1.0,-1.89620771484,-0.603338854892,-10.1226846191,1.0,0.0,0.0,0.0,1.0,0.0,0.0,0.0,1.0
1463082684135290982,527,1463082684133674683,,2.93683218956,-7.65336847305,79.5914611816,0.0100170001388,1.0,0.0,0.0,0.0,1.0,0.0,0.0,0.0,1.0,-12.9268293381,-17.134147644,-90.2439041138,1.0,0.0,0.0,0.0,1.0,0.0,0.0,0.0,1.0,-2.3415290775,-0.809240161133,-10.7834842773,1.0,0.0,0.0,0.0,1.0,0.0,0.0,0.0,1.0
1463082684146571272,528,1463082684143851955,,2.94710254669,-7.85664653778,78.5751113892,0.00999400019646,1.0,0.0,0.0,0.0,1.0,0.0,0.0,0.0,1.0,-15.6097564697,-19.5731716156,-87.8048782349,1.0,0.0,0.0,0.0,1.0,0.0,0.0,0.0,1.0,-2.04943662109,-0.550666381836,-10.4626612549,1.0,0.0,0.0,0.0,1.0,0.0,0.0,0.0,1.0
1463082684156060837,529,1463082684153830060,,2.93372607231,-8.06186294556,77.5668792725,0.0100170001388,1.0,0.0,0.0,0.0,1.0,0.0,0.0,0.0,1.0,-18.475610733,-18.0487823486,-86.7682952881,1.0,0.0,0.0,0.0,1.0,0.0,0.0,0.0,1.0,-2.4995465332,-0.632069238281,-10.8888291504,1.0,0.0,0.0,0.0,1.0,0.0,0.0,0.0,1.0
1463082684166441494,530,1463082684163699885,,2.89455318451,-8.31737518311,76.5929946899,0.00999400019646,1.0,0.0,0.0,0.0,1.0,0.0,0.0,0.0,1.0,-22.0731716156,-21.341463089,-83.2317123413,1.0,0.0,0.0,0.0,1.0,0.0,0.0,0.0,1.0,-2.85867678223,-0.842758984375,-10.8600987305,1.0,0.0,0.0,0.0,1.0,0.0,0.0,0.0,1.0
1463082684176741682,531,1463082684173617990,,2.81630301476,-8.52705097198,75.6496887207,0.00998399965465,1.0,0.0,0.0,0.0,1.0,0.0,0.0,0.0,1.0,-25.8536586761,-18.3536586761,-80.4268264771,1.0,0.0,0.0,0.0,1.0,0.0,0.0,0.0,1.0,-2.55221896973,-0.818816967773,-10.927136377,1.0,0.0,0.0,0.0,1.0,0.0,0.0,0.0,1.0
1463082684186329268,532,1463082684183609325,,2.7063293457,-8.76300430298,74.7253112793,0.0100109996274,1.0,0.0,0.0,0.0,1.0,0.0,0.0,0.0,1.0,-28.1707324982,-18.3536586761,-78.4146347046,1.0,0.0,0.0,0.0,1.0,0.0,0.0,0.0,1.0,-2.9927520752,-0.612915625,-10.6446205811,1.0,0.0,0.0,0.0,1.0,0.0,0.0,0.0,1.0
1463082684197185028,533,1463082684193655816,,2.58587193489,-8.97587585449,73.8078308105,0.00997900031507,1.0,0.0,0.0,0.0,1.0,0.0,0.0,0.0,1.0,-30.7926845551,-17.1951217651,-77.865852356,1.0,0.0,0.0,0.0,1.0,0.0,0.0,0.0,1.0,-2.77248552246,-0.833182177734,-10.6111017578,1.0,0.0,0.0,0.0,1.0,0.0,0.0,0.0,1.0
1463082684207782143,534,1463082684203667151,,2.41371035576,-9.18154430389,72.915435791,0.00999999977648,1.0,0.0,0.0,0.0,1.0,0.0,0.0,0.0,1.0,-34.1463432312,-15.2439022064,-75.5487823486,1.0,0.0,0.0,0.0,1.0,0.0,0.0,0.0,1.0,-2.90656081543,-0.46447512207,-10.3429511719,1.0,0.0,0.0,0.0,1.0,0.0,0.0,0.0,1.0
1463082684217450353,535,1463082684213692860,,2.20517754555,-9.39214420319,72.0587997437,0.0100010000169,1.0,0.0,0.0,0.0,1.0,0.0,0.0,0.0,1.0,-37.0731697083,-14.1463422775,-72.134147644,1.0,0.0,0.0,0.0,1.0,0.0,0.0,0.0,1.0,-3.3470939209,-0.363918652344,-10.8936175537,1.0,0.0,0.0,0.0,1.0,0.0,0.0,0.0,1.0
1463082684226433825,536,1463082684223566539,,1.97987914085,-9.58180141449,71.2192459106,0.0100060002878,1.0,0.0,0.0,0.0,1.0,0.0,0.0,0.0,1.0,-39.6951217651,-12.9268293381,-70.3048782349,1.0,0.0,0.0,0.0,1.0,0.0,0.0,0.0,1.0,-3.12682736816,-0.517147558594,-10.9031943604,1.0,0.0,0.0,0.0,1.0,0.0,0.0,0.0,1.0
1463082684235454797,537,1463082684233899696,,1.70811331272,-9.74767780304,70.393371582,0.0101140001789,1.0,0.0,0.0,0.0,1.0,0.0,0.0,0.0,1.0,-42.0731697083,-9.51219558716,-68.5365905762,1.0,0.0,0.0,0.0,1.0,0.0,0.0,0.0,1.0,-3.26090266113,-0.0957680664062,-10.9223479736,1.0,0.0,0.0,0.0,1.0,0.0,0.0,0.0,1.0
1463082684245287434,538,1463082684243613687,,1.45826935768,-9.89746761322,69.5792007446,0.00988299958408,1.0,0.0,0.0,0.0,1.0,0.0,0.0,0.0,1.0,-42.134147644,-7.74390268326,-69.0853652954,1.0,0.0,0.0,0.0,1.0,0.0,0.0,0.0,1.0,-3.45243879395,-0.320823022461,-11.3102086426,1.0,0.0,0.0,0.0,1.0,0.0,0.0,0.0,1.0
1463082684255959913,539,1463082684253703616,,1.19305157661,-10.0413217545,68.7506713867,0.0100239999592,1.0,0.0,0.0,0.0,1.0,0.0,0.0,0.0,1.0,-41.8292694092,-6.52439069748,-69.6951217651,1.0,0.0,0.0,0.0,1.0,0.0,0.0,0.0,1.0,-3.4189199707,0.0957680664062,-11.0612116699,1.0,0.0,0.0,0.0,1.0,0.0,0.0,0.0,1.0
1463082684266606507,540,1463082684263640107,,0.962868869305,-10.1425504684,67.9138717651,0.00997000001371,1.0,0.0,0.0,0.0,1.0,0.0,0.0,0.0,1.0,-39.817073822,-3.04878044128,-70.8536605835,1.0,0.0,0.0,0.0,1.0,0.0,0.0,0.0,1.0,-3.21780703125,-0.0526724365234,-11.0420580566,1.0,0.0,0.0,0.0,1.0,0.0,0.0,0.0,1.0
1463082684276880237,541,1463082684273725816,,0.751470267773,-10.248251915,67.0743255615,0.0100330002606,1.0,0.0,0.0,0.0,1.0,0.0,0.0,0.0,1.0,-38.5975608826,-2.19512200356,-70.4878082275,1.0,0.0,0.0,0.0,1.0,0.0,0.0,0.0,1.0,-3.38061274414,-0.148440512063,-10.8696755371,1.0,0.0,0.0,0.0,1.0,0.0,0.0,0.0,1.0
1463082684286611051,542,1463082684283798401,,0.563538432121,-10.3410758972,66.2301483154,0.0101140001789,1.0,0.0,0.0,0.0,1.0,0.0,0.0,0.0,1.0,-38.5975608826,1.2804877758,-69.8780517578,1.0,0.0,0.0,0.0,1.0,0.0,0.0,0.0,1.0,-3.7253777832,-0.588973571866,-10.6637741943,1.0,0.0,0.0,0.0,1.0,0.0,0.0,0.0,1.0
1463082684296824313,543,1463082684293915100,,0.36816611886,-10.4117288589,65.4138793945,0.0100800003856,1.0,0.0,0.0,0.0,1.0,0.0,0.0,0.0,1.0,-39.4512214661,5.06097555161,-67.3780517578,1.0,0.0,0.0,0.0,1.0,0.0,0.0,0.0,1.0,-4.0318355957,-0.636857641602,-10.6685625977,1.0,0.0,0.0,0.0,1.0,0.0,0.0,0.0,1.0
1463082684307336011,544,1463082684304001590,,0.153329849243,-10.4430150986,64.6399536133,0.00980000011623,1.0,0.0,0.0,0.0,1.0,0.0,0.0,0.0,1.0,-40.2439041138,8.17073154449,-65.6707305908,1.0,0.0,0.0,0.0,1.0,0.0,0.0,0.0,1.0,-3.90733710937,-0.3064578125,-10.8936175537,1.0,0.0,0.0,0.0,1.0,0.0,0.0,0.0,1.0
1463082684315374797,545,1463082684313794332,,-0.0768689289689,-10.4405765533,63.8563499451,0.0101150004193,1.0,0.0,0.0,0.0,1.0,0.0,0.0,0.0,1.0,-39.0243911743,12.2560977936,-64.5121917725,1.0,0.0,0.0,0.0,1.0,0.0,0.0,0.0,1.0,-4.01268198242,0.110133276367,-10.9558667969,1.0,0.0,0.0,0.0,1.0,0.0,0.0,0.0,1.0
1463082684325795454,546,1463082684323606448,,-0.25738671422,-10.4117803574,63.0935401917,0.00986700039357,1.0,0.0,0.0,0.0,1.0,0.0,0.0,0.0,1.0,-37.0731697083,14.3902444839,-63.8414649963,1.0,0.0,0.0,0.0,1.0,0.0,0.0,0.0,1.0,-3.95522114258,-0.392649072266,-11.3054202393,1.0,0.0,0.0,0.0,1.0,0.0,0.0,0.0,1.0
1463082684335559810,547,1463082684333686324,,-0.46513786912,-10.3369951248,62.324798584,0.0100159998983,1.0,0.0,0.0,0.0,1.0,0.0,0.0,0.0,1.0,-38.1707305908,16.5243911743,-63.4756088257,1.0,0.0,0.0,0.0,1.0,0.0,0.0,0.0,1.0,-3.3710359375,-0.100556469727,-11.3628810791,1.0,0.0,0.0,0.0,1.0,0.0,0.0,0.0,1.0
1463082684345765467,548,1463082684343589378,,-0.659434616566,-10.2433261871,61.5622940063,0.00998300034553,1.0,0.0,0.0,0.0,1.0,0.0,0.0,0.0,1.0,-35.8536605835,18.0487823486,-63.2317123413,1.0,0.0,0.0,0.0,1.0,0.0,0.0,0.0,1.0,-3.23217224121,0.124498486328,-11.4347071289,1.0,0.0,0.0,0.0,1.0,0.0,0.0,0.0,1.0
1463082684355251543,549,1463082684353620348,,-0.791571676731,-10.131611824,60.7894134521,0.00999400019646,1.0,0.0,0.0,0.0,1.0,0.0,0.0,0.0,1.0,-31.6463413239,18.5365848541,-63.7804908752,1.0,0.0,0.0,0.0,1.0,0.0,0.0,0.0,1.0,-2.85867678223,-0.258573779297,-11.3533042725,1.0,0.0,0.0,0.0,1.0,0.0,0.0,0.0,1.0
1463082684365278502,550,1463082684363659443,,-0.903814792633,-10.0253076553,59.9994888306,0.0100119998679,1.0,0.0,0.0,0.0,1.0,0.0,0.0,0.0,1.0,-29.8780498505,17.9878044128,-65.3048782349,1.0,0.0,0.0,0.0,1.0,0.0,0.0,0.0,1.0,-2.62404501953,-0.239420166016,-10.6494089844,1.0,0.0,0.0,0.0,1.0,0.0,0.0,0.0,1.0
1463082684375740305,551,1463082684374017287,,-1.0076611042,-9.9078130722,59.1799736023,0.0104130003601,1.0,0.0,0.0,0.0,1.0,0.0,0.0,0.0,1.0,-27.6219520569,19.3292694092,-65.2439041138,1.0,0.0,0.0,0.0,1.0,0.0,0.0,0.0,1.0,-2.57616098633,-0.0526724365234,-10.1274730225,1.0,0.0,0.0,0.0,1.0,0.0,0.0,0.0,1.0
1463082684385539244,552,1463082684383773362,,-1.08994460106,-9.82660198212,58.4246711731,0.00958499964327,1.0,0.0,0.0,0.0,1.0,0.0,0.0,0.0,1.0,-25.5487804413,16.8902435303,-65.4878082275,1.0,0.0,0.0,0.0,1.0,0.0,0.0,0.0,1.0,-2.43729729004,0.067037651051,-9.48582756206,1.0,0.0,0.0,0.0,1.0,0.0,0.0,0.0,1.0
1463082684395497402,553,1463082684393682822,,-1.15391516685,-9.75582122803,57.6305999756,0.0100100003183,1.0,0.0,0.0,0.0,1.0,0.0,0.0,0.0,1.0,-22.5,16.9512195587,-66.1585388184,1.0,0.0,0.0,0.0,1.0,0.0,0.0,0.0,1.0,-2.51391174316,0.215478149414,-8.94473740234,1.0,0.0,0.0,0.0,1.0,0.0,0.0,0.0,1.0
1463082684405354883,554,1463082684403650094,,-1.23822629452,-9.72258853912,56.8524017334,0.0099950004369,1.0,0.0,0.0,0.0,1.0,0.0,0.0,0.0,1.0,-21.5243911743,16.7682933807,-65.1829299927,1.0,0.0,0.0,0.0,1.0,0.0,0.0,0.0,1.0,-2.8299463623,0.622492431641,-8.12113203125,1.0,0.0,0.0,0.0,1.0,0.0,0.0,0.0,1.0
1463082684415297103,555,1463082684413663043,,-1.27987635136,-9.7112159729,56.1003837585,0.00999800022691,1.0,0.0,0.0,0.0,1.0,0.0,0.0,0.0,1.0,-22.5609760284,16.0365848541,-61.5853691101,1.0,0.0,0.0,0.0,1.0,0.0,0.0,0.0,1.0,-3.02627089844,-0.258573779297,-8.0397291748,1.0,0.0,0.0,0.0,1.0,0.0,0.0,0.0,1.0
1463082684425278802,556,1463082684423628180,,-1.43153584003,-9.66378211975,55.3956031799,0.0100010000169,1.0,0.0,0.0,0.0,1.0,0.0,0.0,0.0,1.0,-23.7195129395,18.1097564697,-58.4146347046,1.0,0.0,0.0,0.0,1.0,0.0,0.0,0.0,1.0,-2.86346518555,1.16358193377,-8.26957253418,1.0,0.0,0.0,0.0,1.0,0.0,0.0,0.0,1.0
1463082684435788313,557,1463082684433722327,,-1.53917098045,-9.61526298523,54.6922264099,0.0100079998374,1.0,0.0,0.0,0.0,1.0,0.0,0.0,0.0,1.0,-19.3292694092,18.475610733,-58.1707344055,1.0,0.0,0.0,0.0,1.0,0.0,0.0,0.0,1.0,-3.05021291504,1.24019645996,-8.77235488281,1.0,0.0,0.0,0.0,1.0,0.0,0.0,0.0,1.0
1463082684445226992,558,1463082684443635329,,-1.58341550827,-9.5614233017,53.9656028748,0.00999400019646,1.0,0.0,0.0,0.0,1.0,0.0,0.0,0.0,1.0,-13.3536586761,18.2317085266,-60.5487823486,1.0,0.0,0.0,0.0,1.0,0.0,0.0,0.0,1.0,-2.82515795898,1.22583125,-8.61912656108,1.0,0.0,0.0,0.0,1.0,0.0,0.0,0.0,1.0
1463082684455236712,559,1463082684453579893,,-1.52620625496,-9.5024061203,53.2048530579,0.009990000166,1.0,0.0,0.0,0.0,1.0,0.0,0.0,0.0,1.0,-7.98780536652,20.0,-63.1707305908,1.0,0.0,0.0,0.0,1.0,0.0,0.0,0.0,1.0,-2.85388837891,0.502782348633,-8.18338127441,1.0,0.0,0.0,0.0,1.0,0.0,0.0,0.0,1.0
1463082684465190599,560,1463082684463597894,,-1.38668775558,-9.43331432343,52.3982772827,0.0100100003183,1.0,0.0,0.0,0.0,1.0,0.0,0.0,0.0,1.0,-4.02439022064,20.4268302917,-66.9512252808,1.0,0.0,0.0,0.0,1.0,0.0,0.0,0.0,1.0,-3.07415493164,-0.0718260498047,-9.13627353516,1.0,0.0,0.0,0.0,1.0,0.0,0.0,0.0,1.0
1463082684479212707,561,1463082684473886416,,-1.24442827702,-9.36155986786,51.5714797974,0.010045000352,1.0,0.0,0.0,0.0,1.0,0.0,0.0,0.0,1.0,-2.37804889679,21.5243911743,-68.9634170532,1.0,0.0,0.0,0.0,1.0,0.0,0.0,0.0,1.0,-2.96881005859,0.167594116211,-8.36055161274,1.0,0.0,0.0,0.0,1.0,0.0,0.0,0.0,1.0
1463082684487094827,562,1463082684484050042,,-1.11191916466,-9.26461696625,50.7378616333,0.0100600002334,1.0,0.0,0.0,0.0,1.0,0.0,0.0,0.0,1.0,-3.35365867615,24.5731716156,-69.5121994019,1.0,0.0,0.0,0.0,1.0,0.0,0.0,0.0,1.0,-3.27526787109,0.15322890625,-8.87769975586,1.0,0.0,0.0,0.0,1.0,0.0,0.0,0.0,1.0
1463082684497906161,563,1463082684494166064,,-1.03914403915,-9.18031787872,49.9156837463,0.0101260002702,1.0,0.0,0.0,0.0,1.0,0.0,0.0,0.0,1.0,-5.36585378647,23.5975627899,-68.5365905762,1.0,0.0,0.0,0.0,1.0,0.0,0.0,0.0,1.0,-3.25132585449,0.718260498047,-8.60476135112,1.0,0.0,0.0,0.0,1.0,0.0,0.0,0.0,1.0
1463082684507139111,564,1463082684504430627,,-0.994150221348,-9.02913188934,49.12840271,0.00997299980372,1.0,0.0,0.0,0.0,1.0,0.0,0.0,0.0,1.0,-6.82926845551,27.7439041138,-66.4024353027,1.0,0.0,0.0,0.0,1.0,0.0,0.0,0.0,1.0,-2.60489140625,0.756567724609,-8.02536396484,1.0,0.0,0.0,0.0,1.0,0.0,0.0,0.0,1.0
1463082684516290396,565,1463082684513673630,,-0.98512750864,-8.91369056702,48.3940925598,0.00978699978441,1.0,0.0,0.0,0.0,1.0,0.0,0.0,0.0,1.0,-8.47560977936,28.4146347046,-62.7439041138,1.0,0.0,0.0,0.0,1.0,0.0,0.0,0.0,1.0,-3.35188232422,0.972045874023,-8.24563051758,1.0,0.0,0.0,0.0,1.0,0.0,0.0,0.0,1.0
1463082684527034177,566,1463082684523805537,,-0.97167301178,-8.7322063446,47.6513137817,0.0101220002398,1.0,0.0,0.0,0.0,1.0,0.0,0.0,0.0,1.0,-7.68292665482,30.7317066193,-61.0975608826,1.0,0.0,0.0,0.0,1.0,0.0,0.0,0.0,1.0,-2.64798703613,0.92416184082,-8.10197841797,1.0,0.0,0.0,0.0,1.0,0.0,0.0,0.0,1.0
1463082684536640148,567,1463082684533948070,,-0.931451320648,-8.54796028137,46.9211387634,0.00997699983418,1.0,0.0,0.0,0.0,1.0,0.0,0.0,0.0,1.0,-5.30487823486,30.1829280853,-60.8536643982,1.0,0.0,0.0,0.0,1.0,0.0,0.0,0.0,1.0,-2.44208569336,0.823605371094,-8.07324799805,1.0,0.0,0.0,0.0,1.0,0.0,0.0,0.0,1.0
1463082684546607368,568,1463082684544036331,,-0.839623451233,-8.3146905899,46.1705551147,0.00998799968511,1.0,0.0,0.0,0.0,1.0,0.0,0.0,0.0,1.0,-2.56097555161,29.7560997009,-62.5,1.0,0.0,0.0,0.0,1.0,0.0,0.0,0.0,1.0,-1.74297880859,0.483628735352,-8.75320126953,1.0,0.0,0.0,0.0,1.0,0.0,0.0,0.0,1.0
1463082684556905264,569,1463082684554059853,,-0.701568007469,-8.11115837097,45.4009170532,0.0100140003487,1.0,0.0,0.0,0.0,1.0,0.0,0.0,0.0,1.0,-2.07317066193,25.6097564697,-63.7195167542,1.0,0.0,0.0,0.0,1.0,0.0,0.0,0.0,1.0,-1.6041151123,-0.196324536133,-9.07402429199,1.0,0.0,0.0,0.0,1.0,0.0,0.0,0.0,1.0
1463082684566443631,570,1463082684564033219,,-0.614510536194,-7.95140886307,44.614566803,0.00997599959373,1.0,0.0,0.0,0.0,1.0,0.0,0.0,0.0,1.0,-1.15853655338,23.1097564697,-66.6463470459,1.0,0.0,0.0,0.0,1.0,0.0,0.0,0.0,1.0,-2.00155258789,0.818816967773,-9.58159562847,1.0,0.0,0.0,0.0,1.0,0.0,0.0,0.0,1.0
1463082684577696422,571,1463082684573736013,,-0.434506356716,-7.81913232803,43.7851371765,0.00999899953604,1.0,0.0,0.0,0.0,1.0,0.0,0.0,0.0,1.0,2.80487799644,20.3658542633,-70.1219482422,1.0,0.0,0.0,0.0,1.0,0.0,0.0,0.0,1.0,-2.00634099121,-0.0622492431641,-9.59117243511,1.0,0.0,0.0,0.0,1.0,0.0,0.0,0.0,1.0
1463082684586097239,572,1463082684583665316,,-0.228509694338,-7.71262121201,42.9075965881,0.00992199964821,1.0,0.0,0.0,0.0,1.0,0.0,0.0,0.0,1.0,2.86585378647,18.2926826477,-75.365852356,1.0,0.0,0.0,0.0,1.0,0.0,0.0,0.0,1.0,-2.05422502441,-0.45489831543,-9.37090471333,1.0,0.0,0.0,0.0,1.0,0.0,0.0,0.0,1.0
1463082684595986855,573,1463082684593663109,,-0.0183198917657,-7.6234126091,41.9959716797,0.0100050000474,1.0,0.0,0.0,0.0,1.0,0.0,0.0,0.0,1.0,3.41463422775,16.8292694092,-78.1707305908,1.0,0.0,0.0,0.0,1.0,0.0,0.0,0.0,1.0,-2.12605122035,-0.397437475586,-9.25598361816,1.0,0.0,0.0,0.0,1.0,0.0,0.0,0.0,1.0
1463082684606027981,574,1463082684603675330,,0.180220961571,-7.54160928726,41.0623321533,0.0100050000474,1.0,0.0,0.0,0.0,1.0,0.0,0.0,0.0,1.0,1.64634156227,14.5121955872,-80.3658599854,1.0,0.0,0.0,0.0,1.0,0.0,0.0,0.0,1.0,-1.92493813477,-0.512359155273,-9.39484672993,1.0,0.0,0.0,0.0,1.0,0.0,0.0,0.0,1.0
1463082684615879160,575,1463082684613720675,,0.297430068254,-7.4836640358,40.13306427,0.00999899953604,1.0,0.0,0.0,0.0,1.0,0.0,0.0,0.0,1.0,-0.609756112099,10.548781395,-80.792678833,1.0,0.0,0.0,0.0,1.0,0.0,0.0,0.0,1.0,-1.70945998535,0.435744702148,-9.54807680523,1.0,0.0,0.0,0.0,1.0,0.0,0.0,0.0,1.0
1463082684626413150,576,1463082684623675082,,0.377757698298,-7.42257070541,39.2251586914,0.0099950004369,1.0,0.0,0.0,0.0,1.0,0.0,0.0,0.0,1.0,-4.87804889679,7.50000047684,-78.5975570679,1.0,0.0,0.0,0.0,1.0,0.0,0.0,0.0,1.0,-1.10133276367,0.239420166016,-9.18894597168,1.0,0.0,0.0,0.0,1.0,0.0,0.0,0.0,1.0
1463082684636191933,577,1463082684633856312,,0.429094284773,-7.40734195709,38.3175811768,0.00999899953604,1.0,0.0,0.0,0.0,1.0,0.0,0.0,0.0,1.0,-5.18292713165,2.62195134163,-78.841468811,1.0,0.0,0.0,0.0,1.0,0.0,0.0,0.0,1.0,-1.08696755371,0.660799658203,-9.41400034321,1.0,0.0,0.0,0.0,1.0,0.0,0.0,0.0,1.0
1463082684646451340,578,1463082684644023428,,0.522824943066,-7.45984888077,37.3787460327,0.0100090000778,1.0,0.0,0.0,0.0,1.0,0.0,0.0,0.0,1.0,-4.39024400711,-2.74390244484,-81.4024429321,1.0,0.0,0.0,0.0,1.0,0.0,0.0,0.0,1.0,-1.35990654297,0.143652099609,-9.50976957866,1.0,0.0,0.0,0.0,1.0,0.0,0.0,0.0,1.0
1463082684656377623,579,1463082684653781065,,0.596733987331,-7.55732870102,36.4293518066,0.00998099986464,1.0,0.0,0.0,0.0,1.0,0.0,0.0,0.0,1.0,-5.48780488968,-7.07317113876,-82.8048782349,1.0,0.0,0.0,0.0,1.0,0.0,0.0,0.0,1.0,-1.42215578613,0.325611425781,-9.47146118306,1.0,0.0,0.0,0.0,1.0,0.0,0.0,0.0,1.0
1463082684665269949,580,1463082684663721254,,0.673972725868,-7.70960569382,35.4577331543,0.0100039998069,1.0,0.0,0.0,0.0,1.0,0.0,0.0,0.0,1.0,-5.85365867615,-10.0609760284,-84.6951217651,1.0,0.0,0.0,0.0,1.0,0.0,0.0,0.0,1.0,-1.90099611816,0.282515795898,-9.52413478862,1.0,0.0,0.0,0.0,1.0,0.0,0.0,0.0,1.0
1463082684676015241,581,1463082684673634568,,0.758993923664,-7.90056419373,34.4702720642,0.0100130001083,1.0,0.0,0.0,0.0,1.0,0.0,0.0,0.0,1.0,-5.12195110321,-12.4390249252,-86.1585388184,1.0,0.0,0.0,0.0,1.0,0.0,0.0,0.0,1.0,-2.26491477051,0.359130249023,-9.73961235352,1.0,0.0,0.0,0.0,1.0,0.0,0.0,0.0,1.0
1463082684686569647,582,1463082684683915538,,0.843656897545,-8.09344100952,33.4719543457,0.0100010000169,1.0,0.0,0.0,0.0,1.0,0.0,0.0,0.0,1.0,-3.65853667259,-13.4756097794,-87.5609741211,1.0,0.0,0.0,0.0,1.0,0.0,0.0,0.0,1.0,-2.19787712402,0.703895288086,-9.81622680664,1.0,0.0,0.0,0.0,1.0,0.0,0.0,0.0,1.0
1463082684696042650,583,1463082684693660206,,0.947947561741,-8.29838275909,32.4738998413,0.00999800022691,1.0,0.0,0.0,0.0,1.0,0.0,0.0,0.0,1.0,-2.01219511032,-14.3292694092,-87.5,1.0,0.0,0.0,0.0,1.0,0.0,0.0,0.0,1.0,-2.37025978969,0.708683691406,-9.99339772949,1.0,0.0,0.0,0.0,1.0,0.0,0.0,0.0,1.0
1463082684705981276,584,1463082684703807634,,1.06307840347,-8.50321483612,31.4791736603,0.0100010000169,1.0,0.0,0.0,0.0,1.0,0.0,0.0,0.0,1.0,-0.365853667259,-15.0000009537,-87.1951217651,1.0,0.0,0.0,0.0,1.0,0.0,0.0,0.0,1.0,-2.32237546422,0.852335791016,-10.0269165527,1.0,0.0,0.0,0.0,1.0,0.0,0.0,0.0,1.0
1463082684715782455,585,1463082684713717928,,1.19070863724,-8.7116355896,30.500579834,0.00999599974602,1.0,0.0,0.0,0.0,1.0,0.0,0.0,0.0,1.0,-0.243902444839,-15.2439022064,-85.4268341064,1.0,0.0,0.0,0.0,1.0,0.0,0.0,0.0,1.0,-2.4516625,0.656011254883,-10.1753570557,1.0,0.0,0.0,0.0,1.0,0.0,0.0,0.0,1.0
1463082684725691029,586,1463082684723679627,,1.31944465637,-8.92557907104,29.5322742462,0.0100130001083,1.0,0.0,0.0,0.0,1.0,0.0,0.0,0.0,1.0,1.15853655338,-15.9146347046,-84.3902511597,1.0,0.0,0.0,0.0,1.0,0.0,0.0,0.0,1.0,-2.57616098633,0.943315454102,-10.4866032715,1.0,0.0,0.0,0.0,1.0,0.0,0.0,0.0,1.0
1463082684736287207,587,1463082684733881534,,1.50185036659,-9.13055419922,28.5540180206,0.00997599959373,1.0,0.0,0.0,0.0,1.0,0.0,0.0,0.0,1.0,3.71951246262,-15.3048791885,-85.3048782349,1.0,0.0,0.0,0.0,1.0,0.0,0.0,0.0,1.0,-2.76769711914,0.497993945312,-11.0276928467,1.0,0.0,0.0,0.0,1.0,0.0,0.0,0.0,1.0
1463082684745387501,588,1463082684743702296,,1.71539592743,-9.33356189728,27.5588092804,0.0100149996579,1.0,0.0,0.0,0.0,1.0,0.0,0.0,0.0,1.0,4.51219558716,-13.4756097794,-86.2804946899,1.0,0.0,0.0,0.0,1.0,0.0,0.0,0.0,1.0,-3.12203896484,0.119710083008,-10.7164466309,1.0,0.0,0.0,0.0,1.0,0.0,0.0,0.0,1.0
1463082684756447219,589,1463082684754050609,,1.91179096699,-9.52144908905,26.5702400208,0.00999899953604,1.0,0.0,0.0,0.0,1.0,0.0,0.0,0.0,1.0,4.02439022064,-12.0731716156,-85.9756088257,1.0,0.0,0.0,0.0,1.0,0.0,0.0,0.0,1.0,-3.3231519043,0.383072265625,-11.0660000732,1.0,0.0,0.0,0.0,1.0,0.0,0.0,0.0,1.0
1463082684766684491,590,1463082684763884705,,2.11011981964,-9.68414592743,25.5582199097,0.0102629996836,1.0,0.0,0.0,0.0,1.0,0.0,0.0,0.0,1.0,4.14634132385,-9.51219558716,-85.8536605835,1.0,0.0,0.0,0.0,1.0,0.0,0.0,0.0,1.0,-3.30878669434,0.483628735352,-10.9223479736,1.0,0.0,0.0,0.0,1.0,0.0,0.0,0.0,1.0
1463082684777024211,591,1463082684773850883,,2.31772017479,-9.80806446075,24.5787467957,0.0098959999159,1.0,0.0,0.0,0.0,1.0,0.0,0.0,0.0,1.0,4.08536577225,-6.46341466904,-86.0365829468,1.0,0.0,0.0,0.0,1.0,0.0,0.0,0.0,1.0,-3.35188232422,0.15801730957,-10.9031943604,1.0,0.0,0.0,0.0,1.0,0.0,0.0,0.0,1.0
1463082684786670963,592,1463082684784030551,,2.5010330677,-9.92544555664,23.6048545837,0.0100710000843,1.0,0.0,0.0,0.0,1.0,0.0,0.0,0.0,1.0,0.426829278469,-5.67073154449,-83.5975646973,1.0,0.0,0.0,0.0,1.0,0.0,0.0,0.0,1.0,-3.30878669434,-0.0957680664062,-10.5727945312,1.0,0.0,0.0,0.0,1.0,0.0,0.0,0.0,1.0
1463082684795925215,593,1463082684793812772,,2.64607048035,-10.0011568069,22.6865139008,0.00979499984533,1.0,0.0,0.0,0.0,1.0,0.0,0.0,0.0,1.0,-5.18292713165,-2.19512200356,-80.3658599854,1.0,0.0,0.0,0.0,1.0,0.0,0.0,0.0,1.0,-3.31357509766,-0.646434448242,-10.7068698242,1.0,0.0,0.0,0.0,1.0,0.0,0.0,0.0,1.0
1463082684806152331,594,1463082684803992491,,2.67640137672,-10.054526329,21.8020782471,0.00996099971235,1.0,0.0,0.0,0.0,1.0,0.0,0.0,0.0,1.0,-13.5365858078,0.12195122242,-76.0365829468,1.0,0.0,0.0,0.0,1.0,0.0,0.0,0.0,1.0,-3.49074602051,-0.148440512063,-11.3293622559,1.0,0.0,0.0,0.0,1.0,0.0,0.0,0.0,1.0
1463082684815831114,595,1463082684813744139,,2.64125800133,-10.1119909286,20.9547481537,0.010006999597,1.0,0.0,0.0,0.0,1.0,0.0,0.0,0.0,1.0,-19.6951236725,1.8902438879,-72.0121994019,1.0,0.0,0.0,0.0,1.0,0.0,0.0,0.0,1.0,-3.85945307617,-0.196324536133,-11.0947304932,1.0,0.0,0.0,0.0,1.0,0.0,0.0,0.0,1.0
1463082684826832707,596,1463082684823759536,,2.54475235939,-10.1185979843,20.153553009,0.0100149996579,1.0,0.0,0.0,0.0,1.0,0.0,0.0,0.0,1.0,-23.9634151459,6.52439069748,-67.8048782349,1.0,0.0,0.0,0.0,1.0,0.0,0.0,0.0,1.0,-3.85945307617,0.0383072265625,-11.5544172119,1.0,0.0,0.0,0.0,1.0,0.0,0.0,0.0,1.0
1463082684836857584,597,1463082684833934412,,2.41043448448,-10.1030282974,19.3882808685,0.0100060002878,1.0,0.0,0.0,0.0,1.0,0.0,0.0,0.0,1.0,-26.3414649963,10.3048782349,-64.634147644,1.0,0.0,0.0,0.0,1.0,0.0,0.0,0.0,1.0,-4.21379462961,0.239420166016,-11.7267997314,1.0,0.0,0.0,0.0,1.0,0.0,0.0,0.0,1.0
1463082684845816576,598,1463082684843887153,,2.28562569618,-10.0427904129,18.62657547,0.00998899992555,1.0,0.0,0.0,0.0,1.0,0.0,0.0,0.0,1.0,-24.5121955872,14.0853662491,-64.6951217651,1.0,0.0,0.0,0.0,1.0,0.0,0.0,0.0,1.0,-4.06535441895,0.450109912109,-11.9039706543,1.0,0.0,0.0,0.0,1.0,0.0,0.0,0.0,1.0
1463082684855734370,599,1463082684853639947,,2.18088769913,-9.9562625885,17.8628330231,0.00999400019646,1.0,0.0,0.0,0.0,1.0,0.0,0.0,0.0,1.0,-22.7439041138,17.9878044128,-64.9390258789,1.0,0.0,0.0,0.0,1.0,0.0,0.0,0.0,1.0,-4.33350529714,0.411802685547,-11.9374894775,1.0,0.0,0.0,0.0,1.0,0.0,0.0,0.0,1.0
1463082684866055964,600,1463082684863907427,,2.1297492981,-9.83368301392,17.082408905,0.0100279999897,1.0,0.0,0.0,0.0,1.0,0.0,0.0,0.0,1.0,-18.5975627899,22.3780498505,-66.2804946899,1.0,0.0,0.0,0.0,1.0,0.0,0.0,0.0,1.0,-4.48194550781,0.177170922852,-11.8896054443,1.0,0.0,0.0,0.0,1.0,0.0,0.0,0.0,1.0
1463082684875879799,601,1463082684873711835,,2.09240317345,-9.67768669128,16.3082561493,0.0100520001724,1.0,0.0,0.0,0.0,1.0,0.0,0.0,0.0,1.0,-16.0975608826,26.8292694092,-65.7926864624,1.0,0.0,0.0,0.0,1.0,0.0,0.0,0.0,1.0,-4.6591161384,0.368707055664,-11.7459533447,1.0,0.0,0.0,0.0,1.0,0.0,0.0,0.0,1.0
1463082684886860142,602,1463082684884003690,,2.07870006561,-9.47357654572,15.5442838669,0.0100940000266,1.0,0.0,0.0,0.0,1.0,0.0,0.0,0.0,1.0,-13.1707324982,33.3536605835,-64.7561035156,1.0,0.0,0.0,0.0,1.0,0.0,0.0,0.0,1.0,-4.89853659668,0.397437475586,-11.3820346924,1.0,0.0,0.0,0.0,1.0,0.0,0.0,0.0,1.0
1463082684895967729,603,1463082684893627317,,2.11148667336,-9.20517444611,14.8058338165,0.00984000042081,1.0,0.0,0.0,0.0,1.0,0.0,0.0,0.0,1.0,-8.96341514587,38.6585388184,-64.2073135376,1.0,0.0,0.0,0.0,1.0,0.0,0.0,0.0,1.0,-4.5489831543,0.196324536133,-11.6980693115,1.0,0.0,0.0,0.0,1.0,0.0,0.0,0.0,1.0
1463082684905713960,604,1463082684903980526,,2.18355941772,-8.87065792084,14.0380649567,0.00998399965465,1.0,0.0,0.0,0.0,1.0,0.0,0.0,0.0,1.0,-5.97560977936,43.9024391174,-66.1585388184,1.0,0.0,0.0,0.0,1.0,0.0,0.0,0.0,1.0,-4.24731403738,-0.0383072265625,-11.6023012451,1.0,0.0,0.0,0.0,1.0,0.0,0.0,0.0,1.0
1463082684915341754,605,1463082684913720871,,2.27143001556,-8.48855686188,13.2795343399,0.00999999977648,1.0,0.0,0.0,0.0,1.0,0.0,0.0,0.0,1.0,-3.84146332741,45.6097564697,-65.3048782349,1.0,0.0,0.0,0.0,1.0,0.0,0.0,0.0,1.0,-3.27526787109,-0.0718260498047,-10.8744639404,1.0,0.0,0.0,0.0,1.0,0.0,0.0,0.0,1.0
1463082684925413244,606,1463082684923784602,,2.35386443138,-8.05404472351,12.5413417816,0.00998700037599,1.0,0.0,0.0,0.0,1.0,0.0,0.0,0.0,1.0,-2.01219511032,47.6829299927,-63.8414649963,1.0,0.0,0.0,0.0,1.0,0.0,0.0,0.0,1.0,-2.50912333984,0.210689746094,-10.7499654541,1.0,0.0,0.0,0.0,1.0,0.0,0.0,0.0,1.0
1463082684936049578,607,1463082684933774999,,2.39689683914,-7.61302947998,11.8445234299,0.0100250001997,1.0,0.0,0.0,0.0,1.0,0.0,0.0,0.0,1.0,-2.92682933807,44.0243911743,-59.6951255798,1.0,0.0,0.0,0.0,1.0,0.0,0.0,0.0,1.0,-1.6041151123,0.555454785156,-10.8457335205,1.0,0.0,0.0,0.0,1.0,0.0,0.0,0.0,1.0
1463082684945228987,608,1463082684943601490,,2.43832278252,-7.17764282227,11.2149848938,0.00998399965465,1.0,0.0,0.0,0.0,1.0,0.0,0.0,0.0,1.0,-2.92682933807,42.2560958862,-53.1097602844,1.0,0.0,0.0,0.0,1.0,0.0,0.0,0.0,1.0,-1.10133276367,0.277727392578,-9.89762966309,1.0,0.0,0.0,0.0,1.0,0.0,0.0,0.0,1.0
1463082684956050164,609,1463082684953734960,,2.45529818535,-6.79473400116,10.6430301666,0.0100389998406,1.0,0.0,0.0,0.0,1.0,0.0,0.0,0.0,1.0,-3.59756112099,38.1707305908,-47.0121994019,1.0,0.0,0.0,0.0,1.0,0.0,0.0,0.0,1.0,-1.2497732666,0.383072265625,-10.060435376,1.0,0.0,0.0,0.0,1.0,0.0,0.0,0.0,1.0
1463082684967908891,610,1463082684963921034,,2.49397063255,-6.47715854645,10.1155080795,0.0100039998069,1.0,0.0,0.0,0.0,1.0,0.0,0.0,0.0,1.0,-2.80487799644,34.1463432312,-42.3780517578,1.0,0.0,0.0,0.0,1.0,0.0,0.0,0.0,1.0,-1.54665427246,-0.0191536132812,-9.8305920166,1.0,0.0,0.0,0.0,1.0,0.0,0.0,0.0,1.0
1463082684976820540,611,1463082684973789192,,2.54838657379,-6.20586919785,9.59531497955,0.00995600037277,1.0,0.0,0.0,0.0,1.0,0.0,0.0,0.0,1.0,-2.25609779358,33.7804870605,-41.7682952881,1.0,0.0,0.0,0.0,1.0,0.0,0.0,0.0,1.0,-2.20745393066,-0.263362164351,-9.68693991699,1.0,0.0,0.0,0.0,1.0,0.0,0.0,0.0,1.0
1463082684987353905,612,1463082684985135888,,2.66204571724,-5.89665794373,8.99328422546,0.0115799997002,1.0,0.0,0.0,0.0,1.0,0.0,0.0,0.0,1.0,-1.95121955872,35.0000038147,-41.1585350037,1.0,0.0,0.0,0.0,1.0,0.0,0.0,0.0,1.0,-2.51870014648,-1.0534486574,-9.7587659668,1.0,0.0,0.0,0.0,1.0,0.0,0.0,0.0,1.0
1463082684996104773,613,1463082684993855246,,2.72601556778,-5.69413232803,8.57794284821,0.00851599965245,1.0,0.0,0.0,0.0,1.0,0.0,0.0,0.0,1.0,-2.80487799644,34.2682952881,-38.1097564697,1.0,0.0,0.0,0.0,1.0,0.0,0.0,0.0,1.0,-2.91613762207,-0.933738647461,-9.95509050293,1.0,0.0,0.0,0.0,1.0,0.0,0.0,0.0,1.0
1463082685006615378,614,1463082685003727102,,2.73353838921,-5.40831184387,8.10259342194,0.00991300027817,1.0,0.0,0.0,0.0,1.0,0.0,0.0,0.0,1.0,-4.14634132385,39.390247345,-38.1097564697,1.0,0.0,0.0,0.0,1.0,0.0,0.0,0.0,1.0,-2.86346518555,0.0,-9.88805285645,1.0,0.0,0.0,0.0,1.0,0.0,0.0,0.0,1.0
1463082685016289942,615,1463082685013839322,,2.72024607658,-5.13944959641,7.63456726074,0.0100140003487,1.0,0.0,0.0,0.0,1.0,0.0,0.0,0.0,1.0,-3.96341490746,39.0243911743,-37.0731697083,1.0,0.0,0.0,0.0,1.0,0.0,0.0,0.0,1.0,-3.3470939209,0.383072265625,-10.6302553711,1.0,0.0,0.0,0.0,1.0,0.0,0.0,0.0,1.0
1463082685026644401,616,1463082685024075448,,2.68219351768,-4.81335067749,7.19877767563,0.00998899992555,1.0,0.0,0.0,0.0,1.0,0.0,0.0,0.0,1.0,-4.14634132385,40.9756088257,-34.2073173523,1.0,0.0,0.0,0.0,1.0,0.0,0.0,0.0,1.0,-2.47081611328,0.713472094727,-10.6206785645,1.0,0.0,0.0,0.0,1.0,0.0,0.0,0.0,1.0
1463082685036124227,617,1463082685033792564,,2.67801237106,-4.49704933167,6.78104972839,0.0100100003183,1.0,0.0,0.0,0.0,1.0,0.0,0.0,0.0,1.0,-2.68292689323,44.6341438293,-32.2560958862,1.0,0.0,0.0,0.0,1.0,0.0,0.0,0.0,1.0,-3.38061274414,0.287304199219,-10.7308118408,1.0,0.0,0.0,0.0,1.0,0.0,0.0,0.0,1.0
1463082685046198269,618,1463082685043694056,,2.71641492844,-4.15662908554,6.3508810997,0.00998700037599,1.0,0.0,0.0,0.0,1.0,0.0,0.0,0.0,1.0,-0.975609779358,43.9024391174,-33.3536605835,1.0,0.0,0.0,0.0,1.0,0.0,0.0,0.0,1.0,-2.7102362793,-0.258573779297,-10.927136377,1.0,0.0,0.0,0.0,1.0,0.0,0.0,0.0,1.0
1463082685055889761,619,1463082685053655130,,2.73938107491,-3.81901049614,5.91342735291,0.00999100040644,1.0,0.0,0.0,0.0,1.0,0.0,0.0,0.0,1.0,-0.426829278469,44.5121955872,-34.2682952881,1.0,0.0,0.0,0.0,1.0,0.0,0.0,0.0,1.0,-2.78685073242,0.110133276367,-10.7212350342,1.0,0.0,0.0,0.0,1.0,0.0,0.0,0.0,1.0
1463082685066901094,620,1463082685063886985,,2.79467701912,-3.45836901665,5.47903013229,0.00999299995601,1.0,0.0,0.0,0.0,1.0,0.0,0.0,0.0,1.0,0.12195122242,44.5121955872,-33.7804870605,1.0,0.0,0.0,0.0,1.0,0.0,0.0,0.0,1.0,-2.26491477051,-0.478840332031,-10.7451770508,1.0,0.0,0.0,0.0,1.0,0.0,0.0,0.0,1.0
1463082685075554202,621,1463082685073631445,,2.85604763031,-3.10906553268,5.04441213608,0.010037000291,1.0,0.0,0.0,0.0,1.0,0.0,0.0,0.0,1.0,-0.0609756112099,41.8292694092,-33.4756126404,1.0,0.0,0.0,0.0,1.0,0.0,0.0,0.0,1.0,-1.86747729492,-0.670376464844,-10.419565625,1.0,0.0,0.0,0.0,1.0,0.0,0.0,0.0,1.0
1463082685086563764,622,1463082685084748767,,2.90415477753,-2.76408004761,4.61793375015,0.00999699998647,1.0,0.0,0.0,0.0,1.0,0.0,0.0,0.0,1.0,-1.46341466904,39.2682914734,-32.7439041138,1.0,0.0,0.0,0.0,1.0,0.0,0.0,0.0,1.0,-1.37906015625,-0.756567724609,-10.4530844482,1.0,0.0,0.0,0.0,1.0,0.0,0.0,0.0,1.0
1463082685096259578,623,1463082685093733385,,2.93859887123,-2.44635438919,4.21880483627,0.00998799968511,1.0,0.0,0.0,0.0,1.0,0.0,0.0,0.0,1.0,-3.53658556938,36.1585350037,-29.8780498505,1.0,0.0,0.0,0.0,1.0,0.0,0.0,0.0,1.0,-1.18273554705,-0.938527050781,-10.1466266357,1.0,0.0,0.0,0.0,1.0,0.0,0.0,0.0,1.0
1463082685105319769,624,1463082685103694251,,2.91534328461,-2.18800139427,3.83494114876,0.0100680002943,1.0,0.0,0.0,0.0,1.0,0.0,0.0,0.0,1.0,-7.74390268326,29.9390258789,-27.8048782349,1.0,0.0,0.0,0.0,1.0,0.0,0.0,0.0,1.0,-1.11090957031,-0.723048901367,-10.299855542,1.0,0.0,0.0,0.0,1.0,0.0,0.0,0.0,1.0
1463082685117135162,625,1463082685113678190,,2.88125753403,-1.97371780872,3.48116493225,0.00991300027817,1.0,0.0,0.0,0.0,1.0,0.0,0.0,0.0,1.0,-9.26829242706,26.9512195587,-25.182926178,1.0,0.0,0.0,0.0,1.0,0.0,0.0,0.0,1.0,-1.17794714373,-0.799663354492,-9.83538041992,1.0,0.0,0.0,0.0,1.0,0.0,0.0,0.0,1.0
1463082685126701498,626,1463082685123712962,,2.80416464806,-1.80288565159,3.14248323441,0.0100149996579,1.0,0.0,0.0,0.0,1.0,0.0,0.0,0.0,1.0,-10.4268293381,23.5975627899,-23.2317085266,1.0,0.0,0.0,0.0,1.0,0.0,0.0,0.0,1.0,-1.33596452637,-0.282515795898,-9.89284125977,1.0,0.0,0.0,0.0,1.0,0.0,0.0,0.0,1.0
1463082685136002313,627,1463082685133722838,,2.71914601326,-1.66985833645,2.83046770096,0.00999400019646,1.0,0.0,0.0,0.0,1.0,0.0,0.0,0.0,1.0,-9.14634132385,20.0609760284,-20.4878044128,1.0,0.0,0.0,0.0,1.0,0.0,0.0,0.0,1.0,-1.25935007324,0.067037651051,-9.4954043687,1.0,0.0,0.0,0.0,1.0,0.0,0.0,0.0,1.0
1463082685146346876,628,1463082685143633288,,2.64945077896,-1.55914735794,2.52504181862,0.0100020002574,1.0,0.0,0.0,0.0,1.0,0.0,0.0,0.0,1.0,-6.89024400711,18.0487823486,-19.6951236725,1.0,0.0,0.0,0.0,1.0,0.0,0.0,0.0,1.0,-1.22583125,0.181959326172,-9.22246479492,1.0,0.0,0.0,0.0,1.0,0.0,0.0,0.0,1.0
1463082685155210661,629,1463082685153605248,,2.61725378036,-1.49121928215,2.22750020027,0.0100130001083,1.0,0.0,0.0,0.0,1.0,0.0,0.0,0.0,1.0,-3.17073178291,13.9634151459,-18.658536911,1.0,0.0,0.0,0.0,1.0,0.0,0.0,0.0,1.0,-1.20667770978,0.172382519531,-9.05487067871,1.0,0.0,0.0,0.0,1.0,0.0,0.0,0.0,1.0
1463082685166350952,630,1463082685163661843,,2.6153948307,-1.44847893715,1.93480467796,0.00999899953604,1.0,0.0,0.0,0.0,1.0,0.0,0.0,0.0,1.0,-0.243902444839,11.9512195587,-18.1097564697,1.0,0.0,0.0,0.0,1.0,0.0,0.0,0.0,1.0,-1.2976572998,0.15801730957,-9.23204160156,1.0,0.0,0.0,0.0,1.0,0.0,0.0,0.0,1.0
1463082685176030829,631,1463082685173599636,,2.64426445961,-1.44227826595,1.65508615971,0.00998300034553,1.0,0.0,0.0,0.0,1.0,0.0,0.0,0.0,1.0,2.74390244484,10.1829271317,-16.7682933807,1.0,0.0,0.0,0.0,1.0,0.0,0.0,0.0,1.0,-1.65199914551,0.143652099609,-9.52892319194,1.0,0.0,0.0,0.0,1.0,0.0,0.0,0.0,1.0
1463082685186373048,632,1463082685183621022,,2.70039868355,-1.44979667664,1.36839830875,0.0100079998374,1.0,0.0,0.0,0.0,1.0,0.0,0.0,0.0,1.0,5.60975599289,9.63414573669,-17.3780498505,1.0,0.0,0.0,0.0,1.0,0.0,0.0,0.0,1.0,-1.79565124512,0.167594116211,-9.48103915874,1.0,0.0,0.0,0.0,1.0,0.0,0.0,0.0,1.0
1463082685196071363,633,1463082685193637722,,2.78203225136,-1.4737932682,1.07989859581,0.0100090000778,1.0,0.0,0.0,0.0,1.0,0.0,0.0,0.0,1.0,8.59756088257,9.32926845551,-17.5609760284,1.0,0.0,0.0,0.0,1.0,0.0,0.0,0.0,1.0,-2.00634099121,0.234631762695,-9.31344387349,1.0,0.0,0.0,0.0,1.0,0.0,0.0,0.0,1.0
1463082685205248637,634,1463082685203585671,,2.88671517372,-1.5035238266,0.793656408787,0.00997900031507,1.0,0.0,0.0,0.0,1.0,0.0,0.0,0.0,1.0,10.9146347046,9.45121955872,-17.4390239716,1.0,0.0,0.0,0.0,1.0,0.0,0.0,0.0,1.0,-2.12605122035,0.220266552734,-9.24640681152,1.0,0.0,0.0,0.0,1.0,0.0,0.0,0.0,1.0
1463082685216360073,635,1463082685213772005,,3.00802206993,-1.51551437378,0.499125212431,0.010006999597,1.0,0.0,0.0,0.0,1.0,0.0,0.0,0.0,1.0,13.2317075729,9.5731716156,-18.2317085266,1.0,0.0,0.0,0.0,1.0,0.0,0.0,0.0,1.0,-1.87226569824,0.320823022461,-9.30865547017,1.0,0.0,0.0,0.0,1.0,0.0,0.0,0.0,1.0
1463082685226123752,636,1463082685223598497,,3.14673495293,-1.53187084198,0.195054680109,0.0100100003183,1.0,0.0,0.0,0.0,1.0,0.0,0.0,0.0,1.0,15.3658533096,9.5731716156,-19.2073173523,1.0,0.0,0.0,0.0,1.0,0.0,0.0,0.0,1.0,-1.91536132812,0.363918652344,-9.05487067871,1.0,0.0,0.0,0.0,1.0,0.0,0.0,0.0,1.0
1463082685235243995,637,1463082685233643373,,3.32425570488,-1.5542948246,-0.116409920156,0.00999199971557,1.0,0.0,0.0,0.0,1.0,0.0,0.0,0.0,1.0,16.8292694092,9.20731735229,-19.9390239716,1.0,0.0,0.0,0.0,1.0,0.0,0.0,0.0,1.0,-1.96324536133,-0.0526724365234,-8.97825622559,1.0,0.0,0.0,0.0,1.0,0.0,0.0,0.0,1.0
1463082685246075797,638,1463082685243588874,,3.51157164574,-1.57803547382,-0.431893527508,0.0100039998069,1.0,0.0,0.0,0.0,1.0,0.0,0.0,0.0,1.0,16.9512195587,9.14634132385,-20.3048782349,1.0,0.0,0.0,0.0,1.0,0.0,0.0,0.0,1.0,-1.98239897461,-0.210689746094,-8.90164177246,1.0,0.0,0.0,0.0,1.0,0.0,0.0,0.0,1.0
1463082685255228904,639,1463082685253598647,,3.70123076439,-1.59785938263,-0.758339345455,0.00999100040644,1.0,0.0,0.0,0.0,1.0,0.0,0.0,0.0,1.0,15.7926826477,8.59756088257,-21.4024391174,1.0,0.0,0.0,0.0,1.0,0.0,0.0,0.0,1.0,-1.97282216797,-0.488417138672,-9.42357714985,1.0,0.0,0.0,0.0,1.0,0.0,0.0,0.0,1.0
1463082685266543934,640,1463082685263838262,,3.84831833839,-1.60434317589,-1.08632981777,0.0100079998374,1.0,0.0,0.0,0.0,1.0,0.0,0.0,0.0,1.0,14.7560987473,8.96341514587,-21.6463432312,1.0,0.0,0.0,0.0,1.0,0.0,0.0,0.0,1.0,-1.81001645508,0.0335188255255,-9.36132790669,1.0,0.0,0.0,0.0,1.0,0.0,0.0,0.0,1.0
1463082685276571987,641,1463082685273601837,,3.97693014145,-1.62632215023,-1.40937912464,0.0100060002878,1.0,0.0,0.0,0.0,1.0,0.0,0.0,0.0,1.0,13.1097564697,7.68292665482,-21.0975627899,1.0,0.0,0.0,0.0,1.0,0.0,0.0,0.0,1.0,-1.8866309082,0.0430956298828,-9.46667277974,1.0,0.0,0.0,0.0,1.0,0.0,0.0,0.0,1.0
1463082685286601603,642,1463082685283602182,,4.06398916245,-1.64037942886,-1.71653687954,0.00998799968511,1.0,0.0,0.0,0.0,1.0,0.0,0.0,0.0,1.0,10.1219511032,7.13414621353,-19.5731716156,1.0,0.0,0.0,0.0,1.0,0.0,0.0,0.0,1.0,-1.62326872559,0.205901342773,-9.32302068013,1.0,0.0,0.0,0.0,1.0,0.0,0.0,0.0,1.0
1463082685296125022,643,1463082685293622214,,4.1334605217,-1.67375683784,-2.0118997097,0.0100050000474,1.0,0.0,0.0,0.0,1.0,0.0,0.0,0.0,1.0,7.62195110321,6.64634132385,-18.2926826477,1.0,0.0,0.0,0.0,1.0,0.0,0.0,0.0,1.0,-1.93451494141,0.0718260498047,-9.66778688823,1.0,0.0,0.0,0.0,1.0,0.0,0.0,0.0,1.0
1463082685305502920,644,1463082685303662403,,4.16794919968,-1.7088688612,-2.30135607719,0.00999899953604,1.0,0.0,0.0,0.0,1.0,0.0,0.0,0.0,1.0,5.73170757294,5.36585378647,-17.6829280853,1.0,0.0,0.0,0.0,1.0,0.0,0.0,0.0,1.0,-1.72861359863,0.335188232422,-9.60074924175,1.0,0.0,0.0,0.0,1.0,0.0,0.0,0.0,1.0
1463082685316434045,645,1463082685313763373,,4.20493221283,-1.7535738945,-2.59692454338,0.00999400019646,1.0,0.0,0.0,0.0,1.0,0.0,0.0,0.0,1.0,4.75609779358,4.69512224197,-18.2317085266,1.0,0.0,0.0,0.0,1.0,0.0,0.0,0.0,1.0,-1.87705410156,0.129286889648,-10.0412817627,1.0,0.0,0.0,0.0,1.0,0.0,0.0,0.0,1.0
1463082685326204495,646,1463082685323653041,,4.21773529053,-1.82609450817,-2.89680433273,0.0100140003487,1.0,0.0,0.0,0.0,1.0,0.0,0.0,0.0,1.0,3.96341490746,2.98780488968,-18.5365848541,1.0,0.0,0.0,0.0,1.0,0.0,0.0,0.0,1.0,-2.04464821777,0.421379492187,-9.81143840332,1.0,0.0,0.0,0.0,1.0,0.0,0.0,0.0,1.0
1463082685336660828,647,1463082685333676668,,4.22908973694,-1.89428007603,-3.18946266174,0.00999100040644,1.0,0.0,0.0,0.0,1.0,0.0,0.0,0.0,1.0,1.2804877758,2.13414645195,-17.7439022064,1.0,0.0,0.0,0.0,1.0,0.0,0.0,0.0,1.0,-1.85311208496,-0.0335188255255,-10.0125513428,1.0,0.0,0.0,0.0,1.0,0.0,0.0,0.0,1.0
1463082685346082529,648,1463082685343665138,,4.19626522064,-1.97421586514,-3.45864725113,0.0100469999015,1.0,0.0,0.0,0.0,1.0,0.0,0.0,0.0,1.0,-0.304878056049,1.70731711388,-15.3048791885,1.0,0.0,0.0,0.0,1.0,0.0,0.0,0.0,1.0,-2.03028300781,0.483628735352,-10.3621047852,1.0,0.0,0.0,0.0,1.0,0.0,0.0,0.0,1.0
1463082685357235424,649,1463082685353817618,,4.15666532516,-2.05954241753,-3.71054124832,0.0101950000972,1.0,0.0,0.0,0.0,1.0,0.0,0.0,0.0,1.0,-1.46341466904,1.2804877758,-13.1707324982,1.0,0.0,0.0,0.0,1.0,0.0,0.0,0.0,1.0,-2.04464821777,0.387860668945,-10.5440641113,1.0,0.0,0.0,0.0,1.0,0.0,0.0,0.0,1.0
1463082685367468893,650,1463082685363651609,,4.13018512726,-2.14590716362,-3.95379829407,0.00976399984211,1.0,0.0,0.0,0.0,1.0,0.0,0.0,0.0,1.0,-1.70731711388,-0.12195122242,-13.2317075729,1.0,0.0,0.0,0.0,1.0,0.0,0.0,0.0,1.0,-1.91536132812,0.134075302102,-10.7451770508,1.0,0.0,0.0,0.0,1.0,0.0,0.0,0.0,1.0
1463082685376656480,651,1463082685373662163,,4.12657928467,-2.26346540451,-4.22781133652,0.00999699998647,1.0,0.0,0.0,0.0,1.0,0.0,0.0,0.0,1.0,-1.09756100178,-2.74390244484,-15.4878053665,1.0,0.0,0.0,0.0,1.0,0.0,0.0,0.0,1.0,-2.00634099121,-0.167594116211,-10.6541973877,1.0,0.0,0.0,0.0,1.0,0.0,0.0,0.0,1.0
1463082685386608856,652,1463082685383798497,,4.13343811035,-2.37616014481,-4.52137374878,0.0100680002943,1.0,0.0,0.0,0.0,1.0,0.0,0.0,0.0,1.0,-1.76829278469,-1.70731711388,-17.2560977936,1.0,0.0,0.0,0.0,1.0,0.0,0.0,0.0,1.0,-2.14520483363,-0.469263525391,-10.6350437744,1.0,0.0,0.0,0.0,1.0,0.0,0.0,0.0,1.0
1463082685396269827,653,1463082685394037071,,4.08351945877,-2.51823973656,-4.81750488281,0.0102739995345,1.0,0.0,0.0,0.0,1.0,0.0,0.0,0.0,1.0,-5.48780488968,-4.14634132385,-16.8292694092,1.0,0.0,0.0,0.0,1.0,0.0,0.0,0.0,1.0,-2.29364519043,-0.114921679688,-11.0995188965,1.0,0.0,0.0,0.0,1.0,0.0,0.0,0.0,1.0
1463082685405300799,654,1463082685403722573,,4.0065870285,-2.64053153992,-5.06978797913,0.0096540004015,1.0,0.0,0.0,0.0,1.0,0.0,0.0,0.0,1.0,-8.59756088257,-4.08536577225,-14.1463422775,1.0,0.0,0.0,0.0,1.0,0.0,0.0,0.0,1.0,-1.90099611816,-0.110133276367,-10.2950671387,1.0,0.0,0.0,0.0,1.0,0.0,0.0,0.0,1.0
1463082685416858953,655,1463082685413740835,,3.88182592392,-2.76684713364,-5.31201553345,0.00999100040644,1.0,0.0,0.0,0.0,1.0,0.0,0.0,0.0,1.0,-12.7439022064,-3.65853667259,-12.3170728683,1.0,0.0,0.0,0.0,1.0,0.0,0.0,0.0,1.0,-2.07337849156,-0.0335188255255,-10.8505219238,1.0,0.0,0.0,0.0,1.0,0.0,0.0,0.0,1.0
1463082685425765655,656,1463082685423716180,,3.7280523777,-2.9250805378,-5.52232456207,0.0100119998679,1.0,0.0,0.0,0.0,1.0,0.0,0.0,0.0,1.0,-15.1829271317,-7.62195110321,-8.84146404266,1.0,0.0,0.0,0.0,1.0,0.0,0.0,0.0,1.0,-1.87226569824,0.0526724365234,-10.793061084,1.0,0.0,0.0,0.0,1.0,0.0,0.0,0.0,1.0
1463082685435778812,657,1463082685433655535,,3.54064106941,-3.064234972,-5.69551515579,0.0100010000169,1.0,0.0,0.0,0.0,1.0,0.0,0.0,0.0,1.0,-18.841463089,-6.34146356583,-5.24390268326,1.0,0.0,0.0,0.0,1.0,0.0,0.0,0.0,1.0,-1.71424838867,0.0,-10.7260234375,1.0,0.0,0.0,0.0,1.0,0.0,0.0,0.0,1.0
1463082685445868116,658,1463082685443722599,,3.33647894859,-3.25126481056,-5.84044456482,0.00999800022691,1.0,0.0,0.0,0.0,1.0,0.0,0.0,0.0,1.0,-21.158536911,-9.02439117432,-2.25609779358,1.0,0.0,0.0,0.0,1.0,0.0,0.0,0.0,1.0,-2.15478164027,-0.105344873047,-10.9462899902,1.0,0.0,0.0,0.0,1.0,0.0,0.0,0.0,1.0
1463082685456537522,659,1463082685453665913,,3.1046435833,-3.44268608093,-5.96377420425,0.00998600013554,1.0,0.0,0.0,0.0,1.0,0.0,0.0,0.0,1.0,-23.475610733,-9.02439117432,-0.18292683363,1.0,0.0,0.0,0.0,1.0,0.0,0.0,0.0,1.0,-2.22181914063,0.0143652099609,-10.8074262939,1.0,0.0,0.0,0.0,1.0,0.0,0.0,0.0,1.0
1463082685467048387,660,1463082685463708706,,2.85474562645,-3.63590288162,-6.06903362274,0.0100130001083,1.0,0.0,0.0,0.0,1.0,0.0,0.0,0.0,1.0,-24.0243911743,-8.90243911743,1.52439022064,1.0,0.0,0.0,0.0,1.0,0.0,0.0,0.0,1.0,-2.31279880371,0.282515795898,-10.9558667969,1.0,0.0,0.0,0.0,1.0,0.0,0.0,0.0,1.0
1463082685477950657,661,1463082685473748634,,2.60663604736,-3.84436321259,-6.1652803421,0.00998700037599,1.0,0.0,0.0,0.0,1.0,0.0,0.0,0.0,1.0,-22.9878044128,-9.69512176514,2.31707310677,1.0,0.0,0.0,0.0,1.0,0.0,0.0,0.0,1.0,-2.55700737305,0.526724328702,-11.2192289795,1.0,0.0,0.0,0.0,1.0,0.0,0.0,0.0,1.0
1463082685486965900,662,1463082685484022520,,2.36170887947,-4.05210018158,-6.24659442902,0.0101079996675,1.0,0.0,0.0,0.0,1.0,0.0,0.0,0.0,1.0,-21.5243911743,-9.51219558716,3.7804877758,1.0,0.0,0.0,0.0,1.0,0.0,0.0,0.0,1.0,-2.50912333984,0.723048901367,-11.0420580566,1.0,0.0,0.0,0.0,1.0,0.0,0.0,0.0,1.0
1463082685496019112,663,1463082685493725783,,2.15999531746,-4.24648809433,-6.31072616577,0.00990399997681,1.0,0.0,0.0,0.0,1.0,0.0,0.0,0.0,1.0,-19.3902435303,-8.29268264771,5.36585378647,1.0,0.0,0.0,0.0,1.0,0.0,0.0,0.0,1.0,-2.53785375977,0.397437475586,-10.8170031006,1.0,0.0,0.0,0.0,1.0,0.0,0.0,0.0,1.0
1463082685505831541,664,1463082685503686180,,1.96299636364,-4.42018699646,-6.35353279114,0.010006999597,1.0,0.0,0.0,0.0,1.0,0.0,0.0,0.0,1.0,-16.5853652954,-8.59756088257,7.37804937363,1.0,0.0,0.0,0.0,1.0,0.0,0.0,0.0,1.0,-2.10689731481,0.842758984375,-11.166556543,1.0,0.0,0.0,0.0,1.0,0.0,0.0,0.0,1.0
1463082685516112198,665,1463082685513591734,,1.79341554642,-4.59329557419,-6.3796005249,0.00998399965465,1.0,0.0,0.0,0.0,1.0,0.0,0.0,0.0,1.0,-12.5609760284,-8.78048801422,8.90243911743,1.0,0.0,0.0,0.0,1.0,0.0,0.0,0.0,1.0,-2.06859023437,1.11569797363,-11.0564232666,1.0,0.0,0.0,0.0,1.0,0.0,0.0,0.0,1.0
1463082685525284784,666,1463082685523613589,,1.67957401276,-4.76235437393,-6.40894412994,0.0100109996274,1.0,0.0,0.0,0.0,1.0,0.0,0.0,0.0,1.0,-7.07317113876,-10.4878053665,8.59756088257,1.0,0.0,0.0,0.0,1.0,0.0,0.0,0.0,1.0,-1.66636435547,1.12048637695,-11.0516348633,1.0,0.0,0.0,0.0,1.0,0.0,0.0,0.0,1.0
1463082685535336639,667,1463082685533618570,,1.61499619484,-4.94683694839,-6.43544960022,0.00999899953604,1.0,0.0,0.0,0.0,1.0,0.0,0.0,0.0,1.0,-2.07317066193,-12.9268293381,8.90243911743,1.0,0.0,0.0,0.0,1.0,0.0,0.0,0.0,1.0,-1.4844050293,1.12527478027,-10.778695874,1.0,0.0,0.0,0.0,1.0,0.0,0.0,0.0,1.0
1463082685545835108,668,1463082685543695581,,1.60190725327,-5.13004398346,-6.45432949066,0.0100180003792,1.0,0.0,0.0,0.0,1.0,0.0,0.0,0.0,1.0,3.23170733452,-15.3658533096,9.69512176514,1.0,0.0,0.0,0.0,1.0,0.0,0.0,0.0,1.0,-0.991199487305,1.12527478027,-10.5632177246,1.0,0.0,0.0,0.0,1.0,0.0,0.0,0.0,1.0
1463082685555264465,669,1463082685553669156,,1.62744247913,-5.35105085373,-6.47218799591,0.009990000166,1.0,0.0,0.0,0.0,1.0,0.0,0.0,0.0,1.0,6.95121955872,-18.7195110321,9.87804889679,1.0,0.0,0.0,0.0,1.0,0.0,0.0,0.0,1.0,-1.08696755371,1.07260241682,-10.285490332,1.0,0.0,0.0,0.0,1.0,0.0,0.0,0.0,1.0
1463082685565673507,670,1463082685563647730,,1.69847643375,-5.5989947319,-6.49331283569,0.00999899953604,1.0,0.0,0.0,0.0,1.0,0.0,0.0,0.0,1.0,10.6707315445,-21.341463089,9.69512176514,1.0,0.0,0.0,0.0,1.0,0.0,0.0,0.0,1.0,-1.10612116699,0.895431420898,-9.98860932617,1.0,0.0,0.0,0.0,1.0,0.0,0.0,0.0,1.0
1463082685575225468,671,1463082685573653283,,1.78942167759,-5.85547780991,-6.52170419693,0.0100020002574,1.0,0.0,0.0,0.0,1.0,0.0,0.0,0.0,1.0,12.9268293381,-24.0243911743,9.02439117432,1.0,0.0,0.0,0.0,1.0,0.0,0.0,0.0,1.0,-0.804451757813,0.9193734375,-9.72524714355,1.0,0.0,0.0,0.0,1.0,0.0,0.0,0.0,1.0
1463082685585239459,672,1463082685583655035,,1.91899847984,-6.1386013031,-6.56921005249,0.00999899953604,1.0,0.0,0.0,0.0,1.0,0.0,0.0,0.0,1.0,14.7560987473,-25.4878044128,7.37804937363,1.0,0.0,0.0,0.0,1.0,0.0,0.0,0.0,1.0,-1.01514150391,0.555454785156,-9.22246479492,1.0,0.0,0.0,0.0,1.0,0.0,0.0,0.0,1.0
1463082685596024490,673,1463082685593936629,,2.03684711456,-6.46245002747,-6.61646652222,0.00999699998647,1.0,0.0,0.0,0.0,1.0,0.0,0.0,0.0,1.0,14.9390249252,-27.9878063202,7.37804937363,1.0,0.0,0.0,0.0,1.0,0.0,0.0,0.0,1.0,-1.2976572998,0.751779321289,-9.03092866211,1.0,0.0,0.0,0.0,1.0,0.0,0.0,0.0,1.0
1463082685605463430,674,1463082685603853537,,2.13820409775,-6.77471780777,-6.66009807587,0.0100010000169,1.0,0.0,0.0,0.0,1.0,0.0,0.0,0.0,1.0,12.9878053665,-26.4634151459,7.74390268326,1.0,0.0,0.0,0.0,1.0,0.0,0.0,0.0,1.0,-1.41736738281,0.689530078125,-9.09796630859,1.0,0.0,0.0,0.0,1.0,0.0,0.0,0.0,1.0
1463082685615702837,675,1463082685613638518,,2.17190051079,-7.12005805969,-6.6805973053,0.009990000166,1.0,0.0,0.0,0.0,1.0,0.0,0.0,0.0,1.0,9.02439117432,-26.9512195587,9.75609779358,1.0,0.0,0.0,0.0,1.0,0.0,0.0,0.0,1.0,-1.96324536133,1.13006318359,-9.22246479492,1.0,0.0,0.0,0.0,1.0,0.0,0.0,0.0,1.0
1463082685625305370,676,1463082685623661936,,2.17939543724,-7.44499492645,-6.67851543427,0.0100090000778,1.0,0.0,0.0,0.0,1.0,0.0,0.0,0.0,1.0,5.67073154449,-25.0609760284,12.0121955872,1.0,0.0,0.0,0.0,1.0,0.0,0.0,0.0,1.0,-1.93930334473,0.938527050781,-9.08838950195,1.0,0.0,0.0,0.0,1.0,0.0,0.0,0.0,1.0
1463082685635377278,677,1463082685633673375,,2.17632460594,-7.76302433014,-6.67100048065,0.00999100040644,1.0,0.0,0.0,0.0,1.0,0.0,0.0,0.0,1.0,2.98780488968,-22.1951236725,12.6219520569,1.0,0.0,0.0,0.0,1.0,0.0,0.0,0.0,1.0,-2.44208569336,0.684741674805,-9.36132790669,1.0,0.0,0.0,0.0,1.0,0.0,0.0,0.0,1.0
1463082685645373925,678,1463082685643695751,,2.16959142685,-8.06681442261,-6.68238162994,0.0100119998679,1.0,0.0,0.0,0.0,1.0,0.0,0.0,0.0,1.0,1.2804877758,-20.4268302917,10.7926826477,1.0,0.0,0.0,0.0,1.0,0.0,0.0,0.0,1.0,-2.62404501953,0.512359155273,-9.60074924175,1.0,0.0,0.0,0.0,1.0,0.0,0.0,0.0,1.0
1463082685655504374,679,1463082685653650315,,2.17679786682,-8.34114646912,-6.73596334457,0.00998700037599,1.0,0.0,0.0,0.0,1.0,0.0,0.0,0.0,1.0,1.15853655338,-17.2560977936,6.58536624908,1.0,0.0,0.0,0.0,1.0,0.0,0.0,0.0,1.0,-2.67671745605,0.344765039063,-9.29907866352,1.0,0.0,0.0,0.0,1.0,0.0,0.0,0.0,1.0
1463082685665414407,680,1463082685663731337,,2.20054340363,-8.57694530487,-6.84945821762,0.0100029995665,1.0,0.0,0.0,0.0,1.0,0.0,0.0,0.0,1.0,1.15853655338,-13.2926826477,0.609756112099,1.0,0.0,0.0,0.0,1.0,0.0,0.0,0.0,1.0,-3.02148249512,0.234631762695,-10.1226846191,1.0,0.0,0.0,0.0,1.0,0.0,0.0,0.0,1.0
1463082685675292825,681,1463082685673676891,,2.21687054634,-8.77864360809,-7.00419807434,0.0100119998679,1.0,0.0,0.0,0.0,1.0,0.0,0.0,0.0,1.0,0.0609756112099,-12.5609760284,-3.53658556938,1.0,0.0,0.0,0.0,1.0,0.0,0.0,0.0,1.0,-2.58094938965,0.282515795898,-10.1418382324,1.0,0.0,0.0,0.0,1.0,0.0,0.0,0.0,1.0
1463082685685260566,682,1463082685683667184,,2.21626234055,-8.92656803131,-7.19325876236,0.0100029995665,1.0,0.0,0.0,0.0,1.0,0.0,0.0,0.0,1.0,-1.95121955872,-8.84146404266,-7.13414621353,1.0,0.0,0.0,0.0,1.0,0.0,0.0,0.0,1.0,-2.26970317383,0.316034619141,-9.86411083984,1.0,0.0,0.0,0.0,1.0,0.0,0.0,0.0,1.0
1463082685695442525,683,1463082685693790497,,2.14614653587,-9.08582210541,-7.39345884323,0.0100630000234,1.0,0.0,0.0,0.0,1.0,0.0,0.0,0.0,1.0,-5.67073154449,-9.08536529541,-8.65853691101,1.0,0.0,0.0,0.0,1.0,0.0,0.0,0.0,1.0,-2.55700737305,0.981622680664,-10.2902787354,1.0,0.0,0.0,0.0,1.0,0.0,0.0,0.0,1.0
1463082685705326516,684,1463082685703715842,,2.06166768074,-9.21421146393,-7.5861325264,0.00992900040001,1.0,0.0,0.0,0.0,1.0,0.0,0.0,0.0,1.0,-7.98780536652,-8.04878044128,-8.10975551605,1.0,0.0,0.0,0.0,1.0,0.0,0.0,0.0,1.0,-2.15957004359,0.809240161133,-10.0077629395,1.0,0.0,0.0,0.0,1.0,0.0,0.0,0.0,1.0
1463082685715276549,685,1463082685713705563,,1.95541119576,-9.32938098907,-7.77678585052,0.00998700037599,1.0,0.0,0.0,0.0,1.0,0.0,0.0,0.0,1.0,-10.3048782349,-5.97560977936,-7.86585378647,1.0,0.0,0.0,0.0,1.0,0.0,0.0,0.0,1.0,-2.35110588414,0.809240161133,-10.2280294922,1.0,0.0,0.0,0.0,1.0,0.0,0.0,0.0,1.0
1463082685725395904,686,1463082685723761845,,1.87013137341,-9.44871807098,-7.98307991028,0.010006999597,1.0,0.0,0.0,0.0,1.0,0.0,0.0,0.0,1.0,-9.81707286835,-8.41463470459,-9.08536529541,1.0,0.0,0.0,0.0,1.0,0.0,0.0,0.0,1.0,-1.97761057129,0.565031591797,-10.1705686523,1.0,0.0,0.0,0.0,1.0,0.0,0.0,0.0,1.0
1463082685735308645,687,1463082685733664899,,1.82519972324,-9.5539855957,-8.23414897919,0.00999199971557,1.0,0.0,0.0,0.0,1.0,0.0,0.0,0.0,1.0,-7.98780536652,-9.20731735229,-13.2926826477,1.0,0.0,0.0,0.0,1.0,0.0,0.0,0.0,1.0,-1.49877023926,0.292092584273,-9.42357714985,1.0,0.0,0.0,0.0,1.0,0.0,0.0,0.0,1.0
1463082685745451074,688,1463082685743788056,,1.82295942307,-9.68762683868,-8.52435112,0.0100689996034,1.0,0.0,0.0,0.0,1.0,0.0,0.0,0.0,1.0,-5.79268312454,-10.9756097794,-16.6463413239,1.0,0.0,0.0,0.0,1.0,0.0,0.0,0.0,1.0,-1.92972653809,0.067037651051,-10.6925046143,1.0,0.0,0.0,0.0,1.0,0.0,0.0,0.0,1.0
1463082685755266784,689,1463082685753658141,,1.81592965126,-9.84002399445,-8.83069324493,0.00994800031185,1.0,0.0,0.0,0.0,1.0,0.0,0.0,0.0,1.0,-6.58536624908,-15.0000009537,-18.475610733,1.0,0.0,0.0,0.0,1.0,0.0,0.0,0.0,1.0,-1.42215578613,0.076614453125,-9.60074924175,1.0,0.0,0.0,0.0,1.0,0.0,0.0,0.0,1.0
1463082685765363743,690,1463082685763717913,,1.7891626358,-9.98384952545,-9.14510536194,0.0100119998679,1.0,0.0,0.0,0.0,1.0,0.0,0.0,0.0,1.0,-7.13414621353,-13.841463089,-19.3902435303,1.0,0.0,0.0,0.0,1.0,0.0,0.0,0.0,1.0,-1.5322890625,0.368707055664,-9.90241806641,1.0,0.0,0.0,0.0,1.0,0.0,0.0,0.0,1.0
1463082685775358620,691,1463082685773722894,,1.71297168732,-10.1891908646,-9.44313812256,0.00997900031507,1.0,0.0,0.0,0.0,1.0,0.0,0.0,0.0,1.0,-7.86585378647,-19.9390239716,-18.4146347046,1.0,0.0,0.0,0.0,1.0,0.0,0.0,0.0,1.0,-1.59932670898,1.13485158691,-10.1226846191,1.0,0.0,0.0,0.0,1.0,0.0,0.0,0.0,1.0
1463082685785347767,692,1463082685783660843,,1.62766051292,-10.3717050552,-9.71459674835,0.0100079998374,1.0,0.0,0.0,0.0,1.0,0.0,0.0,0.0,1.0,-7.62195110321,-21.0975627899,-15.8536596298,1.0,0.0,0.0,0.0,1.0,0.0,0.0,0.0,1.0,-0.895431420898,1.17794714373,-9.32302068013,1.0,0.0,0.0,0.0,1.0,0.0,0.0,0.0,1.0
1463082685795356810,693,1463082685793698063,,1.53333294392,-10.6065721512,-9.95884895325,0.00997999962419,1.0,0.0,0.0,0.0,1.0,0.0,0.0,0.0,1.0,-7.56097555161,-22.9878044128,-13.3536586761,1.0,0.0,0.0,0.0,1.0,0.0,0.0,0.0,1.0,-1.52750065918,1.35032973633,-9.61032604839,1.0,0.0,0.0,0.0,1.0,0.0,0.0,0.0,1.0
1463082685805444967,694,1463082685803784189,,1.49096286297,-10.8853626251,-10.2104282379,0.0100109996274,1.0,0.0,0.0,0.0,1.0,0.0,0.0,0.0,1.0,-4.45121955872,-26.6463432312,-13.5975618362,1.0,0.0,0.0,0.0,1.0,0.0,0.0,0.0,1.0,-1.67594116211,1.02950671387,-9.57201882183,1.0,0.0,0.0,0.0,1.0,0.0,0.0,0.0,1.0
1463082685815295990,695,1463082685813730993,,1.46920907497,-11.1741580963,-10.4759025574,0.0101009998471,1.0,0.0,0.0,0.0,1.0,0.0,0.0,0.0,1.0,-2.80487799644,-26.0975627899,-14.7560987473,1.0,0.0,0.0,0.0,1.0,0.0,0.0,0.0,1.0,-1.9105729248,1.00556469727,-9.35653950337,1.0,0.0,0.0,0.0,1.0,0.0,0.0,0.0,1.0
1463082685825535449,696,1463082685823739879,,1.48913133144,-11.479763031,-10.7469167709,0.00991200003773,1.0,0.0,0.0,0.0,1.0,0.0,0.0,0.0,1.0,-0.670731723309,-27.8658542633,-15.4268302917,1.0,0.0,0.0,0.0,1.0,0.0,0.0,0.0,1.0,-2.05901342773,0.723048901367,-9.41400034321,1.0,0.0,0.0,0.0,1.0,0.0,0.0,0.0,1.0
1463082685836088345,697,1463082685833915589,,1.53332388401,-11.791270256,-11.0354595184,0.00999699998647,1.0,0.0,0.0,0.0,1.0,0.0,0.0,0.0,1.0,0.365853667259,-28.1097564697,-16.7073173523,1.0,0.0,0.0,0.0,1.0,0.0,0.0,0.0,1.0,-2.11647412145,0.555454785156,-9.32780908345,1.0,0.0,0.0,0.0,1.0,0.0,0.0,0.0,1.0
1463082685846278117,698,1463082685843823955,,1.58897149563,-12.0834989548,-11.3426589966,0.00999999977648,1.0,0.0,0.0,0.0,1.0,0.0,0.0,0.0,1.0,0.670731723309,-26.4634151459,-18.475610733,1.0,0.0,0.0,0.0,1.0,0.0,0.0,0.0,1.0,-2.15957004359,0.502782348633,-9.44751916645,1.0,0.0,0.0,0.0,1.0,0.0,0.0,0.0,1.0
1463082685855332526,699,1463082685853667113,,1.64636147022,-12.3848009109,-11.6506929398,0.00999100040644,1.0,0.0,0.0,0.0,1.0,0.0,0.0,0.0,1.0,1.58536589146,-27.317073822,-18.7195110321,1.0,0.0,0.0,0.0,1.0,0.0,0.0,0.0,1.0,-2.26012636719,0.665588061523,-9.57201882183,1.0,0.0,0.0,0.0,1.0,0.0,0.0,0.0,1.0
1463082685865364173,700,1463082685863722458,,1.7156355381,-12.6629543304,-11.9663953781,0.0100130001083,1.0,0.0,0.0,0.0,1.0,0.0,0.0,0.0,1.0,2.19512200356,-26.5853652954,-19.3292694092,1.0,0.0,0.0,0.0,1.0,0.0,0.0,0.0,1.0,-1.97282216797,0.588973571866,-9.30386706685,1.0,0.0,0.0,0.0,1.0,0.0,0.0,0.0,1.0
1463082685876727172,701,1463082685873673688,,1.78644835949,-12.9407711029,-12.2815485001,0.00998300034553,1.0,0.0,0.0,0.0,1.0,0.0,0.0,0.0,1.0,2.74390244484,-26.4024391174,-19.4512195587,1.0,0.0,0.0,0.0,1.0,0.0,0.0,0.0,1.0,-2.04464821777,0.665588061523,-9.20331118164,1.0,0.0,0.0,0.0,1.0,0.0,0.0,0.0,1.0
1463082685887051423,702,1463082685884578771,,1.85369205475,-13.2233066559,-12.5941848755,0.00999400019646,1.0,0.0,0.0,0.0,1.0,0.0,0.0,0.0,1.0,2.56097555161,-25.975610733,-19.2073173523,1.0,0.0,0.0,0.0,1.0,0.0,0.0,0.0,1.0,-2.34631748082,0.737414111328,-9.61511445171,1.0,0.0,0.0,0.0,1.0,0.0,0.0,0.0,1.0
1463082685896159061,703,1463082685893664327,,1.92420482635,-13.5057001114,-12.9114313126,0.0100050000474,1.0,0.0,0.0,0.0,1.0,0.0,0.0,0.0,1.0,3.23170733452,-25.0609760284,-19.7560977936,1.0,0.0,0.0,0.0,1.0,0.0,0.0,0.0,1.0,-2.48996972656,0.818816967773,-9.33738589009,1.0,0.0,0.0,0.0,1.0,0.0,0.0,0.0,1.0
1463082685905940292,704,1463082685903701234,,2.059923172,-13.7585420609,-13.272269249,0.0100100003183,1.0,0.0,0.0,0.0,1.0,0.0,0.0,0.0,1.0,5.42682933807,-23.1707324982,-23.2317085266,1.0,0.0,0.0,0.0,1.0,0.0,0.0,0.0,1.0,-2.46602770996,0.258573779297,-9.65821008159,1.0,0.0,0.0,0.0,1.0,0.0,0.0,0.0,1.0
1463082685916054491,705,1463082685913807829,,2.2137169838,-14.0078287125,-13.6508255005,0.0100039998069,1.0,0.0,0.0,0.0,1.0,0.0,0.0,0.0,1.0,5.54878091812,-22.682926178,-24.6341457367,1.0,0.0,0.0,0.0,1.0,0.0,0.0,0.0,1.0,-2.38941340297,0.0335188255255,-8.99262143555,1.0,0.0,0.0,0.0,1.0,0.0,0.0,0.0,1.0
1463082685925335879,706,1463082685923742185,,2.3370642662,-14.2319993973,-14.0300216675,0.00999699998647,1.0,0.0,0.0,0.0,1.0,0.0,0.0,0.0,1.0,4.2682929039,-19.5731716156,-25.2439041138,1.0,0.0,0.0,0.0,1.0,0.0,0.0,0.0,1.0,-2.69108266602,0.359130249023,-9.48103915874,1.0,0.0,0.0,0.0,1.0,0.0,0.0,0.0,1.0
1463082685935379037,707,1463082685933759613,,2.46312260628,-14.4579315186,-14.4199314117,0.00999599974602,1.0,0.0,0.0,0.0,1.0,0.0,0.0,0.0,1.0,3.10975623131,-20.7317085266,-25.9146347046,1.0,0.0,0.0,0.0,1.0,0.0,0.0,0.0,1.0,-2.55700737305,0.15322890625,-9.40921193989,1.0,0.0,0.0,0.0,1.0,0.0,0.0,0.0,1.0
1463082685946257245,708,1463082685943744281,,2.56128454208,-14.6377477646,-14.8050127029,0.0100220004097,1.0,0.0,0.0,0.0,1.0,0.0,0.0,0.0,1.0,0.853658556938,-17.9878044128,-25.5487804413,1.0,0.0,0.0,0.0,1.0,0.0,0.0,0.0,1.0,-2.25533796387,0.225054956055,-9.36611631001,1.0,0.0,0.0,0.0,1.0,0.0,0.0,0.0,1.0
1463082685955328790,709,1463082685953730616,,2.64222931862,-14.8155469894,-15.1914186478,0.00999299995601,1.0,0.0,0.0,0.0,1.0,0.0,0.0,0.0,1.0,-0.609756112099,-17.8048782349,-25.8536586761,1.0,0.0,0.0,0.0,1.0,0.0,0.0,0.0,1.0,-2.38462499965,0.292092584273,-9.69172832031,1.0,0.0,0.0,0.0,1.0,0.0,0.0,0.0,1.0
1463082685966118404,710,1463082685963710753,,2.70951128006,-14.9912109375,-15.5696220398,0.00998399965465,1.0,0.0,0.0,0.0,1.0,0.0,0.0,0.0,1.0,-1.58536589146,-17.9878044128,-25.1219520569,1.0,0.0,0.0,0.0,1.0,0.0,0.0,0.0,1.0,-2.26012636719,0.320823022461,-9.32302068013,1.0,0.0,0.0,0.0,1.0,0.0,0.0,0.0,1.0
1463082685975707083,711,1463082685973659275,,2.75877785683,-15.1483469009,-15.9420003891,0.00999899953604,1.0,0.0,0.0,0.0,1.0,0.0,0.0,0.0,1.0,-2.80487799644,-16.2804889679,-24.6951236725,1.0,0.0,0.0,0.0,1.0,0.0,0.0,0.0,1.0,-2.36068269078,0.421379492187,-9.73003554687,1.0,0.0,0.0,0.0,1.0,0.0,0.0,0.0,1.0
1463082685985399356,712,1463082685983738578,,2.78939008713,-15.3143110275,-16.3011627197,0.0100060002878,1.0,0.0,0.0,0.0,1.0,0.0,0.0,0.0,1.0,-2.86585378647,-16.5243911743,-23.7804889679,1.0,0.0,0.0,0.0,1.0,0.0,0.0,0.0,1.0,-2.38941340297,0.675164868164,-9.31344387349,1.0,0.0,0.0,0.0,1.0,0.0,0.0,0.0,1.0
1463082685995805221,713,1463082685993683871,,2.83378338814,-15.4544715881,-16.6568813324,0.0100079998374,1.0,0.0,0.0,0.0,1.0,0.0,0.0,0.0,1.0,-1.58536589146,-14.9390249252,-23.475610733,1.0,0.0,0.0,0.0,1.0,0.0,0.0,0.0,1.0,-2.2170307373,0.641646044922,-9.19852277832,1.0,0.0,0.0,0.0,1.0,0.0,0.0,0.0,1.0
1463082686005395567,714,1463082686003798070,,2.8964509964,-15.5981740952,-17.0142383575,0.010153000243,1.0,0.0,0.0,0.0,1.0,0.0,0.0,0.0,1.0,-1.09756100178,-15.4268302917,-22.7439041138,1.0,0.0,0.0,0.0,1.0,0.0,0.0,0.0,1.0,-2.22181914063,0.421379492187,-9.35175110005,1.0,0.0,0.0,0.0,1.0,0.0,0.0,0.0,1.0
1463082686015642891,715,1463082686014005863,,2.97932767868,-15.7362289429,-17.3677463531,0.00999800022691,1.0,0.0,0.0,0.0,1.0,0.0,0.0,0.0,1.0,0.12195122242,-14.8170728683,-22.682926178,1.0,0.0,0.0,0.0,1.0,0.0,0.0,0.0,1.0,-2.31279880371,0.277727392578,-9.39484672993,1.0,0.0,0.0,0.0,1.0,0.0,0.0,0.0,1.0
1463082686026367714,716,1463082686024117041,,3.07372188568,-15.8745641708,-17.7147865295,0.00987199973315,1.0,0.0,0.0,0.0,1.0,0.0,0.0,0.0,1.0,1.76829278469,-14.8780498505,-22.5609760284,1.0,0.0,0.0,0.0,1.0,0.0,0.0,0.0,1.0,-2.4277204834,0.344765039063,-9.62469125835,1.0,0.0,0.0,0.0,1.0,0.0,0.0,0.0,1.0
1463082686035346550,717,1463082686033791814,,3.18022489548,-16.0057678223,-18.065952301,0.00999699998647,1.0,0.0,0.0,0.0,1.0,0.0,0.0,0.0,1.0,3.10975623131,-14.2682924271,-22.6219520569,1.0,0.0,0.0,0.0,1.0,0.0,0.0,0.0,1.0,-2.37983659633,0.383072265625,-9.4954043687,1.0,0.0,0.0,0.0,1.0,0.0,0.0,0.0,1.0
1463082686045987363,718,1463082686043838982,,3.30206823349,-16.131231308,-18.4082431793,0.00998099986464,1.0,0.0,0.0,0.0,1.0,0.0,0.0,0.0,1.0,4.39024400711,-13.3536586761,-21.7073173523,1.0,0.0,0.0,0.0,1.0,0.0,0.0,0.0,1.0,-2.53785375977,0.296881024126,-9.74918916016,1.0,0.0,0.0,0.0,1.0,0.0,0.0,0.0,1.0
1463082686055354324,719,1463082686053736515,,3.41933560371,-16.2514362335,-18.7320594788,0.009990000166,1.0,0.0,0.0,0.0,1.0,0.0,0.0,0.0,1.0,5.79268312454,-12.8048782349,-20.3048782349,1.0,0.0,0.0,0.0,1.0,0.0,0.0,0.0,1.0,-2.50912333984,0.531512805087,-9.57201882183,1.0,0.0,0.0,0.0,1.0,0.0,0.0,0.0,1.0
1463082686065383107,720,1463082686063800453,,3.53983974457,-16.3577976227,-19.0395069122,0.0100119998679,1.0,0.0,0.0,0.0,1.0,0.0,0.0,0.0,1.0,6.82926845551,-11.8902444839,-18.7804889679,1.0,0.0,0.0,0.0,1.0,0.0,0.0,0.0,1.0,-2.37504819301,0.555454785156,-9.33738589009,1.0,0.0,0.0,0.0,1.0,0.0,0.0,0.0,1.0
1463082686075884492,721,1463082686073786215,,3.68219828606,-16.465341568,-19.3351325989,0.0100459996611,1.0,0.0,0.0,0.0,1.0,0.0,0.0,0.0,1.0,8.78048801422,-10.7926826477,-17.4390239716,1.0,0.0,0.0,0.0,1.0,0.0,0.0,0.0,1.0,-2.60489140625,0.45489831543,-9.35175110005,1.0,0.0,0.0,0.0,1.0,0.0,0.0,0.0,1.0
1463082686085321661,722,1463082686083767342,,3.83182048798,-16.5547962189,-19.6198234558,0.00996199995279,1.0,0.0,0.0,0.0,1.0,0.0,0.0,0.0,1.0,9.45121955872,-10.1219511032,-16.5243911743,1.0,0.0,0.0,0.0,1.0,0.0,0.0,0.0,1.0,-2.53306535645,0.373495458984,-9.70609353027,1.0,0.0,0.0,0.0,1.0,0.0,0.0,0.0,1.0
1463082686096001953,723,1463082686093853051,,3.96724867821,-16.6320400238,-19.8807163239,0.0100269997492,1.0,0.0,0.0,0.0,1.0,0.0,0.0,0.0,1.0,8.47560977936,-7.80487823486,-14.1463422775,1.0,0.0,0.0,0.0,1.0,0.0,0.0,0.0,1.0,-2.69108266602,0.320823022461,-9.59117243511,1.0,0.0,0.0,0.0,1.0,0.0,0.0,0.0,1.0
1463082686105428029,724,1463082686103705792,,4.09465122223,-16.6962070465,-20.1258716583,0.00994000025094,1.0,0.0,0.0,0.0,1.0,0.0,0.0,0.0,1.0,6.95121955872,-6.40243911743,-12.5609760284,1.0,0.0,0.0,0.0,1.0,0.0,0.0,0.0,1.0,-2.8299463623,0.0814028564453,-9.95030209961,1.0,0.0,0.0,0.0,1.0,0.0,0.0,0.0,1.0
1463082686115281030,725,1463082686113694887,,4.20770740509,-16.750005722,-20.358581543,0.0100140003487,1.0,0.0,0.0,0.0,1.0,0.0,0.0,0.0,1.0,6.34146356583,-3.7804877758,-11.5243911743,1.0,0.0,0.0,0.0,1.0,0.0,0.0,0.0,1.0,-3.11725056152,0.167594116211,-9.91678327637,1.0,0.0,0.0,0.0,1.0,0.0,0.0,0.0,1.0
1463082686125872416,726,1463082686123686430,,4.30963516235,-16.777879715,-20.5712585449,0.00998799968511,1.0,0.0,0.0,0.0,1.0,0.0,0.0,0.0,1.0,6.70731735229,-1.09756100178,-10.1219511032,1.0,0.0,0.0,0.0,1.0,0.0,0.0,0.0,1.0,-3.20823022461,0.330399829102,-10.165780249,1.0,0.0,0.0,0.0,1.0,0.0,0.0,0.0,1.0
1463082686135283804,727,1463082686133745421,,4.45204305649,-16.7976989746,-20.8005008698,0.0100180003792,1.0,0.0,0.0,0.0,1.0,0.0,0.0,0.0,1.0,9.75609779358,1.70731711388,-11.7073173523,1.0,0.0,0.0,0.0,1.0,0.0,0.0,0.0,1.0,-3.6056677002,0.225054956055,-10.0556469727,1.0,0.0,0.0,0.0,1.0,0.0,0.0,0.0,1.0
1463082686146399095,728,1463082686143822693,,4.67645788193,-16.7689857483,-21.074754715,0.0100140003487,1.0,0.0,0.0,0.0,1.0,0.0,0.0,0.0,1.0,13.2926826477,5.36585378647,-15.3048791885,1.0,0.0,0.0,0.0,1.0,0.0,0.0,0.0,1.0,-3.52905324707,-0.474051928711,-10.2615483154,1.0,0.0,0.0,0.0,1.0,0.0,0.0,0.0,1.0
1463082686155290900,729,1463082686153728403,,4.89203882217,-16.7151012421,-21.3627529144,0.00997299980372,1.0,0.0,0.0,0.0,1.0,0.0,0.0,0.0,1.0,12.6219520569,7.86585378647,-17.134147644,1.0,0.0,0.0,0.0,1.0,0.0,0.0,0.0,1.0,-3.73495458984,-0.426167895508,-10.7547538574,1.0,0.0,0.0,0.0,1.0,0.0,0.0,0.0,1.0
1463082686165449318,730,1463082686163876769,,5.07973527908,-16.5989284515,-21.6484851837,0.0100109996274,1.0,0.0,0.0,0.0,1.0,0.0,0.0,0.0,1.0,12.3170728683,13.1707324982,-18.0487823486,1.0,0.0,0.0,0.0,1.0,0.0,0.0,0.0,1.0,-3.56257207031,0.0383072265625,-10.7834842773,1.0,0.0,0.0,0.0,1.0,0.0,0.0,0.0,1.0
1463082686176914504,731,1463082686173728677,,5.26406383514,-16.4398422241,-21.9374103546,0.0100079998374,1.0,0.0,0.0,0.0,1.0,0.0,0.0,0.0,1.0,12.5609760284,16.5243911743,-18.9024391174,1.0,0.0,0.0,0.0,1.0,0.0,0.0,0.0,1.0,-3.40934316406,0.124498486328,-10.9079827637,1.0,0.0,0.0,0.0,1.0,0.0,0.0,0.0,1.0
1463082686186815110,732,1463082686183727459,,5.42901325226,-16.2595157623,-22.206571579,0.0100090000778,1.0,0.0,0.0,0.0,1.0,0.0,0.0,0.0,1.0,12.3780488968,19.0243911743,-17.6219520569,1.0,0.0,0.0,0.0,1.0,0.0,0.0,0.0,1.0,-3.3949779541,0.320823022461,-10.7643306641,1.0,0.0,0.0,0.0,1.0,0.0,0.0,0.0,1.0
1463082686196682434,733,1463082686193664419,,5.58954238892,-16.0395278931,-22.4612178802,0.00998700037599,1.0,0.0,0.0,0.0,1.0,0.0,0.0,0.0,1.0,12.6829271317,22.8048782349,-16.7682933807,1.0,0.0,0.0,0.0,1.0,0.0,0.0,0.0,1.0,-3.27526787109,0.330399829102,-10.673351001,1.0,0.0,0.0,0.0,1.0,0.0,0.0,0.0,1.0
1463082686207247882,734,1463082686204814345,,5.77769899368,-15.794916153,-22.7258052826,0.00998899992555,1.0,0.0,0.0,0.0,1.0,0.0,0.0,0.0,1.0,14.6341466904,24.7560977936,-17.8048782349,1.0,0.0,0.0,0.0,1.0,0.0,0.0,0.0,1.0,-3.16034619141,0.162805712891,-10.658985791,1.0,0.0,0.0,0.0,1.0,0.0,0.0,0.0,1.0
1463082686217560466,735,1463082686214760420,,5.99262142181,-15.5401306152,-23.0038948059,0.0100530004129,1.0,0.0,0.0,0.0,1.0,0.0,0.0,0.0,1.0,15.548781395,25.0609760284,-18.658536911,1.0,0.0,0.0,0.0,1.0,0.0,0.0,0.0,1.0,-3.03584770508,-0.167594116211,-10.6302553711,1.0,0.0,0.0,0.0,1.0,0.0,0.0,0.0,1.0
