%time,field.header.seq,field.header.stamp,field.header.frame_id,field.orientation.x,field.orientation.y,field.orientation.z,field.orientation.w,field.orientation_covariance0,field.orientation_covariance1,field.orientation_covariance2,field.orientation_covariance3,field.orientation_covariance4,field.orientation_covariance5,field.orientation_covariance6,field.orientation_covariance7,field.orientation_covariance8,field.angular_velocity.x,field.angular_velocity.y,field.angular_velocity.z,field.angular_velocity_covariance0,field.angular_velocity_covariance1,field.angular_velocity_covariance2,field.angular_velocity_covariance3,field.angular_velocity_covariance4,field.angular_velocity_covariance5,field.angular_velocity_covariance6,field.angular_velocity_covariance7,field.angular_velocity_covariance8,field.linear_acceleration.x,field.linear_acceleration.y,field.linear_acceleration.z,field.linear_acceleration_covariance0,field.linear_acceleration_covariance1,field.linear_acceleration_covariance2,field.linear_acceleration_covariance3,field.linear_acceleration_covariance4,field.linear_acceleration_covariance5,field.linear_acceleration_covariance6,field.linear_acceleration_covariance7,field.linear_acceleration_covariance8
1463082201422791708,353,1463082201239314211,,9.138879776,-31.6912288666,-95.8303146362,0.00999899953604,1.0,0.0,0.0,0.0,1.0,0.0,0.0,0.0,1.0,1.52439022064,2.31707310677,0.731707334518,1.0,0.0,0.0,0.0,1.0,0.0,0.0,0.0,1.0,-4.14675698313,0.220266552734,-9.10275471191,1.0,0.0,0.0,0.0,1.0,0.0,0.0,0.0,1.0
1463082201422970561,354,1463082201249295907,,9.05838108063,-31.6074790955,-95.7246551514,0.00999699998647,1.0,0.0,0.0,0.0,1.0,0.0,0.0,0.0,1.0,1.8292683363,1.95121955872,0.426829278469,1.0,0.0,0.0,0.0,1.0,0.0,0.0,0.0,1.0,-4.28562126394,0.301669427446,-9.15063874512,1.0,0.0,0.0,0.0,1.0,0.0,0.0,0.0,1.0
1463082201423022593,355,1463082201259303488,,8.98033809662,-31.5229206085,-95.6131286621,0.0100100003183,1.0,0.0,0.0,0.0,1.0,0.0,0.0,0.0,1.0,2.07317066193,1.8292683363,1.15853655338,1.0,0.0,0.0,0.0,1.0,0.0,0.0,0.0,1.0,-4.21858303293,0.244208569336,-9.15542714844,1.0,0.0,0.0,0.0,1.0,0.0,0.0,0.0,1.0
1463082201423062072,356,1463082201269404298,,8.91425991058,-31.4417476654,-95.5105514526,0.00999400019646,1.0,0.0,0.0,0.0,1.0,0.0,0.0,0.0,1.0,2.07317066193,1.58536589146,0.914634168148,1.0,0.0,0.0,0.0,1.0,0.0,0.0,0.0,1.0,-4.23773664622,0.105344873047,-9.1458503418,1.0,0.0,0.0,0.0,1.0,0.0,0.0,0.0,1.0
1463082201423099519,357,1463082201279279119,,8.8432559967,-31.3631286621,-95.402885437,0.0100029995665,1.0,0.0,0.0,0.0,1.0,0.0,0.0,0.0,1.0,2.07317066193,1.58536589146,1.2195122242,1.0,0.0,0.0,0.0,1.0,0.0,0.0,0.0,1.0,-4.29040966726,0.167594116211,-9.20809958496,1.0,0.0,0.0,0.0,1.0,0.0,0.0,0.0,1.0
1463082201423203530,358,1463082201289272638,,8.76765823364,-31.288772583,-95.295249939,0.00999100040644,1.0,0.0,0.0,0.0,1.0,0.0,0.0,0.0,1.0,1.70731711388,1.34146344662,1.2195122242,1.0,0.0,0.0,0.0,1.0,0.0,0.0,0.0,1.0,-4.26646765066,0.201112939453,-9.11711992188,1.0,0.0,0.0,0.0,1.0,0.0,0.0,0.0,1.0
1463082201423252696,359,1463082201299214022,,8.68906784058,-31.2120819092,-95.1877441406,0.010006999597,1.0,0.0,0.0,0.0,1.0,0.0,0.0,0.0,1.0,1.76829278469,1.40243899822,0.975609779358,1.0,0.0,0.0,0.0,1.0,0.0,0.0,0.0,1.0,-4.20421782297,0.287304199219,-9.07881269531,1.0,0.0,0.0,0.0,1.0,0.0,0.0,0.0,1.0
1463082201423345769,360,1463082201311014203,,8.60346794128,-31.1227588654,-95.0743331909,0.0115240002051,1.0,0.0,0.0,0.0,1.0,0.0,0.0,0.0,1.0,1.64634156227,1.15853655338,0.304878056049,1.0,0.0,0.0,0.0,1.0,0.0,0.0,0.0,1.0,-4.18985261301,0.282515795898,-9.1697923584,1.0,0.0,0.0,0.0,1.0,0.0,0.0,0.0,1.0
1463082201423385404,361,1463082201321904751,,8.52676105499,-31.0439682007,-94.9691009521,0.0110440002754,1.0,0.0,0.0,0.0,1.0,0.0,0.0,0.0,1.0,2.01219511032,0.914634168148,0.0609756112099,1.0,0.0,0.0,0.0,1.0,0.0,0.0,0.0,1.0,-4.2521024407,0.31124621582,-9.16500395508,1.0,0.0,0.0,0.0,1.0,0.0,0.0,0.0,1.0
1463082201423420560,362,1463082201329212807,,8.47571277618,-30.9955692291,-94.8988494873,0.00742000015453,1.0,0.0,0.0,0.0,1.0,0.0,0.0,0.0,1.0,2.25609779358,0.609756112099,-0.0609756112099,1.0,0.0,0.0,0.0,1.0,0.0,0.0,0.0,1.0,-4.18985261301,0.363918652344,-8.9351605957,1.0,0.0,0.0,0.0,1.0,0.0,0.0,0.0,1.0
1463082201423454779,363,1463082201339414867,,8.40225410461,-30.9433174133,-94.8017959595,0.0101370001212,1.0,0.0,0.0,0.0,1.0,0.0,0.0,0.0,1.0,1.8292683363,-1.09756100178,0.365853667259,1.0,0.0,0.0,0.0,1.0,0.0,0.0,0.0,1.0,-4.19942941965,0.349553442383,-9.12669672852,1.0,0.0,0.0,0.0,1.0,0.0,0.0,0.0,1.0
1463082201423491185,364,1463082201349250782,,8.31095695496,-30.922416687,-94.6885375977,0.00984899979085,1.0,0.0,0.0,0.0,1.0,0.0,0.0,0.0,1.0,2.01219511032,-1.09756100178,1.2804877758,1.0,0.0,0.0,0.0,1.0,0.0,0.0,0.0,1.0,-4.66869294504,0.656011254883,-8.97346782227,1.0,0.0,0.0,0.0,1.0,0.0,0.0,0.0,1.0
1463082201423522279,365,1463082201359577790,,8.14879226685,-30.7605800629,-94.5599136353,0.0100379996002,1.0,0.0,0.0,0.0,1.0,0.0,0.0,0.0,1.0,0.792682945728,0.426829278469,-0.792682945728,1.0,0.0,0.0,0.0,1.0,0.0,0.0,0.0,1.0,-2.73896669922,1.79565124512,-10.7595422607,1.0,0.0,0.0,0.0,1.0,0.0,0.0,0.0,1.0
1463082201423563685,366,1463082201369490215,,8.06727695465,-30.771522522,-94.4234619141,0.00998200010508,1.0,0.0,0.0,0.0,1.0,0.0,0.0,0.0,1.0,7.19512224197,-2.92682933807,1.64634156227,1.0,0.0,0.0,0.0,1.0,0.0,0.0,0.0,1.0,-4.57771357422,1.28808049316,-8.45631967915,1.0,0.0,0.0,0.0,1.0,0.0,0.0,0.0,1.0
1463082201423598164,367,1463082201379368734,,8.05483150482,-30.698059082,-94.3569412231,0.0100159998983,1.0,0.0,0.0,0.0,1.0,0.0,0.0,0.0,1.0,2.56097555161,-0.792682945728,0.12195122242,1.0,0.0,0.0,0.0,1.0,0.0,0.0,0.0,1.0,-4.28562126394,-0.426167895508,-10.1131078125,1.0,0.0,0.0,0.0,1.0,0.0,0.0,0.0,1.0
1463082201423633268,368,1463082201389731992,,7.68981790543,-30.2475414276,-94.2226867676,0.00997999962419,1.0,0.0,0.0,0.0,1.0,0.0,0.0,0.0,1.0,-13.4756097794,5.06097555161,-4.14634132385,1.0,0.0,0.0,0.0,1.0,0.0,0.0,0.0,1.0,5.86100566406,5.88973608398,-18.37310354,1.0,0.0,0.0,0.0,1.0,0.0,0.0,0.0,1.0
1463082201423733008,369,1463082201399398636,,7.83631372452,-30.2154026031,-94.1340026855,0.010095000267,1.0,0.0,0.0,0.0,1.0,0.0,0.0,0.0,1.0,10.3048782349,1.34146344662,7.13414621353,1.0,0.0,0.0,0.0,1.0,0.0,0.0,0.0,1.0,-5.38695373535,-2.44208569336,-9.91199487305,1.0,0.0,0.0,0.0,1.0,0.0,0.0,0.0,1.0
1463082201423800507,370,1463082201409276478,,7.79277420044,-30.3291988373,-94.0322799683,0.00990399997681,1.0,0.0,0.0,0.0,1.0,0.0,0.0,0.0,1.0,3.41463422775,-15.1219511032,3.96341490746,1.0,0.0,0.0,0.0,1.0,0.0,0.0,0.0,1.0,-6.83783994141,0.220266552734,-13.7570827393,1.0,0.0,0.0,0.0,1.0,0.0,0.0,0.0,1.0
1463082201426536387,371,1463082201419332289,,7.95617580414,-29.9402446747,-94.0284500122,0.0100119998679,1.0,0.0,0.0,0.0,1.0,0.0,0.0,0.0,1.0,-2.56097555161,25.3658542633,2.80487799644,1.0,0.0,0.0,0.0,1.0,0.0,0.0,0.0,1.0,-2.68150585937,-4.47715710449,-9.00219824219,1.0,0.0,0.0,0.0,1.0,0.0,0.0,0.0,1.0
1463082201433102986,372,1463082201429209401,,7.58297157288,-29.7360858917,-93.9107589722,0.00997999962419,1.0,0.0,0.0,0.0,1.0,0.0,0.0,0.0,1.0,-12.0731716156,-0.731707334518,-6.34146356583,1.0,0.0,0.0,0.0,1.0,0.0,0.0,0.0,1.0,-1.37906015625,4.87459458008,-12.8329208984,1.0,0.0,0.0,0.0,1.0,0.0,0.0,0.0,1.0
1463082201443107286,373,1463082201439303753,,7.58028697968,-29.7796039581,-93.7992324829,0.0099950004369,1.0,0.0,0.0,0.0,1.0,0.0,0.0,0.0,1.0,4.69512224197,-3.47560977936,5.12195110321,1.0,0.0,0.0,0.0,1.0,0.0,0.0,0.0,1.0,-5.47314499512,-0.474051928711,-9.28950185688,1.0,0.0,0.0,0.0,1.0,0.0,0.0,0.0,1.0
1463082201453127680,374,1463082201449148731,,7.64334726334,-29.6103172302,-93.7431716919,0.00998700037599,1.0,0.0,0.0,0.0,1.0,0.0,0.0,0.0,1.0,2.98780488968,12.1951217651,1.46341466904,1.0,0.0,0.0,0.0,1.0,0.0,0.0,0.0,1.0,-4.41969626465,-1.68072956543,-9.24640681152,1.0,0.0,0.0,0.0,1.0,0.0,0.0,0.0,1.0
1463082201463037657,375,1463082201459155635,,7.42547702789,-29.6057605743,-93.5835800171,0.0100050000474,1.0,0.0,0.0,0.0,1.0,0.0,0.0,0.0,1.0,0.426829278469,4.14634132385,-0.304878056049,1.0,0.0,0.0,0.0,1.0,0.0,0.0,0.0,1.0,-4.98951625977,2.56179577637,-7.7332713623,1.0,0.0,0.0,0.0,1.0,0.0,0.0,0.0,1.0
1463082201471038837,376,1463082201469101341,,7.24693393707,-29.4661026001,-93.4143753052,0.00999400019646,1.0,0.0,0.0,0.0,1.0,0.0,0.0,0.0,1.0,2.43902444839,4.14634132385,2.01219511032,1.0,0.0,0.0,0.0,1.0,0.0,0.0,0.0,1.0,-3.21301862793,2.11647412145,-9.50498117534,1.0,0.0,0.0,0.0,1.0,0.0,0.0,0.0,1.0
1463082201484250369,377,1463082201482342092,,7.00977325439,-29.3364238739,-93.2417144775,0.0115310000256,1.0,0.0,0.0,0.0,1.0,0.0,0.0,0.0,1.0,-1.70731711388,4.32926845551,0.609756112099,1.0,0.0,0.0,0.0,1.0,0.0,0.0,0.0,1.0,-3.76847341309,2.08774370153,-9.39484672993,1.0,0.0,0.0,0.0,1.0,0.0,0.0,0.0,1.0
1463082201491248009,378,1463082201489118848,,6.92061948776,-29.219335556,-93.158744812,0.0084739997983,1.0,0.0,0.0,0.0,1.0,0.0,0.0,0.0,1.0,-0.18292683363,7.19512224197,-0.792682945728,1.0,0.0,0.0,0.0,1.0,0.0,0.0,0.0,1.0,-3.6296097168,0.775721337891,-8.65264538433,1.0,0.0,0.0,0.0,1.0,0.0,0.0,0.0,1.0
1463082201503626210,379,1463082201501611527,,6.84075546265,-29.1519699097,-93.0515518188,0.0100999996066,1.0,0.0,0.0,0.0,1.0,0.0,0.0,0.0,1.0,0.731707334518,0.487804889679,1.95121955872,1.0,0.0,0.0,0.0,1.0,0.0,0.0,0.0,1.0,-4.2999864739,0.450109912109,-10.1322614258,1.0,0.0,0.0,0.0,1.0,0.0,0.0,0.0,1.0
1463082201511673536,380,1463082201509371614,,6.76664113998,-29.0515556335,-92.9661178589,0.00992500036955,1.0,0.0,0.0,0.0,1.0,0.0,0.0,0.0,1.0,0.426829278469,3.23170733452,-0.243902444839,1.0,0.0,0.0,0.0,1.0,0.0,0.0,0.0,1.0,-4.08450803223,0.497993945312,-9.88805285645,1.0,0.0,0.0,0.0,1.0,0.0,0.0,0.0,1.0
1463082201522553980,381,1463082201519175394,,6.67952680588,-28.9965000153,-92.8776550293,0.00998399965465,1.0,0.0,0.0,0.0,1.0,0.0,0.0,0.0,1.0,1.15853655338,5.0,-1.2804877758,1.0,0.0,0.0,0.0,1.0,0.0,0.0,0.0,1.0,-4.86980617676,0.933738647461,-8.8633345459,1.0,0.0,0.0,0.0,1.0,0.0,0.0,0.0,1.0
1463082201530716982,382,1463082201529244902,,6.75623655319,-28.926366806,-92.8423156738,0.00999599974602,1.0,0.0,0.0,0.0,1.0,0.0,0.0,0.0,1.0,1.46341466904,-1.95121955872,2.5,1.0,0.0,0.0,0.0,1.0,0.0,0.0,0.0,1.0,-3.99352836914,-2.17393510742,-10.673351001,1.0,0.0,0.0,0.0,1.0,0.0,0.0,0.0,1.0
1463082201540643157,383,1463082201539206077,,6.89622783661,-28.83162117,-92.8865814209,0.00999899953604,1.0,0.0,0.0,0.0,1.0,0.0,0.0,0.0,1.0,1.8292683363,2.5,-3.84146332741,1.0,0.0,0.0,0.0,1.0,0.0,0.0,0.0,1.0,-3.3231519043,-1.96803376465,-7.69975253906,1.0,0.0,0.0,0.0,1.0,0.0,0.0,0.0,1.0
1463082201551834850,384,1463082201549189856,,6.93463039398,-28.7594051361,-92.8508071899,0.00999899953604,1.0,0.0,0.0,0.0,1.0,0.0,0.0,0.0,1.0,1.40243899822,1.58536589146,-0.0,1.0,0.0,0.0,0.0,1.0,0.0,0.0,0.0,1.0,-5.30076247559,-1.48919343262,-11.9757967041,1.0,0.0,0.0,0.0,1.0,0.0,0.0,0.0,1.0
1463082201561155975,385,1463082201559221083,,6.86169862747,-28.743106842,-92.7791748047,0.0100090000778,1.0,0.0,0.0,0.0,1.0,0.0,0.0,0.0,1.0,0.304878056049,-3.71951246262,-0.853658556938,1.0,0.0,0.0,0.0,1.0,0.0,0.0,0.0,1.0,-4.33350529714,0.588973571866,-9.86411083984,1.0,0.0,0.0,0.0,1.0,0.0,0.0,0.0,1.0
1463082201571038087,386,1463082201569120123,,6.83705806732,-28.6122016907,-92.7127304077,0.00998799968511,1.0,0.0,0.0,0.0,1.0,0.0,0.0,0.0,1.0,2.25609779358,1.46341466904,-0.426829278469,1.0,0.0,0.0,0.0,1.0,0.0,0.0,0.0,1.0,-3.58651408691,-0.0287304199219,-11.4825911621,1.0,0.0,0.0,0.0,1.0,0.0,0.0,0.0,1.0
1463082201581826604,387,1463082201579149006,,6.78438901901,-28.4813423157,-92.6356277466,0.0100029995665,1.0,0.0,0.0,0.0,1.0,0.0,0.0,0.0,1.0,1.8292683363,-1.76829278469,-0.12195122242,1.0,0.0,0.0,0.0,1.0,0.0,0.0,0.0,1.0,-2.64798703613,0.378283862305,-10.8170031006,1.0,0.0,0.0,0.0,1.0,0.0,0.0,0.0,1.0
1463082201591312781,388,1463082201589122109,,6.29495239258,-28.4130687714,-92.3611373901,0.00999999977648,1.0,0.0,0.0,0.0,1.0,0.0,0.0,0.0,1.0,-0.365853667259,-2.37804889679,-0.304878056049,1.0,0.0,0.0,0.0,1.0,0.0,0.0,0.0,1.0,-1.33596452637,6.4834980957,-6.11479104004,1.0,0.0,0.0,0.0,1.0,0.0,0.0,0.0,1.0
1463082201601265050,389,1463082201599165315,,6.33321142197,-28.2620754242,-92.3149185181,0.0100029995665,1.0,0.0,0.0,0.0,1.0,0.0,0.0,0.0,1.0,2.86585378647,-3.96341490746,1.03658533096,1.0,0.0,0.0,0.0,1.0,0.0,0.0,0.0,1.0,-2.34631748082,-1.32159931641,-14.2407114746,1.0,0.0,0.0,0.0,1.0,0.0,0.0,0.0,1.0
1463082201611282631,390,1463082201609159459,,6.42343711853,-28.292016983,-92.2896652222,0.00999999977648,1.0,0.0,0.0,0.0,1.0,0.0,0.0,0.0,1.0,3.90243911743,-4.2682929039,0.914634168148,1.0,0.0,0.0,0.0,1.0,0.0,0.0,0.0,1.0,-5.76044919434,-1.7908628418,-10.9175595703,1.0,0.0,0.0,0.0,1.0,0.0,0.0,0.0,1.0
1463082201621585836,391,1463082201619119123,,6.47841358185,-28.174325943,-92.261932373,0.00999599974602,1.0,0.0,0.0,0.0,1.0,0.0,0.0,0.0,1.0,2.68292689323,0.914634168148,-0.609756112099,1.0,0.0,0.0,0.0,1.0,0.0,0.0,0.0,1.0,-3.54820686035,-1.25456166992,-10.8888291504,1.0,0.0,0.0,0.0,1.0,0.0,0.0,0.0,1.0
1463082201635085597,392,1463082201629217277,,6.65430498123,-28.2214584351,-92.2949447632,0.0100060002878,1.0,0.0,0.0,0.0,1.0,0.0,0.0,0.0,1.0,3.59756112099,-6.82926845551,-0.609756112099,1.0,0.0,0.0,0.0,1.0,0.0,0.0,0.0,1.0,-4.46279189453,-2.68150585937,-8.5999729478,1.0,0.0,0.0,0.0,1.0,0.0,0.0,0.0,1.0
1463082201642731153,393,1463082201639238713,,6.7230463028,-28.1077270508,-92.2912445068,0.00999699998647,1.0,0.0,0.0,0.0,1.0,0.0,0.0,0.0,1.0,-0.853658556938,-0.243902444839,-0.548780500889,1.0,0.0,0.0,0.0,1.0,0.0,0.0,0.0,1.0,-4.30477487722,-2.77248552246,-13.8193319824,1.0,0.0,0.0,0.0,1.0,0.0,0.0,0.0,1.0
1463082201652769515,394,1463082201649243950,,6.75954341888,-28.060590744,-92.2076873779,0.00999699998647,1.0,0.0,0.0,0.0,1.0,0.0,0.0,0.0,1.0,7.62195110321,-4.39024400711,2.68292689323,1.0,0.0,0.0,0.0,1.0,0.0,0.0,0.0,1.0,-2.73896669922,-0.248996972656,-7.91044228516,1.0,0.0,0.0,0.0,1.0,0.0,0.0,0.0,1.0
1463082201662620118,395,1463082201659123511,,6.46819448471,-27.9111042023,-92.0169525146,0.0100029995665,1.0,0.0,0.0,0.0,1.0,0.0,0.0,0.0,1.0,-1.52439022064,-2.13414645195,1.8902438879,1.0,0.0,0.0,0.0,1.0,0.0,0.0,0.0,1.0,-1.58974990234,4.07014282227,-10.8696755371,1.0,0.0,0.0,0.0,1.0,0.0,0.0,0.0,1.0
1463082201671332546,396,1463082201669154738,,6.59668636322,-27.9319515228,-91.9753112793,0.00999800022691,1.0,0.0,0.0,0.0,1.0,0.0,0.0,0.0,1.0,6.34146356583,-1.70731711388,3.23170733452,1.0,0.0,0.0,0.0,1.0,0.0,0.0,0.0,1.0,-3.98873996582,-1.56580788574,-7.19697019043,1.0,0.0,0.0,0.0,1.0,0.0,0.0,0.0,1.0
1463082201681542210,397,1463082201679132840,,6.428565979,-28.260471344,-91.82762146,0.0100010000169,1.0,0.0,0.0,0.0,1.0,0.0,0.0,0.0,1.0,5.24390268326,-6.70731735229,0.365853667259,1.0,0.0,0.0,0.0,1.0,0.0,0.0,0.0,1.0,-6.62236179199,2.7341782959,-4.37181223145,1.0,0.0,0.0,0.0,1.0,0.0,0.0,0.0,1.0
1463082201692427914,398,1463082201689113078,,6.58403873444,-28.4259986877,-91.8501968384,0.00999899953604,1.0,0.0,0.0,0.0,1.0,0.0,0.0,0.0,1.0,5.36585378647,3.59756112099,-2.68292689323,1.0,0.0,0.0,0.0,1.0,0.0,0.0,0.0,1.0,-5.93762011719,-1.34075292969,-4.82671083914,1.0,0.0,0.0,0.0,1.0,0.0,0.0,0.0,1.0
1463082201701787893,399,1463082201699180815,,6.46997499466,-28.586687088,-91.7932434082,0.0100020002574,1.0,0.0,0.0,0.0,1.0,0.0,0.0,0.0,1.0,-1.46341466904,-7.37804937363,-3.41463422775,1.0,0.0,0.0,0.0,1.0,0.0,0.0,0.0,1.0,-6.4356140625,1.45567460937,-8.28393774414,1.0,0.0,0.0,0.0,1.0,0.0,0.0,0.0,1.0
1463082201712666930,400,1463082201709214699,,6.60380077362,-28.575712204,-91.7576217651,0.00999899953604,1.0,0.0,0.0,0.0,1.0,0.0,0.0,0.0,1.0,6.89024400711,-2.37804889679,2.68292689323,1.0,0.0,0.0,0.0,1.0,0.0,0.0,0.0,1.0,-6.4834980957,-2.81079274902,-13.4266829102,1.0,0.0,0.0,0.0,1.0,0.0,0.0,0.0,1.0
1463082201722594460,401,1463082201719173634,,6.79174375534,-28.4925022125,-91.7404708862,0.0100060002878,1.0,0.0,0.0,0.0,1.0,0.0,0.0,0.0,1.0,5.0,4.20731735229,3.84146332741,1.0,0.0,0.0,0.0,1.0,0.0,0.0,0.0,1.0,-5.69819995117,-4.42448466797,-12.1002951904,1.0,0.0,0.0,0.0,1.0,0.0,0.0,0.0,1.0
1463082201736948802,402,1463082201729306528,,6.77264976501,-28.5658168793,-91.650352478,0.00999699998647,1.0,0.0,0.0,0.0,1.0,0.0,0.0,0.0,1.0,4.81707286835,1.8902438879,1.09756100178,1.0,0.0,0.0,0.0,1.0,0.0,0.0,0.0,1.0,-4.47715710449,0.268150604204,-5.71735356445,1.0,0.0,0.0,0.0,1.0,0.0,0.0,0.0,1.0
1463082201741838061,403,1463082201739254474,,7.3074054718,-28.6145420074,-91.849647522,0.0100159998983,1.0,0.0,0.0,0.0,1.0,0.0,0.0,0.0,1.0,3.29268312454,-2.25609779358,-0.0609756112099,1.0,0.0,0.0,0.0,1.0,0.0,0.0,0.0,1.0,-7.08683691406,-15.1552965088,-8.99740983887,1.0,0.0,0.0,0.0,1.0,0.0,0.0,0.0,1.0
1463082201752568558,404,1463082201749238305,,7.24174404144,-28.6074962616,-91.733757019,0.00997999962419,1.0,0.0,0.0,0.0,1.0,0.0,0.0,0.0,1.0,1.15853655338,7.74390268326,2.74390244484,1.0,0.0,0.0,0.0,1.0,0.0,0.0,0.0,1.0,-4.48673391113,0.167594116211,-6.25365473633,1.0,0.0,0.0,0.0,1.0,0.0,0.0,0.0,1.0
1463082201762750826,405,1463082201759213386,,7.04864931107,-28.650472641,-91.598236084,0.00999899953604,1.0,0.0,0.0,0.0,1.0,0.0,0.0,0.0,1.0,0.18292683363,1.2195122242,-0.731707334518,1.0,0.0,0.0,0.0,1.0,0.0,0.0,0.0,1.0,-5.57370146484,2.4995465332,-8.25999572754,1.0,0.0,0.0,0.0,1.0,0.0,0.0,0.0,1.0
1463082201771113984,406,1463082201769179718,,7.11957216263,-28.8463954926,-91.5768966675,0.0100020002574,1.0,0.0,0.0,0.0,1.0,0.0,0.0,0.0,1.0,2.74390244484,-1.2804877758,-0.304878056049,1.0,0.0,0.0,0.0,1.0,0.0,0.0,0.0,1.0,-9.34696269673,-1.35990654297,-8.2504189209,1.0,0.0,0.0,0.0,1.0,0.0,0.0,0.0,1.0
1463082201782532448,407,1463082201779171049,,7.08516311646,-28.8320446014,-91.5146789551,0.00999599974602,1.0,0.0,0.0,0.0,1.0,0.0,0.0,0.0,1.0,-1.15853655338,4.57317066193,-0.0,1.0,0.0,0.0,0.0,1.0,0.0,0.0,0.0,1.0,-3.98873996582,-0.282515795898,-6.25365473633,1.0,0.0,0.0,0.0,1.0,0.0,0.0,0.0,1.0
1463082201791532062,408,1463082201789242224,,7.03488969803,-28.6971702576,-91.4535369873,0.0100050000474,1.0,0.0,0.0,0.0,1.0,0.0,0.0,0.0,1.0,0.487804889679,3.53658556938,-1.76829278469,1.0,0.0,0.0,0.0,1.0,0.0,0.0,0.0,1.0,-4.01268198242,0.201112939453,-11.4921679687,1.0,0.0,0.0,0.0,1.0,0.0,0.0,0.0,1.0
1463082201801471623,409,1463082201799176524,,7.04569149017,-28.7022266388,-91.3736038208,0.0099950004369,1.0,0.0,0.0,0.0,1.0,0.0,0.0,0.0,1.0,4.75609779358,-0.853658556938,1.95121955872,1.0,0.0,0.0,0.0,1.0,0.0,0.0,0.0,1.0,-6.32548078613,-0.397437475586,-11.5879360352,1.0,0.0,0.0,0.0,1.0,0.0,0.0,0.0,1.0
1463082201812662899,410,1463082201809338740,,6.86081695557,-28.5833740234,-91.2442169189,0.0100090000778,1.0,0.0,0.0,0.0,1.0,0.0,0.0,0.0,1.0,0.243902444839,0.731707334518,-0.914634168148,1.0,0.0,0.0,0.0,1.0,0.0,0.0,0.0,1.0,-2.81558115234,2.19787712402,-9.31344387349,1.0,0.0,0.0,0.0,1.0,0.0,0.0,0.0,1.0
1463082201821316109,411,1463082201819270176,,6.78808450699,-28.3379440308,-91.1245651245,0.00999699998647,1.0,0.0,0.0,0.0,1.0,0.0,0.0,0.0,1.0,3.04878044128,4.02439022064,2.31707310677,1.0,0.0,0.0,0.0,1.0,0.0,0.0,0.0,1.0,-1.26413847656,0.560243188477,-10.0029745361,1.0,0.0,0.0,0.0,1.0,0.0,0.0,0.0,1.0
1463082201832408740,412,1463082201829303174,,6.98057222366,-28.3485965729,-91.1829986572,0.0100029995665,1.0,0.0,0.0,0.0,1.0,0.0,0.0,0.0,1.0,2.98780488968,-1.76829278469,-2.80487799644,1.0,0.0,0.0,0.0,1.0,0.0,0.0,0.0,1.0,-5.21935961914,-3.22738383789,-9.25598361816,1.0,0.0,0.0,0.0,1.0,0.0,0.0,0.0,1.0
1463082201844619701,413,1463082201839254662,,6.86552619934,-28.2121944427,-91.125038147,0.00999699998647,1.0,0.0,0.0,0.0,1.0,0.0,0.0,0.0,1.0,-2.07317066193,2.19512200356,-4.02439022064,1.0,0.0,0.0,0.0,1.0,0.0,0.0,0.0,1.0,-2.83473476562,0.967257470703,-9.1697923584,1.0,0.0,0.0,0.0,1.0,0.0,0.0,0.0,1.0
1463082201851578800,414,1463082201849279535,,6.79825782776,-28.2176475525,-91.0096740723,0.0100090000778,1.0,0.0,0.0,0.0,1.0,0.0,0.0,0.0,1.0,4.93902444839,2.31707310677,1.2804877758,1.0,0.0,0.0,0.0,1.0,0.0,0.0,0.0,1.0,-5.69341154785,1.1540052002,-9.4570959731,1.0,0.0,0.0,0.0,1.0,0.0,0.0,0.0,1.0
1463082201862452109,415,1463082201859191126,,7.15641689301,-28.1085529327,-91.1436157227,0.0099849998951,1.0,0.0,0.0,0.0,1.0,0.0,0.0,0.0,1.0,1.8292683363,-1.8902438879,-1.76829278469,1.0,0.0,0.0,0.0,1.0,0.0,0.0,0.0,1.0,-2.47081611328,-6.5074401123,-8.97346782227,1.0,0.0,0.0,0.0,1.0,0.0,0.0,0.0,1.0
1463082201871469223,416,1463082201869246885,,6.7360534668,-28.0734596252,-90.9338912964,0.0100039998069,1.0,0.0,0.0,0.0,1.0,0.0,0.0,0.0,1.0,-5.48780488968,1.15853655338,-1.2804877758,1.0,0.0,0.0,0.0,1.0,0.0,0.0,0.0,1.0,-4.38617744141,6.62236179199,-9.87368764648,1.0,0.0,0.0,0.0,1.0,0.0,0.0,0.0,1.0
1463082201882401855,417,1463082201879172383,,6.59564733505,-28.0071811676,-90.8334579468,0.0100010000169,1.0,0.0,0.0,0.0,1.0,0.0,0.0,0.0,1.0,0.670731723309,1.8902438879,-1.95121955872,1.0,0.0,0.0,0.0,1.0,0.0,0.0,0.0,1.0,-3.79241542969,1.71424838867,-8.80587370605,1.0,0.0,0.0,0.0,1.0,0.0,0.0,0.0,1.0
1463082201891626000,418,1463082201889282047,,6.30386209488,-28.0940494537,-90.6508560181,0.0100090000778,1.0,0.0,0.0,0.0,1.0,0.0,0.0,0.0,1.0,1.46341466904,-0.426829278469,-0.975609779358,1.0,0.0,0.0,0.0,1.0,0.0,0.0,0.0,1.0,-4.9751510498,4.12281525879,-6.72291826172,1.0,0.0,0.0,0.0,1.0,0.0,0.0,0.0,1.0
1463082201901502905,419,1463082201899211660,,6.18292093277,-27.9215736389,-90.6060409546,0.00999599974602,1.0,0.0,0.0,0.0,1.0,0.0,0.0,0.0,1.0,-5.24390268326,2.86585378647,-4.08536577225,1.0,0.0,0.0,0.0,1.0,0.0,0.0,0.0,1.0,-2.90656081543,0.837970581055,-11.6118780518,1.0,0.0,0.0,0.0,1.0,0.0,0.0,0.0,1.0
1463082201912341369,420,1463082201909169502,,6.06240844727,-27.6717681885,-90.4880828857,0.00999299995601,1.0,0.0,0.0,0.0,1.0,0.0,0.0,0.0,1.0,1.70731711388,-0.0609756112099,0.914634168148,1.0,0.0,0.0,0.0,1.0,0.0,0.0,0.0,1.0,-0.258573779297,1.52750065918,-10.8505219238,1.0,0.0,0.0,0.0,1.0,0.0,0.0,0.0,1.0
1463082201921646140,421,1463082201919267656,,5.91470909119,-27.5901527405,-90.3723678589,0.010006999597,1.0,0.0,0.0,0.0,1.0,0.0,0.0,0.0,1.0,2.62195134163,-5.67073154449,-0.670731723309,1.0,0.0,0.0,0.0,1.0,0.0,0.0,0.0,1.0,-3.27047946777,3.25611425781,-13.9869260986,1.0,0.0,0.0,0.0,1.0,0.0,0.0,0.0,1.0
1463082201932479084,422,1463082201929222373,,6.00114965439,-27.5751667023,-90.2923965454,0.00999199971557,1.0,0.0,0.0,0.0,1.0,0.0,0.0,0.0,1.0,8.04878044128,6.64634132385,3.53658556938,1.0,0.0,0.0,0.0,1.0,0.0,0.0,0.0,1.0,-4.89853659668,-0.828393774414,-7.48906279297,1.0,0.0,0.0,0.0,1.0,0.0,0.0,0.0,1.0
1463082201942434530,423,1463082201939220110,,5.89247179031,-27.487991333,-90.2236480713,0.00999699998647,1.0,0.0,0.0,0.0,1.0,0.0,0.0,0.0,1.0,0.0,-1.09756100178,-2.98780488968,1.0,0.0,0.0,0.0,1.0,0.0,0.0,0.0,1.0,-3.56736047363,1.58496149902,-11.0037508301,1.0,0.0,0.0,0.0,1.0,0.0,0.0,0.0,1.0
1463082201952667527,424,1463082201949277535,,6.07524490356,-27.4445171356,-90.2338790894,0.0100130001083,1.0,0.0,0.0,0.0,1.0,0.0,0.0,0.0,1.0,3.59756112099,-3.84146332741,1.8292683363,1.0,0.0,0.0,0.0,1.0,0.0,0.0,0.0,1.0,-3.7253777832,-3.37582434082,-10.2232410889,1.0,0.0,0.0,0.0,1.0,0.0,0.0,0.0,1.0
1463082201961161414,425,1463082201959173971,,6.05265235901,-27.3139667511,-90.1312789917,0.00998799968511,1.0,0.0,0.0,0.0,1.0,0.0,0.0,0.0,1.0,9.14634132385,5.79268312454,-0.12195122242,1.0,0.0,0.0,0.0,1.0,0.0,0.0,0.0,1.0,-5.11880314941,1.71903679199,-13.9438304687,1.0,0.0,0.0,0.0,1.0,0.0,0.0,0.0,1.0
1463082201971156235,426,1463082201969232541,,6.18073129654,-27.1763496399,-90.1117477417,0.0100100003183,1.0,0.0,0.0,0.0,1.0,0.0,0.0,0.0,1.0,3.53658556938,-4.69512224197,2.43902444839,1.0,0.0,0.0,0.0,1.0,0.0,0.0,0.0,1.0,-1.27850368652,-1.93930334473,-8.29830236958,1.0,0.0,0.0,0.0,1.0,0.0,0.0,0.0,1.0
1463082201981179650,427,1463082201979176165,,6.42946815491,-27.1691913605,-90.1316223145,0.00999299995601,1.0,0.0,0.0,0.0,1.0,0.0,0.0,0.0,1.0,6.52439069748,0.0,2.19512200356,1.0,0.0,0.0,0.0,1.0,0.0,0.0,0.0,1.0,-4.0318355957,-3.31836350098,-7.65665690918,1.0,0.0,0.0,0.0,1.0,0.0,0.0,0.0,1.0
1463082201992429884,428,1463082201989186194,,6.44139814377,-27.1594200134,-90.0532073975,0.0100020002574,1.0,0.0,0.0,0.0,1.0,0.0,0.0,0.0,1.0,5.97560977936,3.35365867615,0.853658556938,1.0,0.0,0.0,0.0,1.0,0.0,0.0,0.0,1.0,-4.3239284905,0.0574608398438,-7.51779321289,1.0,0.0,0.0,0.0,1.0,0.0,0.0,0.0,1.0
1463082202001587415,429,1463082201999182421,,6.37886857986,-27.2853107452,-90.0094299316,0.00999800022691,1.0,0.0,0.0,0.0,1.0,0.0,0.0,0.0,1.0,-0.609756112099,-2.68292689323,-2.86585378647,1.0,0.0,0.0,0.0,1.0,0.0,0.0,0.0,1.0,-7.71411774902,0.814028564453,-9.90241806641,1.0,0.0,0.0,0.0,1.0,0.0,0.0,0.0,1.0
1463082202012463953,430,1463082202009182815,,6.28207492828,-27.0289936066,-89.9031982422,0.00999899953604,1.0,0.0,0.0,0.0,1.0,0.0,0.0,0.0,1.0,-0.914634168148,3.65853667259,1.95121955872,1.0,0.0,0.0,0.0,1.0,0.0,0.0,0.0,1.0,-0.732625708008,0.440533105469,-9.30386706685,1.0,0.0,0.0,0.0,1.0,0.0,0.0,0.0,1.0
1463082202020929611,431,1463082202019200448,,6.05994319916,-27.037355423,-89.727645874,0.0100010000169,1.0,0.0,0.0,0.0,1.0,0.0,0.0,0.0,1.0,3.7804877758,-1.09756100178,1.34146344662,1.0,0.0,0.0,0.0,1.0,0.0,0.0,0.0,1.0,-4.10366164551,3.45722719727,-8.38449362935,1.0,0.0,0.0,0.0,1.0,0.0,0.0,0.0,1.0
1463082202031661357,432,1463082202029245998,,6.30684375763,-26.9910087585,-89.8440551758,0.00999999977648,1.0,0.0,0.0,0.0,1.0,0.0,0.0,0.0,1.0,-3.71951246262,0.0,-3.53658556938,1.0,0.0,0.0,0.0,1.0,0.0,0.0,0.0,1.0,-5.02782348633,-6.46434448242,-11.1761333496,1.0,0.0,0.0,0.0,1.0,0.0,0.0,0.0,1.0
1463082202041047898,433,1463082202039213059,,6.18956708908,-27.069519043,-89.8184967041,0.0100050000474,1.0,0.0,0.0,0.0,1.0,0.0,0.0,0.0,1.0,-1.03658533096,-3.71951246262,-7.37804937363,1.0,0.0,0.0,0.0,1.0,0.0,0.0,0.0,1.0,-4.90811340332,1.67594116211,-7.82903942871,1.0,0.0,0.0,0.0,1.0,0.0,0.0,0.0,1.0
1463082202053310214,434,1463082202049269286,,6.17169618607,-27.2426986694,-89.7232818604,0.0100010000169,1.0,0.0,0.0,0.0,1.0,0.0,0.0,0.0,1.0,1.70731711388,-4.63414621353,4.2682929039,1.0,0.0,0.0,0.0,1.0,0.0,0.0,0.0,1.0,-9.13148513184,-0.272938989258,-10.8265799072,1.0,0.0,0.0,0.0,1.0,0.0,0.0,0.0,1.0
1463082202061604049,435,1463082202059218065,,6.41321897507,-26.9804878235,-89.7788619995,0.00999699998647,1.0,0.0,0.0,0.0,1.0,0.0,0.0,0.0,1.0,2.68292689323,5.0,-0.731707334518,1.0,0.0,0.0,0.0,1.0,0.0,0.0,0.0,1.0,-1.17794714373,-5.75566079102,-13.2255699707,1.0,0.0,0.0,0.0,1.0,0.0,0.0,0.0,1.0
1463082202071698036,436,1463082202069179292,,6.19069623947,-26.9933452606,-89.5777053833,0.0099950004369,1.0,0.0,0.0,0.0,1.0,0.0,0.0,0.0,1.0,2.62195134163,-4.69512224197,5.24390268326,1.0,0.0,0.0,0.0,1.0,0.0,0.0,0.0,1.0,-5.08528432617,4.12281525879,-12.3349269531,1.0,0.0,0.0,0.0,1.0,0.0,0.0,0.0,1.0
1463082202082770199,437,1463082202079170884,,6.26243257523,-26.9326972961,-89.519493103,0.0100010000169,1.0,0.0,0.0,0.0,1.0,0.0,0.0,0.0,1.0,4.32926845551,1.15853655338,2.80487799644,1.0,0.0,0.0,0.0,1.0,0.0,0.0,0.0,1.0,-4.87459458008,-1.65199914551,-11.7555301514,1.0,0.0,0.0,0.0,1.0,0.0,0.0,0.0,1.0
1463082202091557731,438,1463082202089186226,,6.1833820343,-27.0042667389,-89.4247283936,0.0100010000169,1.0,0.0,0.0,0.0,1.0,0.0,0.0,0.0,1.0,-0.18292683363,4.75609779358,1.03658533096,1.0,0.0,0.0,0.0,1.0,0.0,0.0,0.0,1.0,-6.82347473145,0.689530078125,-8.34618640278,1.0,0.0,0.0,0.0,1.0,0.0,0.0,0.0,1.0
1463082202102411664,439,1463082202099193963,,6.37299156189,-26.830078125,-89.431602478,0.00999800022691,1.0,0.0,0.0,0.0,1.0,0.0,0.0,0.0,1.0,2.31707310677,-0.670731723309,2.80487799644,1.0,0.0,0.0,0.0,1.0,0.0,0.0,0.0,1.0,-2.70065947266,-6.84741674805,-18.3252206759,1.0,0.0,0.0,0.0,1.0,0.0,0.0,0.0,1.0
1463082202112671432,440,1463082202109214982,,6.61376142502,-26.9431343079,-89.483757019,0.0100020002574,1.0,0.0,0.0,0.0,1.0,0.0,0.0,0.0,1.0,2.62195134163,0.853658556938,-0.0609756112099,1.0,0.0,0.0,0.0,1.0,0.0,0.0,0.0,1.0,-4.08450803223,-2.48518132324,-4.53461794434,1.0,0.0,0.0,0.0,1.0,0.0,0.0,0.0,1.0
1463082202121566151,441,1463082202119245376,,6.76699066162,-26.9622154236,-89.5120849609,0.0100079998374,1.0,0.0,0.0,0.0,1.0,0.0,0.0,0.0,1.0,2.86585378647,2.62195134163,-2.19512200356,1.0,0.0,0.0,0.0,1.0,0.0,0.0,0.0,1.0,-8.48505126812,-3.78762702637,-13.0005150146,1.0,0.0,0.0,0.0,1.0,0.0,0.0,0.0,1.0
1463082202132563418,442,1463082202129164311,,6.86532068253,-26.961315155,-89.5598907471,0.00999199971557,1.0,0.0,0.0,0.0,1.0,0.0,0.0,0.0,1.0,5.97560977936,-2.43902444839,-8.23170757294,1.0,0.0,0.0,0.0,1.0,0.0,0.0,0.0,1.0,-5.26245524902,-0.723048901367,-10.7739074707,1.0,0.0,0.0,0.0,1.0,0.0,0.0,0.0,1.0
1463082202141287252,443,1463082202139259809,,6.91626310349,-26.8725662231,-89.5653152466,0.0100109996274,1.0,0.0,0.0,0.0,1.0,0.0,0.0,0.0,1.0,3.17073178291,-1.2804877758,-4.57317066193,1.0,0.0,0.0,0.0,1.0,0.0,0.0,0.0,1.0,-3.3470939209,-0.742202514648,-10.4004120117,1.0,0.0,0.0,0.0,1.0,0.0,0.0,0.0,1.0
1463082202153181913,444,1463082202149303432,,7.04780292511,-26.6582107544,-89.5806655884,0.009990000166,1.0,0.0,0.0,0.0,1.0,0.0,0.0,0.0,1.0,-0.914634168148,4.02439022064,-0.0609756112099,1.0,0.0,0.0,0.0,1.0,0.0,0.0,0.0,1.0,-2.11647412145,-4.0557776123,-12.6509615723,1.0,0.0,0.0,0.0,1.0,0.0,0.0,0.0,1.0
1463082202162916109,445,1463082202159245545,,6.96514606476,-26.6291160583,-89.509262085,0.0100020002574,1.0,0.0,0.0,0.0,1.0,0.0,0.0,0.0,1.0,-1.52439022064,-3.47560977936,-0.0609756112099,1.0,0.0,0.0,0.0,1.0,0.0,0.0,0.0,1.0,-4.04620080566,0.402225878906,-10.8122146973,1.0,0.0,0.0,0.0,1.0,0.0,0.0,0.0,1.0
1463082202171152392,446,1463082202169248803,,6.82881832123,-26.6522655487,-89.3740234375,0.0100090000778,1.0,0.0,0.0,0.0,1.0,0.0,0.0,0.0,1.0,3.47560977936,-2.56097555161,1.70731711388,1.0,0.0,0.0,0.0,1.0,0.0,0.0,0.0,1.0,-3.95043273926,1.76213242187,-8.09719001465,1.0,0.0,0.0,0.0,1.0,0.0,0.0,0.0,1.0
1463082202183059761,447,1463082202179168520,,6.8603682518,-26.5756435394,-89.2997055054,0.00998700037599,1.0,0.0,0.0,0.0,1.0,0.0,0.0,0.0,1.0,6.7682929039,0.975609779358,1.34146344662,1.0,0.0,0.0,0.0,1.0,0.0,0.0,0.0,1.0,-3.36145913086,-0.263362164351,-9.14106193848,1.0,0.0,0.0,0.0,1.0,0.0,0.0,0.0,1.0
1463082202191259690,448,1463082202189192039,,6.74579954147,-26.3837070465,-89.1769485474,0.0100050000474,1.0,0.0,0.0,0.0,1.0,0.0,0.0,0.0,1.0,3.96341490746,2.25609779358,0.670731723309,1.0,0.0,0.0,0.0,1.0,0.0,0.0,0.0,1.0,-1.37427175293,1.4604630127,-8.90643017578,1.0,0.0,0.0,0.0,1.0,0.0,0.0,0.0,1.0
1463082202201493156,449,1463082202199201234,,6.96937656403,-26.4057617188,-89.1348266602,0.00999699998647,1.0,0.0,0.0,0.0,1.0,0.0,0.0,0.0,1.0,8.41463470459,-4.20731735229,7.19512224197,1.0,0.0,0.0,0.0,1.0,0.0,0.0,0.0,1.0,-4.02225878906,-3.40455476074,-8.66701059429,1.0,0.0,0.0,0.0,1.0,0.0,0.0,0.0,1.0
1463082202212791828,450,1463082202209160847,,6.96742963791,-26.5041294098,-89.0503387451,0.00999800022691,1.0,0.0,0.0,0.0,1.0,0.0,0.0,0.0,1.0,4.87804889679,1.03658533096,1.70731711388,1.0,0.0,0.0,0.0,1.0,0.0,0.0,0.0,1.0,-6.40688364258,0.0957680664062,-8.3030907729,1.0,0.0,0.0,0.0,1.0,0.0,0.0,0.0,1.0
1463082202221001653,451,1463082202219251918,,6.78095149994,-26.6040000916,-88.9036331177,0.0100170001388,1.0,0.0,0.0,0.0,1.0,0.0,0.0,0.0,1.0,5.42682933807,2.07317066193,-1.09756100178,1.0,0.0,0.0,0.0,1.0,0.0,0.0,0.0,1.0,-5.79396801758,3.31836350098,-7.14429775391,1.0,0.0,0.0,0.0,1.0,0.0,0.0,0.0,1.0
1463082202232801835,452,1463082202229166635,,6.7455034256,-26.5976428986,-88.8167419434,0.00998300034553,1.0,0.0,0.0,0.0,1.0,0.0,0.0,0.0,1.0,4.08536577225,-3.35365867615,1.2195122242,1.0,0.0,0.0,0.0,1.0,0.0,0.0,0.0,1.0,-4.38138903809,0.507570751953,-10.4530844482,1.0,0.0,0.0,0.0,1.0,0.0,0.0,0.0,1.0
1463082202241514263,453,1463082202239372340,,6.67008638382,-26.371389389,-88.7583312988,0.0101840002462,1.0,0.0,0.0,0.0,1.0,0.0,0.0,0.0,1.0,-5.73170757294,5.85365867615,-0.12195122242,1.0,0.0,0.0,0.0,1.0,0.0,0.0,0.0,1.0,-2.17872351074,-0.656011254883,-11.9374894775,1.0,0.0,0.0,0.0,1.0,0.0,0.0,0.0,1.0
1463082202252786216,454,1463082202249263464,,6.41968154907,-26.2819881439,-88.6152572632,0.00982099957764,1.0,0.0,0.0,0.0,1.0,0.0,0.0,0.0,1.0,-4.45121955872,2.01219511032,0.487804889679,1.0,0.0,0.0,0.0,1.0,0.0,0.0,0.0,1.0,-4.17548740305,3.57693728027,-12.4737906494,1.0,0.0,0.0,0.0,1.0,0.0,0.0,0.0,1.0
1463082202262555569,455,1463082202259229899,,6.33552312851,-26.3044147491,-88.5663146973,0.00999999977648,1.0,0.0,0.0,0.0,1.0,0.0,0.0,0.0,1.0,-3.71951246262,2.31707310677,-2.19512200356,1.0,0.0,0.0,0.0,1.0,0.0,0.0,0.0,1.0,-6.87135876465,0.450109912109,-11.2048637695,1.0,0.0,0.0,0.0,1.0,0.0,0.0,0.0,1.0
1463082202271065914,456,1463082202269169252,,6.492228508,-26.3683586121,-88.6096115112,0.00999299995601,1.0,0.0,0.0,0.0,1.0,0.0,0.0,0.0,1.0,-0.12195122242,-2.01219511032,-1.76829278469,1.0,0.0,0.0,0.0,1.0,0.0,0.0,0.0,1.0,-8.06845959473,-4.46758029785,-12.6509615723,1.0,0.0,0.0,0.0,1.0,0.0,0.0,0.0,1.0
1463082202282892345,457,1463082202279254281,,6.53002548218,-26.2256069183,-88.5835647583,0.0100100003183,1.0,0.0,0.0,0.0,1.0,0.0,0.0,0.0,1.0,0.975609779358,7.13414621353,-1.52439022064,1.0,0.0,0.0,0.0,1.0,0.0,0.0,0.0,1.0,-3.43328518066,-1.06302561017,-9.43794235981,1.0,0.0,0.0,0.0,1.0,0.0,0.0,0.0,1.0
1463082202291557117,458,1463082202289198893,,6.45582771301,-25.9614238739,-88.5063552856,0.00999299995601,1.0,0.0,0.0,0.0,1.0,0.0,0.0,0.0,1.0,-4.20731735229,0.548780500889,2.01219511032,1.0,0.0,0.0,0.0,1.0,0.0,0.0,0.0,1.0,0.191536132812,-0.632069238281,-16.4002813721,1.0,0.0,0.0,0.0,1.0,0.0,0.0,0.0,1.0
1463082202301447928,459,1463082202299215068,,6.41471481323,-25.7676105499,-88.45262146,0.00999899953604,1.0,0.0,0.0,0.0,1.0,0.0,0.0,0.0,1.0,-2.74390244484,0.975609779358,0.243902444839,1.0,0.0,0.0,0.0,1.0,0.0,0.0,0.0,1.0,-2.44208569336,-0.967257470703,-18.38746875,1.0,0.0,0.0,0.0,1.0,0.0,0.0,0.0,1.0
1463082202312666860,460,1463082202309339160,,6.53472995758,-25.753868103,-88.4510116577,0.00999999977648,1.0,0.0,0.0,0.0,1.0,0.0,0.0,0.0,1.0,1.03658533096,1.03658533096,0.426829278469,1.0,0.0,0.0,0.0,1.0,0.0,0.0,0.0,1.0,-5.5641246582,-3.03105930176,-11.1474029297,1.0,0.0,0.0,0.0,1.0,0.0,0.0,0.0,1.0
1463082202321464965,461,1463082202319207314,,6.21683645248,-25.7390594482,-88.2518157959,0.00999899953604,1.0,0.0,0.0,0.0,1.0,0.0,0.0,0.0,1.0,-1.40243899822,0.243902444839,2.31707310677,1.0,0.0,0.0,0.0,1.0,0.0,0.0,0.0,1.0,-4.24731403738,4.86501777344,-9.84495722656,1.0,0.0,0.0,0.0,1.0,0.0,0.0,0.0,1.0
1463082202332564159,462,1463082202329204270,,5.99501276016,-25.5473823547,-88.1178207397,0.00999999977648,1.0,0.0,0.0,0.0,1.0,0.0,0.0,0.0,1.0,-5.67073154449,2.13414645195,1.70731711388,1.0,0.0,0.0,0.0,1.0,0.0,0.0,0.0,1.0,-1.87226569824,2.62404501953,-13.8528508057,1.0,0.0,0.0,0.0,1.0,0.0,0.0,0.0,1.0
1463082202341581013,463,1463082202339473987,,5.91465091705,-25.4556369781,-88.0190963745,0.0100010000169,1.0,0.0,0.0,0.0,1.0,0.0,0.0,0.0,1.0,-0.975609779358,1.03658533096,2.5,1.0,0.0,0.0,0.0,1.0,0.0,0.0,0.0,1.0,-3.62482131348,0.416591088867,-11.5496288086,1.0,0.0,0.0,0.0,1.0,0.0,0.0,0.0,1.0
1463082202352674321,464,1463082202349286516,,5.63326740265,-25.4785385132,-87.8576889038,0.0100109996274,1.0,0.0,0.0,0.0,1.0,0.0,0.0,0.0,1.0,-4.08536577225,0.609756112099,1.2804877758,1.0,0.0,0.0,0.0,1.0,0.0,0.0,0.0,1.0,-4.19942941965,3.1124621582,-7.86255825195,1.0,0.0,0.0,0.0,1.0,0.0,0.0,0.0,1.0
1463082202362598413,465,1463082202359277587,,5.57815885544,-25.2816371918,-87.8289337158,0.00999599974602,1.0,0.0,0.0,0.0,1.0,0.0,0.0,0.0,1.0,-5.48780488968,4.63414621353,-2.19512200356,1.0,0.0,0.0,0.0,1.0,0.0,0.0,0.0,1.0,-2.67671745605,-0.588973571866,-13.9055232422,1.0,0.0,0.0,0.0,1.0,0.0,0.0,0.0,1.0
1463082202371155737,466,1463082202369164700,,5.34295082092,-25.0929050446,-87.6788253784,0.00998799968511,1.0,0.0,0.0,0.0,1.0,0.0,0.0,0.0,1.0,-2.92682933807,-0.18292683363,1.95121955872,1.0,0.0,0.0,0.0,1.0,0.0,0.0,0.0,1.0,-0.780509741211,2.69587106934,-9.81143840332,1.0,0.0,0.0,0.0,1.0,0.0,0.0,0.0,1.0
1463082202382389722,467,1463082202379198062,,5.02735948563,-25.0187740326,-87.513130188,0.0100119998679,1.0,0.0,0.0,0.0,1.0,0.0,0.0,0.0,1.0,-3.96341490746,-0.731707334518,0.426829278469,1.0,0.0,0.0,0.0,1.0,0.0,0.0,0.0,1.0,-2.80121594238,4.50588752441,-9.96945571289,1.0,0.0,0.0,0.0,1.0,0.0,0.0,0.0,1.0
1463082202391443034,468,1463082202389219498,,4.97371196747,-25.0345058441,-87.434715271,0.00999299995601,1.0,0.0,0.0,0.0,1.0,0.0,0.0,0.0,1.0,-2.31707310677,1.34146344662,2.19512200356,1.0,0.0,0.0,0.0,1.0,0.0,0.0,0.0,1.0,-6.21055910645,-0.0478840332031,-11.4969563721,1.0,0.0,0.0,0.0,1.0,0.0,0.0,0.0,1.0
1463082202401429626,469,1463082202399199996,,5.04718780518,-24.8556404114,-87.4619369507,0.00999800022691,1.0,0.0,0.0,0.0,1.0,0.0,0.0,0.0,1.0,-1.03658533096,1.64634156227,-4.08536577225,1.0,0.0,0.0,0.0,1.0,0.0,0.0,0.0,1.0,-1.83395847168,-1.66157595215,-10.9558667969,1.0,0.0,0.0,0.0,1.0,0.0,0.0,0.0,1.0
1463082202412616267,470,1463082202409213983,,4.95994091034,-24.9194107056,-87.3119659424,0.010006999597,1.0,0.0,0.0,0.0,1.0,0.0,0.0,0.0,1.0,1.70731711388,-2.31707310677,6.95121955872,1.0,0.0,0.0,0.0,1.0,0.0,0.0,0.0,1.0,-6.63193859863,1.13485158691,-12.0667763672,1.0,0.0,0.0,0.0,1.0,0.0,0.0,0.0,1.0
1463082202422102287,471,1463082202419450887,,4.99540615082,-25.2290744781,-87.2134094238,0.0100130001083,1.0,0.0,0.0,0.0,1.0,0.0,0.0,0.0,1.0,5.60975599289,-3.47560977936,5.24390268326,1.0,0.0,0.0,0.0,1.0,0.0,0.0,0.0,1.0,-7.6614453125,-0.119710083008,-5.53539423828,1.0,0.0,0.0,0.0,1.0,0.0,0.0,0.0,1.0
1463082202432233670,472,1463082202429457114,,5.05652952194,-25.2985019684,-87.1601638794,0.00999100040644,1.0,0.0,0.0,0.0,1.0,0.0,0.0,0.0,1.0,5.12195110321,0.365853667259,1.40243899822,1.0,0.0,0.0,0.0,1.0,0.0,0.0,0.0,1.0,-5.73171877441,-0.60812722168,-8.73883605957,1.0,0.0,0.0,0.0,1.0,0.0,0.0,0.0,1.0
1463082202441205994,473,1463082202439500789,,5.40537834167,-25.353975296,-87.253288269,0.00999299995601,1.0,0.0,0.0,0.0,1.0,0.0,0.0,0.0,1.0,7.68292665482,0.853658556938,-2.31707310677,1.0,0.0,0.0,0.0,1.0,0.0,0.0,0.0,1.0,-4.50588752441,-3.91691391602,-6.54574733887,1.0,0.0,0.0,0.0,1.0,0.0,0.0,0.0,1.0
1463082202453585601,474,1463082202449231131,,5.23668766022,-25.2927951813,-87.0819778442,0.00999999977648,1.0,0.0,0.0,0.0,1.0,0.0,0.0,0.0,1.0,2.68292689323,-1.2195122242,4.81707286835,1.0,0.0,0.0,0.0,1.0,0.0,0.0,0.0,1.0,-2.64798703613,2.11647412145,-8.51378168804,1.0,0.0,0.0,0.0,1.0,0.0,0.0,0.0,1.0
1463082202460984542,475,1463082202459242671,,5.35688686371,-25.4911403656,-87.035446167,0.0100050000474,1.0,0.0,0.0,0.0,1.0,0.0,0.0,0.0,1.0,7.62195110321,-1.58536589146,2.43902444839,1.0,0.0,0.0,0.0,1.0,0.0,0.0,0.0,1.0,-7.55131203613,-1.19231249982,-7.59440766602,1.0,0.0,0.0,0.0,1.0,0.0,0.0,0.0,1.0
1463082202470956759,476,1463082202469164680,,5.42600107193,-25.7210960388,-86.9974060059,0.00999199971557,1.0,0.0,0.0,0.0,1.0,0.0,0.0,0.0,1.0,6.58536624908,0.609756112099,-0.670731723309,1.0,0.0,0.0,0.0,1.0,0.0,0.0,0.0,1.0,-5.84185205078,-0.138863696289,-4.74530798269,1.0,0.0,0.0,0.0,1.0,0.0,0.0,0.0,1.0
1463082202480894757,477,1463082202479217990,,5.35344266891,-25.4974021912,-86.9505081177,0.0100100003183,1.0,0.0,0.0,0.0,1.0,0.0,0.0,0.0,1.0,1.46341466904,3.23170733452,-4.2682929039,1.0,0.0,0.0,0.0,1.0,0.0,0.0,0.0,1.0,-1.27850368652,1.31681091309,-11.1090957031,1.0,0.0,0.0,0.0,1.0,0.0,0.0,0.0,1.0
1463082202491553899,478,1463082202489174217,,5.46686649323,-25.5265045166,-86.8676300049,0.00998899992555,1.0,0.0,0.0,0.0,1.0,0.0,0.0,0.0,1.0,4.08536577225,-2.98780488968,8.04878044128,1.0,0.0,0.0,0.0,1.0,0.0,0.0,0.0,1.0,-5.73171877441,-2.92571442871,-11.884817041,1.0,0.0,0.0,0.0,1.0,0.0,0.0,0.0,1.0
1463082202501420543,479,1463082202499176694,,5.03142166138,-25.4631900787,-86.5920639038,0.00999999977648,1.0,0.0,0.0,0.0,1.0,0.0,0.0,0.0,1.0,1.2804877758,-2.62195134163,4.2682929039,1.0,0.0,0.0,0.0,1.0,0.0,0.0,0.0,1.0,-1.10133276367,4.77403840261,-5.36301171875,1.0,0.0,0.0,0.0,1.0,0.0,0.0,0.0,1.0
1463082202511405573,480,1463082202509197296,,4.71419239044,-25.525510788,-86.395904541,0.0100039998069,1.0,0.0,0.0,0.0,1.0,0.0,0.0,0.0,1.0,-2.92682933807,3.17073178291,2.62195134163,1.0,0.0,0.0,0.0,1.0,0.0,0.0,0.0,1.0,-5.00388146973,3.93127912598,-7.03895288086,1.0,0.0,0.0,0.0,1.0,0.0,0.0,0.0,1.0
1463082202520898520,481,1463082202519190919,,4.66521310806,-25.5802154541,-86.2576065063,0.00999999977648,1.0,0.0,0.0,0.0,1.0,0.0,0.0,0.0,1.0,6.40243911743,1.34146344662,4.81707286835,1.0,0.0,0.0,0.0,1.0,0.0,0.0,0.0,1.0,-5.8945244873,1.26892687988,-9.2655604248,1.0,0.0,0.0,0.0,1.0,0.0,0.0,0.0,1.0
1463082202531550995,482,1463082202529247407,,4.49238491058,-26.0698184967,-86.0949249268,0.0100050000474,1.0,0.0,0.0,0.0,1.0,0.0,0.0,0.0,1.0,0.304878056049,-3.59756112099,4.69512224197,1.0,0.0,0.0,0.0,1.0,0.0,0.0,0.0,1.0,-11.7267997314,3.3949779541,-1.76213242187,1.0,0.0,0.0,0.0,1.0,0.0,0.0,0.0,1.0
1463082202541067224,483,1463082202539367800,,4.73544454575,-26.1294670105,-86.1625289917,0.00999299995601,1.0,0.0,0.0,0.0,1.0,0.0,0.0,0.0,1.0,3.23170733452,4.93902444839,-2.5,1.0,0.0,0.0,0.0,1.0,0.0,0.0,0.0,1.0,-7.12514414062,-3.9839515625,-8.64306857769,1.0,0.0,0.0,0.0,1.0,0.0,0.0,0.0,1.0
1463082202552870634,484,1463082202549252830,,4.55002260208,-26.0298252106,-86.0845794678,0.00999999977648,1.0,0.0,0.0,0.0,1.0,0.0,0.0,0.0,1.0,-1.8902438879,0.365853667259,-4.57317066193,1.0,0.0,0.0,0.0,1.0,0.0,0.0,0.0,1.0,-3.17949980469,3.06936652832,-10.7451770508,1.0,0.0,0.0,0.0,1.0,0.0,0.0,0.0,1.0
1463082202561550093,485,1463082202559234734,,4.38328123093,-25.8633499146,-85.9351577759,0.010006999597,1.0,0.0,0.0,0.0,1.0,0.0,0.0,0.0,1.0,1.15853655338,0.487804889679,2.86585378647,1.0,0.0,0.0,0.0,1.0,0.0,0.0,0.0,1.0,-1.4604630127,2.17393510742,-9.27034882812,1.0,0.0,0.0,0.0,1.0,0.0,0.0,0.0,1.0
1463082202571623612,486,1463082202569212211,,4.49338340759,-25.4619274139,-85.9425201416,0.009990000166,1.0,0.0,0.0,0.0,1.0,0.0,0.0,0.0,1.0,2.01219511032,7.19512224197,-1.8902438879,1.0,0.0,0.0,0.0,1.0,0.0,0.0,0.0,1.0,1.87226569824,-2.01591779785,-11.750741748,1.0,0.0,0.0,0.0,1.0,0.0,0.0,0.0,1.0
1463082202581462131,487,1463082202579225991,,4.39943265915,-25.119474411,-85.8727111816,0.0100100003183,1.0,0.0,0.0,0.0,1.0,0.0,0.0,0.0,1.0,-3.35365867615,2.86585378647,-0.243902444839,1.0,0.0,0.0,0.0,1.0,0.0,0.0,0.0,1.0,2.04943662109,0.943315454102,-15.2797949951,1.0,0.0,0.0,0.0,1.0,0.0,0.0,0.0,1.0
1463082202591536639,488,1463082202589222947,,4.55382394791,-24.9933300018,-85.89894104,0.00999299995601,1.0,0.0,0.0,0.0,1.0,0.0,0.0,0.0,1.0,0.731707334518,-2.07317066193,-0.670731723309,1.0,0.0,0.0,0.0,1.0,0.0,0.0,0.0,1.0,-2.14041643031,-3.08373173828,-11.2192289795,1.0,0.0,0.0,0.0,1.0,0.0,0.0,0.0,1.0
1463082202601674116,489,1463082202599160164,,4.25164985657,-24.8497657776,-85.7122497559,0.00999699998647,1.0,0.0,0.0,0.0,1.0,0.0,0.0,0.0,1.0,0.365853667259,1.8902438879,1.2195122242,1.0,0.0,0.0,0.0,1.0,0.0,0.0,0.0,1.0,-2.05422502441,5.8466404541,-11.3006318359,1.0,0.0,0.0,0.0,1.0,0.0,0.0,0.0,1.0
1463082202611705395,490,1463082202609210609,,4.09703588486,-25.0218276978,-85.4975585938,0.0100050000474,1.0,0.0,0.0,0.0,1.0,0.0,0.0,0.0,1.0,10.1829271317,1.09756100178,6.64634132385,1.0,0.0,0.0,0.0,1.0,0.0,0.0,0.0,1.0,-6.46913288574,3.48595761719,-6.57447775879,1.0,0.0,0.0,0.0,1.0,0.0,0.0,0.0,1.0
1463082202621428707,491,1463082202619185014,,4.5502872467,-24.9812488556,-85.5651550293,0.0100020002574,1.0,0.0,0.0,0.0,1.0,0.0,0.0,0.0,1.0,12.6219520569,0.12195122242,3.04878044128,1.0,0.0,0.0,0.0,1.0,0.0,0.0,0.0,1.0,-5.39174213867,-9.73961235352,-13.378798877,1.0,0.0,0.0,0.0,1.0,0.0,0.0,0.0,1.0
1463082202631455298,492,1463082202629243376,,4.71776723862,-25.1306838989,-85.5983505249,0.0100010000169,1.0,0.0,0.0,0.0,1.0,0.0,0.0,0.0,1.0,3.59756112099,-1.64634156227,-2.25609779358,1.0,0.0,0.0,0.0,1.0,0.0,0.0,0.0,1.0,-5.40610734863,-1.80043964844,-6.40209523926,1.0,0.0,0.0,0.0,1.0,0.0,0.0,0.0,1.0
1463082202642526783,493,1463082202639389707,,4.75815391541,-25.3302230835,-85.5312347412,0.00999199971557,1.0,0.0,0.0,0.0,1.0,0.0,0.0,0.0,1.0,4.81707286835,4.08536577225,1.76829278469,1.0,0.0,0.0,0.0,1.0,0.0,0.0,0.0,1.0,-7.26400783691,-0.129286889648,-5.92325490723,1.0,0.0,0.0,0.0,1.0,0.0,0.0,0.0,1.0
1463082202653176551,494,1463082202649255257,,4.72736406326,-25.1889343262,-85.4632415771,0.0100130001083,1.0,0.0,0.0,0.0,1.0,0.0,0.0,0.0,1.0,-1.8902438879,-0.975609779358,2.13414645195,1.0,0.0,0.0,0.0,1.0,0.0,0.0,0.0,1.0,-3.16992299805,-0.641646044922,-17.2526171631,1.0,0.0,0.0,0.0,1.0,0.0,0.0,0.0,1.0
1463082202661024189,495,1463082202659210235,,4.55635070801,-25.0207328796,-85.3935241699,0.00998899992555,1.0,0.0,0.0,0.0,1.0,0.0,0.0,0.0,1.0,-4.81707286835,2.80487799644,-3.23170733452,1.0,0.0,0.0,0.0,1.0,0.0,0.0,0.0,1.0,-2.67192905273,2.56179577637,-13.5799118164,1.0,0.0,0.0,0.0,1.0,0.0,0.0,0.0,1.0
1463082202671311509,496,1463082202669189274,,4.55287361145,-24.957529068,-85.3766555786,0.0100039998069,1.0,0.0,0.0,0.0,1.0,0.0,0.0,0.0,1.0,-3.35365867615,-2.68292689323,-1.40243899822,1.0,0.0,0.0,0.0,1.0,0.0,0.0,0.0,1.0,-3.53863005371,-0.861912597656,-11.7555301514,1.0,0.0,0.0,0.0,1.0,0.0,0.0,0.0,1.0
1463082202681554715,497,1463082202679197116,,4.7419295311,-25.2592449188,-85.420211792,0.0099950004369,1.0,0.0,0.0,0.0,1.0,0.0,0.0,0.0,1.0,3.59756112099,1.2195122242,-2.62195134163,1.0,0.0,0.0,0.0,1.0,0.0,0.0,0.0,1.0,-11.3485158691,-2.94007963867,-6.23450112305,1.0,0.0,0.0,0.0,1.0,0.0,0.0,0.0,1.0
1463082202691621202,498,1463082202689245010,,4.6029920578,-25.6171855927,-85.321762085,0.0100060002878,1.0,0.0,0.0,0.0,1.0,0.0,0.0,0.0,1.0,8.29268264771,0.12195122242,-4.75609779358,1.0,0.0,0.0,0.0,1.0,0.0,0.0,0.0,1.0,-4.47715710449,2.11647412145,-1.68551796875,1.0,0.0,0.0,0.0,1.0,0.0,0.0,0.0,1.0
1463082202702881177,499,1463082202699158008,,4.64291095734,-25.3393058777,-85.3383789062,0.00999299995601,1.0,0.0,0.0,0.0,1.0,0.0,0.0,0.0,1.0,5.42682933807,-0.975609779358,-7.37804937363,1.0,0.0,0.0,0.0,1.0,0.0,0.0,0.0,1.0,0.488417138672,0.31124621582,-7.60877287598,1.0,0.0,0.0,0.0,1.0,0.0,0.0,0.0,1.0
1463082202711539698,500,1463082202709189652,,4.73510551453,-25.3129119873,-85.3213272095,0.0100079998374,1.0,0.0,0.0,0.0,1.0,0.0,0.0,0.0,1.0,2.37804889679,-3.17073178291,0.487804889679,1.0,0.0,0.0,0.0,1.0,0.0,0.0,0.0,1.0,-4.80276882253,-2.02549460449,-12.9861498047,1.0,0.0,0.0,0.0,1.0,0.0,0.0,0.0,1.0
1463082202720882229,501,1463082202719184056,,4.6160068512,-25.1503276825,-85.2225799561,0.0100020002574,1.0,0.0,0.0,0.0,1.0,0.0,0.0,0.0,1.0,-0.731707334518,4.08536577225,0.365853667259,1.0,0.0,0.0,0.0,1.0,0.0,0.0,0.0,1.0,-2.37504819301,1.43173259277,-10.2040874756,1.0,0.0,0.0,0.0,1.0,0.0,0.0,0.0,1.0
1463082202731203299,502,1463082202729181012,,4.48562431335,-24.9297485352,-85.0977783203,0.00998899992555,1.0,0.0,0.0,0.0,1.0,0.0,0.0,0.0,1.0,-0.731707334518,2.43902444839,2.92682933807,1.0,0.0,0.0,0.0,1.0,0.0,0.0,0.0,1.0,-1.05823706072,1.76213242187,-12.7132108154,1.0,0.0,0.0,0.0,1.0,0.0,0.0,0.0,1.0
1463082202741053850,503,1463082202739238125,,4.72932672501,-24.9864826202,-85.1157684326,0.0100090000778,1.0,0.0,0.0,0.0,1.0,0.0,0.0,0.0,1.0,7.80487823486,-1.03658533096,0.975609779358,1.0,0.0,0.0,0.0,1.0,0.0,0.0,0.0,1.0,-5.42526096191,-3.23696064453,-9.02135185547,1.0,0.0,0.0,0.0,1.0,0.0,0.0,0.0,1.0
1463082202752962781,504,1463082202749261435,,4.82281255722,-25.0744972229,-85.1214828491,0.0099950004369,1.0,0.0,0.0,0.0,1.0,0.0,0.0,0.0,1.0,1.8902438879,-0.304878056049,-2.01219511032,1.0,0.0,0.0,0.0,1.0,0.0,0.0,0.0,1.0,-6.90966599121,-1.58496149902,-9.95030209961,1.0,0.0,0.0,0.0,1.0,0.0,0.0,0.0,1.0
1463082202760980210,505,1463082202759281100,,4.52425336838,-25.1561889648,-84.8751373291,0.0100149996579,1.0,0.0,0.0,0.0,1.0,0.0,0.0,0.0,1.0,4.39024400711,1.03658533096,5.97560977936,1.0,0.0,0.0,0.0,1.0,0.0,0.0,0.0,1.0,-4.18027580637,4.05098920898,-6.01902297363,1.0,0.0,0.0,0.0,1.0,0.0,0.0,0.0,1.0
1463082202770988417,506,1463082202769189723,,4.8696603775,-25.1234092712,-84.9638442993,0.00998600013554,1.0,0.0,0.0,0.0,1.0,0.0,0.0,0.0,1.0,7.07317113876,3.35365867615,-1.95121955872,1.0,0.0,0.0,0.0,1.0,0.0,0.0,0.0,1.0,-6.04296499023,-6.6702458252,-11.8082025879,1.0,0.0,0.0,0.0,1.0,0.0,0.0,0.0,1.0
1463082202780877873,507,1463082202779183867,,4.96782159805,-25.0533180237,-84.9746551514,0.0100029995665,1.0,0.0,0.0,0.0,1.0,0.0,0.0,0.0,1.0,-3.17073178291,-2.98780488968,0.304878056049,1.0,0.0,0.0,0.0,1.0,0.0,0.0,0.0,1.0,-3.43807358398,-3.20823022461,-12.1625444336,1.0,0.0,0.0,0.0,1.0,0.0,0.0,0.0,1.0
1463082202791310089,508,1463082202789249885,,4.89944267273,-25.1509437561,-84.7914810181,0.0100060002878,1.0,0.0,0.0,0.0,1.0,0.0,0.0,0.0,1.0,11.8292684555,10.0,5.60975599289,1.0,0.0,0.0,0.0,1.0,0.0,0.0,0.0,1.0,-5.03740029297,1.69030637207,-4.93205541992,1.0,0.0,0.0,0.0,1.0,0.0,0.0,0.0,1.0
1463082202801303295,509,1463082202799208613,,5.10185098648,-25.1121120453,-84.8321914673,0.00999100040644,1.0,0.0,0.0,0.0,1.0,0.0,0.0,0.0,1.0,1.8292683363,2.01219511032,-0.853658556938,1.0,0.0,0.0,0.0,1.0,0.0,0.0,0.0,1.0,-4.09887324219,-3.35188232422,-8.96389101563,1.0,0.0,0.0,0.0,1.0,0.0,0.0,0.0,1.0
1463082202812531082,510,1463082202809184215,,4.66421747208,-25.1509094238,-84.6356811523,0.0100020002574,1.0,0.0,0.0,0.0,1.0,0.0,0.0,0.0,1.0,-10.0609760284,0.853658556938,0.731707334518,1.0,0.0,0.0,0.0,1.0,0.0,0.0,0.0,1.0,-6.22971271973,7.36456430664,-10.7643306641,1.0,0.0,0.0,0.0,1.0,0.0,0.0,0.0,1.0
1463082202821486530,511,1463082202819220494,,4.73826885223,-25.3295993805,-84.5467834473,0.0100079998374,1.0,0.0,0.0,0.0,1.0,0.0,0.0,0.0,1.0,6.46341466904,-0.426829278469,5.36585378647,1.0,0.0,0.0,0.0,1.0,0.0,0.0,0.0,1.0,-8.34618640278,-0.881066210937,-8.80108530273,1.0,0.0,0.0,0.0,1.0,0.0,0.0,0.0,1.0
1463082202831365518,512,1463082202829166773,,4.65532922745,-25.3673210144,-84.4381027222,0.00999599974602,1.0,0.0,0.0,0.0,1.0,0.0,0.0,0.0,1.0,0.853658556938,-1.03658533096,2.80487799644,1.0,0.0,0.0,0.0,1.0,0.0,0.0,0.0,1.0,-4.77882680593,0.957680664062,-8.86812294922,1.0,0.0,0.0,0.0,1.0,0.0,0.0,0.0,1.0
1463082202840966069,513,1463082202839246125,,4.28423452377,-25.5262851715,-84.220703125,0.0100020002574,1.0,0.0,0.0,0.0,1.0,0.0,0.0,0.0,1.0,0.0,5.85365867615,0.792682945728,1.0,0.0,0.0,0.0,1.0,0.0,0.0,0.0,1.0,-6.42603725586,5.81312163086,-4.8793829834,1.0,0.0,0.0,0.0,1.0,0.0,0.0,0.0,1.0
1463082202853074844,514,1463082202849230738,,3.80339217186,-25.70570755,-84.034866333,0.00999299995601,1.0,0.0,0.0,0.0,1.0,0.0,0.0,0.0,1.0,-5.73170757294,-0.365853667259,-4.87804889679,1.0,0.0,0.0,0.0,1.0,0.0,0.0,0.0,1.0,-4.37660063477,5.82748684082,-3.4428619873,1.0,0.0,0.0,0.0,1.0,0.0,0.0,0.0,1.0
1463082202860954669,515,1463082202859251861,,3.6878349781,-25.7805042267,-83.9409561157,0.010006999597,1.0,0.0,0.0,0.0,1.0,0.0,0.0,0.0,1.0,0.487804889679,-1.64634156227,-0.304878056049,1.0,0.0,0.0,0.0,1.0,0.0,0.0,0.0,1.0,-4.91290180664,1.69509477539,-7.81467421875,1.0,0.0,0.0,0.0,1.0,0.0,0.0,0.0,1.0
1463082202871129229,516,1463082202869198192,,3.32200717926,-25.5052604675,-83.8089141846,0.00999599974602,1.0,0.0,0.0,0.0,1.0,0.0,0.0,0.0,1.0,-8.23170757294,7.13414621353,-4.45121955872,1.0,0.0,0.0,0.0,1.0,0.0,0.0,0.0,1.0,-0.450109912109,6.80910952148,-12.856862915,1.0,0.0,0.0,0.0,1.0,0.0,0.0,0.0,1.0
1463082202881107019,517,1463082202879168951,,3.14292097092,-25.6283550262,-83.6740036011,0.00999199971557,1.0,0.0,0.0,0.0,1.0,0.0,0.0,0.0,1.0,2.37804889679,-3.84146332741,0.426829278469,1.0,0.0,0.0,0.0,1.0,0.0,0.0,0.0,1.0,-5.93762011719,3.48116921387,-8.51857009136,1.0,0.0,0.0,0.0,1.0,0.0,0.0,0.0,1.0
1463082202891595224,518,1463082202889222417,,3.15191698074,-25.7038497925,-83.6224746704,0.0100119998679,1.0,0.0,0.0,0.0,1.0,0.0,0.0,0.0,1.0,2.56097555161,-3.17073178291,0.12195122242,1.0,0.0,0.0,0.0,1.0,0.0,0.0,0.0,1.0,-4.86980617676,0.201112939453,-8.17380446777,1.0,0.0,0.0,0.0,1.0,0.0,0.0,0.0,1.0
1463082202901721243,519,1463082202899159999,,2.87263345718,-25.5214691162,-83.3889770508,0.00998799968511,1.0,0.0,0.0,0.0,1.0,0.0,0.0,0.0,1.0,5.0,1.15853655338,5.0,1.0,0.0,0.0,0.0,1.0,0.0,0.0,0.0,1.0,-0.598550451572,3.50511123047,-6.37815322266,1.0,0.0,0.0,0.0,1.0,0.0,0.0,0.0,1.0
1463082202911358512,520,1463082202909173309,,2.9503762722,-25.5088748932,-83.3768539429,0.0100050000474,1.0,0.0,0.0,0.0,1.0,0.0,0.0,0.0,1.0,5.30487823486,0.914634168148,-2.43902444839,1.0,0.0,0.0,0.0,1.0,0.0,0.0,0.0,1.0,-5.83706364746,-0.325611425781,-11.9183358643,1.0,0.0,0.0,0.0,1.0,0.0,0.0,0.0,1.0
1463082202921524062,521,1463082202919228286,,2.55196213722,-25.2241420746,-83.1662826538,0.0099950004369,1.0,0.0,0.0,0.0,1.0,0.0,0.0,0.0,1.0,0.853658556938,5.67073154449,-1.34146344662,1.0,0.0,0.0,0.0,1.0,0.0,0.0,0.0,1.0,0.426167895508,3.07894333496,-3.46201560059,1.0,0.0,0.0,0.0,1.0,0.0,0.0,0.0,1.0
1463082202932617735,522,1463082202929209097,,2.60462903976,-25.2715148926,-83.1589889526,0.00999899953604,1.0,0.0,0.0,0.0,1.0,0.0,0.0,0.0,1.0,1.52439022064,-2.74390244484,-2.19512200356,1.0,0.0,0.0,0.0,1.0,0.0,0.0,0.0,1.0,-6.30153876953,-0.526724328702,-11.7603185547,1.0,0.0,0.0,0.0,1.0,0.0,0.0,0.0,1.0
1463082202941684381,523,1463082202939210428,,2.5458688736,-25.2228183746,-83.0788497925,0.0100029995665,1.0,0.0,0.0,0.0,1.0,0.0,0.0,0.0,1.0,-0.609756112099,1.2195122242,1.40243899822,1.0,0.0,0.0,0.0,1.0,0.0,0.0,0.0,1.0,-4.31914008718,0.837970581055,-10.5775829346,1.0,0.0,0.0,0.0,1.0,0.0,0.0,0.0,1.0
1463082202952839355,524,1463082202949261447,,2.8824877739,-25.3500537872,-83.1305007935,0.0100010000169,1.0,0.0,0.0,0.0,1.0,0.0,0.0,0.0,1.0,11.4024391174,-2.86585378647,0.12195122242,1.0,0.0,0.0,0.0,1.0,0.0,0.0,0.0,1.0,-5.03740029297,-3.07415493164,-6.64151540527,1.0,0.0,0.0,0.0,1.0,0.0,0.0,0.0,1.0
1463082202961522096,525,1463082202959247049,,2.59555125237,-25.3428421021,-83.0225143433,0.0100029995665,1.0,0.0,0.0,0.0,1.0,0.0,0.0,0.0,1.0,-5.91463422775,-5.24390268326,-3.59756112099,1.0,0.0,0.0,0.0,1.0,0.0,0.0,0.0,1.0,-2.82515795898,3.62482131348,-8.05888278809,1.0,0.0,0.0,0.0,1.0,0.0,0.0,0.0,1.0
1463082202971267386,526,1463082202969190463,,2.69818353653,-25.5166015625,-82.9813766479,0.00999699998647,1.0,0.0,0.0,0.0,1.0,0.0,0.0,0.0,1.0,0.609756112099,0.731707334518,4.20731735229,1.0,0.0,0.0,0.0,1.0,0.0,0.0,0.0,1.0,-9.77791958008,-2.46123930664,-9.7348239502,1.0,0.0,0.0,0.0,1.0,0.0,0.0,0.0,1.0
1463082202980826947,527,1463082202979183461,,2.94628405571,-25.6877250671,-83.0618896484,0.0100020002574,1.0,0.0,0.0,0.0,1.0,0.0,0.0,0.0,1.0,4.32926845551,0.975609779358,-4.02439022064,1.0,0.0,0.0,0.0,1.0,0.0,0.0,0.0,1.0,-5.53060583496,-2.26970317383,-5.2576668457,1.0,0.0,0.0,0.0,1.0,0.0,0.0,0.0,1.0
1463082202991338225,528,1463082202989202397,,2.96910023689,-25.3934135437,-83.0501022339,0.00999599974602,1.0,0.0,0.0,0.0,1.0,0.0,0.0,0.0,1.0,-3.96341490746,2.37804889679,-0.670731723309,1.0,0.0,0.0,0.0,1.0,0.0,0.0,0.0,1.0,0.421379492187,-1.26413847656,-11.9853735107,1.0,0.0,0.0,0.0,1.0,0.0,0.0,0.0,1.0
1463082203002647783,529,1463082202999177791,,3.13146328926,-25.5518798828,-83.0491485596,0.0100010000169,1.0,0.0,0.0,0.0,1.0,0.0,0.0,0.0,1.0,5.60975599289,-5.30487823486,0.548780500889,1.0,0.0,0.0,0.0,1.0,0.0,0.0,0.0,1.0,-6.27759675293,-1.7908628418,-8.2504189209,1.0,0.0,0.0,0.0,1.0,0.0,0.0,0.0,1.0
1463082203011562658,530,1463082203009226153,,3.00344276428,-25.6579036713,-82.8874359131,0.0100039998069,1.0,0.0,0.0,0.0,1.0,0.0,0.0,0.0,1.0,5.91463422775,-0.792682945728,3.96341490746,1.0,0.0,0.0,0.0,1.0,0.0,0.0,0.0,1.0,-6.2009822998,2.91134921875,-8.50899328472,1.0,0.0,0.0,0.0,1.0,0.0,0.0,0.0,1.0
1463082203021517740,531,1463082203019249672,,3.24247169495,-25.6270141602,-82.920249939,0.00999999977648,1.0,0.0,0.0,0.0,1.0,0.0,0.0,0.0,1.0,6.21951246262,-0.0609756112099,-0.0,1.0,0.0,0.0,0.0,1.0,0.0,0.0,0.0,1.0,-3.53863005371,-2.64798703613,-8.13070883789,1.0,0.0,0.0,0.0,1.0,0.0,0.0,0.0,1.0
1463082203031498811,532,1463082203029241316,,2.90069437027,-25.6274833679,-82.7674484253,0.0100029995665,1.0,0.0,0.0,0.0,1.0,0.0,0.0,0.0,1.0,-3.84146332741,-1.2804877758,-2.62195134163,1.0,0.0,0.0,0.0,1.0,0.0,0.0,0.0,1.0,-4.04141240234,5.64552751465,-8.89685336914,1.0,0.0,0.0,0.0,1.0,0.0,0.0,0.0,1.0
1463082203041631756,533,1463082203039263793,,2.64420747757,-25.3481826782,-82.6247024536,0.0099950004369,1.0,0.0,0.0,0.0,1.0,0.0,0.0,0.0,1.0,-1.70731711388,1.76829278469,-0.670731723309,1.0,0.0,0.0,0.0,1.0,0.0,0.0,0.0,1.0,0.478840332031,2.83473476562,-6.84262834473,1.0,0.0,0.0,0.0,1.0,0.0,0.0,0.0,1.0
1463082203055957921,534,1463082203049282364,,2.49009132385,-25.1783332825,-82.5246810913,0.0100100003183,1.0,0.0,0.0,0.0,1.0,0.0,0.0,0.0,1.0,-1.09756100178,-1.8902438879,-0.548780500889,1.0,0.0,0.0,0.0,1.0,0.0,0.0,0.0,1.0,-0.900219824219,2.05422502441,-8.62870336773,1.0,0.0,0.0,0.0,1.0,0.0,0.0,0.0,1.0
1463082203061142753,535,1463082203059234268,,2.36276292801,-25.3796463013,-82.4159545898,0.00999899953604,1.0,0.0,0.0,0.0,1.0,0.0,0.0,0.0,1.0,0.609756112099,1.15853655338,0.670731723309,1.0,0.0,0.0,0.0,1.0,0.0,0.0,0.0,1.0,-9.08838950195,2.7581203125,-8.05409438477,1.0,0.0,0.0,0.0,1.0,0.0,0.0,0.0,1.0
1463082203071405646,536,1463082203069204558,,2.27717590332,-25.5207920074,-82.3016738892,0.00999199971557,1.0,0.0,0.0,0.0,1.0,0.0,0.0,0.0,1.0,2.74390244484,-2.07317066193,2.37804889679,1.0,0.0,0.0,0.0,1.0,0.0,0.0,0.0,1.0,-5.70298835449,1.60890351563,-7.19218178711,1.0,0.0,0.0,0.0,1.0,0.0,0.0,0.0,1.0
1463082203081730310,537,1463082203079162972,,2.00426363945,-25.5189170837,-82.0772171021,0.00999699998647,1.0,0.0,0.0,0.0,1.0,0.0,0.0,0.0,1.0,4.20731735229,-4.14634132385,4.93902444839,1.0,0.0,0.0,0.0,1.0,0.0,0.0,0.0,1.0,-3.13161577148,4.76446159597,-8.26957253418,1.0,0.0,0.0,0.0,1.0,0.0,0.0,0.0,1.0
1463082203092454192,538,1463082203089297793,,2.340092659,-25.4579753876,-82.1518936157,0.0100079998374,1.0,0.0,0.0,0.0,1.0,0.0,0.0,0.0,1.0,1.8902438879,8.59756088257,1.76829278469,1.0,0.0,0.0,0.0,1.0,0.0,0.0,0.0,1.0,-5.1858407959,-6.09563742676,-9.04050546875,1.0,0.0,0.0,0.0,1.0,0.0,0.0,0.0,1.0
1463082203102569065,539,1463082203099206520,,2.23920607567,-25.4331760406,-82.1291809082,0.0100079998374,1.0,0.0,0.0,0.0,1.0,0.0,0.0,0.0,1.0,-7.98780536652,0.18292683363,-3.41463422775,1.0,0.0,0.0,0.0,1.0,0.0,0.0,0.0,1.0,-4.47236870117,0.703895288086,-10.0364933594,1.0,0.0,0.0,0.0,1.0,0.0,0.0,0.0,1.0
1463082203111559773,540,1463082203109235977,,2.17526316643,-25.3708171844,-82.0565109253,0.00998600013554,1.0,0.0,0.0,0.0,1.0,0.0,0.0,0.0,1.0,2.92682933807,0.609756112099,-1.34146344662,1.0,0.0,0.0,0.0,1.0,0.0,0.0,0.0,1.0,-3.14119257812,1.50355864258,-8.46110808247,1.0,0.0,0.0,0.0,1.0,0.0,0.0,0.0,1.0
1463082203121726000,541,1463082203119276943,,2.35232305527,-25.0221557617,-82.1258392334,0.0100050000474,1.0,0.0,0.0,0.0,1.0,0.0,0.0,0.0,1.0,-1.76829278469,6.09756088257,-3.47560977936,1.0,0.0,0.0,0.0,1.0,0.0,0.0,0.0,1.0,1.45567460937,-4.77403840261,-16.2518408691,1.0,0.0,0.0,0.0,1.0,0.0,0.0,0.0,1.0
1463082203132574257,542,1463082203129223535,,2.29164719582,-24.8731136322,-82.0443572998,0.00999999977648,1.0,0.0,0.0,0.0,1.0,0.0,0.0,0.0,1.0,-2.80487799644,1.2804877758,2.56097555161,1.0,0.0,0.0,0.0,1.0,0.0,0.0,0.0,1.0,-2.71981308594,0.469263525391,-13.0531874512,1.0,0.0,0.0,0.0,1.0,0.0,0.0,0.0,1.0
1463082203141480955,543,1463082203139227835,,2.66760206223,-24.8800525665,-82.1461410522,0.00999199971557,1.0,0.0,0.0,0.0,1.0,0.0,0.0,0.0,1.0,5.79268312454,-0.792682945728,-1.15853655338,1.0,0.0,0.0,0.0,1.0,0.0,0.0,0.0,1.0,-5.51145222168,-6.98149204102,-11.152191333,1.0,0.0,0.0,0.0,1.0,0.0,0.0,0.0,1.0
1463082203151531245,544,1463082203149257083,,2.84667873383,-24.6520137787,-82.1445465088,0.00999999977648,1.0,0.0,0.0,0.0,1.0,0.0,0.0,0.0,1.0,3.17073178291,-2.13414645195,2.31707310677,1.0,0.0,0.0,0.0,1.0,0.0,0.0,0.0,1.0,0.100556469727,-1.38863696289,-5.26245524902,1.0,0.0,0.0,0.0,1.0,0.0,0.0,0.0,1.0
1463082203160828775,545,1463082203159178154,,3.04733467102,-24.9882526398,-82.1579055786,0.00999800022691,1.0,0.0,0.0,0.0,1.0,0.0,0.0,0.0,1.0,6.82926845551,5.85365867615,-0.487804889679,1.0,0.0,0.0,0.0,1.0,0.0,0.0,0.0,1.0,-12.9526309814,-2.55221896973,-4.41490786133,1.0,0.0,0.0,0.0,1.0,0.0,0.0,0.0,1.0
1463082203171399012,546,1463082203169188027,,3.13798546791,-24.513376236,-82.1774139404,0.010006999597,1.0,0.0,0.0,0.0,1.0,0.0,0.0,0.0,1.0,5.91463422775,0.975609779358,-5.54878091812,1.0,0.0,0.0,0.0,1.0,0.0,0.0,0.0,1.0,4.84586416016,-0.143652099609,-8.9591026123,1.0,0.0,0.0,0.0,1.0,0.0,0.0,0.0,1.0
1463082203182430341,547,1463082203179169150,,3.14558649063,-24.5028114319,-82.1191558838,0.00999599974602,1.0,0.0,0.0,0.0,1.0,0.0,0.0,0.0,1.0,1.76829278469,0.0609756112099,1.09756100178,1.0,0.0,0.0,0.0,1.0,0.0,0.0,0.0,1.0,-5.34864650879,0.0143652099609,-11.9087590576,1.0,0.0,0.0,0.0,1.0,0.0,0.0,0.0,1.0
1463082203191578080,548,1463082203189261367,,3.12838101387,-24.5747299194,-82.0292739868,0.0100119998679,1.0,0.0,0.0,0.0,1.0,0.0,0.0,0.0,1.0,-0.792682945728,2.37804889679,4.45121955872,1.0,0.0,0.0,0.0,1.0,0.0,0.0,0.0,1.0,-10.5344873047,-0.387860668945,-15.188815332,1.0,0.0,0.0,0.0,1.0,0.0,0.0,0.0,1.0
1463082203202586753,549,1463082203199193115,,2.72818994522,-24.8059806824,-81.7893829346,0.00998600013554,1.0,0.0,0.0,0.0,1.0,0.0,0.0,0.0,1.0,3.04878044128,1.15853655338,1.46341466904,1.0,0.0,0.0,0.0,1.0,0.0,0.0,0.0,1.0,-5.66468112793,6.39730683594,-3.10288535156,1.0,0.0,0.0,0.0,1.0,0.0,0.0,0.0,1.0
1463082203211439181,550,1463082203209215436,,2.6756567955,-24.896282196,-81.7404098511,0.0100020002574,1.0,0.0,0.0,0.0,1.0,0.0,0.0,0.0,1.0,-0.609756112099,-1.58536589146,-1.58536589146,1.0,0.0,0.0,0.0,1.0,0.0,0.0,0.0,1.0,-4.30477487722,0.708683691406,-6.58884296875,1.0,0.0,0.0,0.0,1.0,0.0,0.0,0.0,1.0
1463082203221570512,551,1463082203219225048,,2.80620098114,-24.993221283,-81.7324447632,0.0100020002574,1.0,0.0,0.0,0.0,1.0,0.0,0.0,0.0,1.0,-2.13414645195,-1.2195122242,3.17073178291,1.0,0.0,0.0,0.0,1.0,0.0,0.0,0.0,1.0,-10.7643306641,-5.09964953613,-15.4952731445,1.0,0.0,0.0,0.0,1.0,0.0,0.0,0.0,1.0
1463082203232496632,552,1463082203229248827,,2.5097284317,-24.5328350067,-81.5505981445,0.0100010000169,1.0,0.0,0.0,0.0,1.0,0.0,0.0,0.0,1.0,6.28048801422,10.0609760284,-2.01219511032,1.0,0.0,0.0,0.0,1.0,0.0,0.0,0.0,1.0,0.952892260742,1.5562310791,-1.87226569824,1.0,0.0,0.0,0.0,1.0,0.0,0.0,0.0,1.0
1463082203241418227,553,1463082203239198857,,2.47820830345,-24.5716381073,-81.5081176758,0.00999199971557,1.0,0.0,0.0,0.0,1.0,0.0,0.0,0.0,1.0,-4.14634132385,-1.95121955872,0.365853667259,1.0,0.0,0.0,0.0,1.0,0.0,0.0,0.0,1.0,-5.55933625488,-0.167594116211,-10.778695874,1.0,0.0,0.0,0.0,1.0,0.0,0.0,0.0,1.0
1463082203252609868,554,1463082203249229563,,2.63915538788,-24.7011642456,-81.5027923584,0.0100039998069,1.0,0.0,0.0,0.0,1.0,0.0,0.0,0.0,1.0,2.13414645195,-0.365853667259,2.19512200356,1.0,0.0,0.0,0.0,1.0,0.0,0.0,0.0,1.0,-8.18816967773,-3.0885201416,-10.2040874756,1.0,0.0,0.0,0.0,1.0,0.0,0.0,0.0,1.0
1463082203261496514,555,1463082203259167196,,2.50976657867,-24.7027206421,-81.3379516602,0.0100020002574,1.0,0.0,0.0,0.0,1.0,0.0,0.0,0.0,1.0,5.79268312454,-0.914634168148,4.63414621353,1.0,0.0,0.0,0.0,1.0,0.0,0.0,0.0,1.0,-3.90254870605,2.65756384277,-8.68616362305,1.0,0.0,0.0,0.0,1.0,0.0,0.0,0.0,1.0
1463082203271570137,556,1463082203269228684,,2.67746520042,-24.974275589,-81.37059021,0.00999599974602,1.0,0.0,0.0,0.0,1.0,0.0,0.0,0.0,1.0,3.35365867615,-0.731707334518,-2.19512200356,1.0,0.0,0.0,0.0,1.0,0.0,0.0,0.0,1.0,-8.8872765625,-2.01112939453,-6.39730683594,1.0,0.0,0.0,0.0,1.0,0.0,0.0,0.0,1.0
1463082203282547768,557,1463082203279202359,,2.31708049774,-24.8258457184,-81.2337875366,0.0100029995665,1.0,0.0,0.0,0.0,1.0,0.0,0.0,0.0,1.0,-1.52439022064,0.670731723309,-5.97560977936,1.0,0.0,0.0,0.0,1.0,0.0,0.0,0.0,1.0,-1.57059628906,9.51455798198,-12.4785790527,1.0,0.0,0.0,0.0,1.0,0.0,0.0,0.0,1.0
1463082203291678268,558,1463082203289222388,,2.38961577415,-24.624162674,-81.2202377319,0.0100010000169,1.0,0.0,0.0,0.0,1.0,0.0,0.0,0.0,1.0,-2.25609779358,4.51219558716,0.914634168148,1.0,0.0,0.0,0.0,1.0,0.0,0.0,0.0,1.0,-1.90099611816,-1.82917006836,-11.3341506592,1.0,0.0,0.0,0.0,1.0,0.0,0.0,0.0,1.0
1463082203301391527,559,1463082203299174657,,2.43525505066,-24.6652812958,-81.2203979492,0.00999599974602,1.0,0.0,0.0,0.0,1.0,0.0,0.0,0.0,1.0,-1.09756100178,-2.74390244484,-2.13414645195,1.0,0.0,0.0,0.0,1.0,0.0,0.0,0.0,1.0,-5.76523759766,-0.871489404297,-11.3245738525,1.0,0.0,0.0,0.0,1.0,0.0,0.0,0.0,1.0
1463082203311332077,560,1463082203309203801,,2.10456991196,-24.601316452,-81.0166549683,0.0100090000778,1.0,0.0,0.0,0.0,1.0,0.0,0.0,0.0,1.0,10.6097564697,-2.13414645195,-2.56097555161,1.0,0.0,0.0,0.0,1.0,0.0,0.0,0.0,1.0,-0.890643017578,4.6208092041,-4.16591059641,1.0,0.0,0.0,0.0,1.0,0.0,0.0,0.0,1.0
1463082203321551481,561,1463082203319186486,,2.19937062263,-24.8163280487,-81.0306854248,0.00999599974602,1.0,0.0,0.0,0.0,1.0,0.0,0.0,0.0,1.0,2.25609779358,-2.07317066193,-2.98780488968,1.0,0.0,0.0,0.0,1.0,0.0,0.0,0.0,1.0,-8.94473740234,-0.948103857422,-8.69574042969,1.0,0.0,0.0,0.0,1.0,0.0,0.0,0.0,1.0
1463082203332557133,562,1463082203329225630,,2.39980912209,-24.6365699768,-81.0944519043,0.0100029995665,1.0,0.0,0.0,0.0,1.0,0.0,0.0,0.0,1.0,-1.58536589146,2.68292689323,-1.8902438879,1.0,0.0,0.0,0.0,1.0,0.0,0.0,0.0,1.0,-1.97761057129,-4.13718046875,-11.8034141846,1.0,0.0,0.0,0.0,1.0,0.0,0.0,0.0,1.0
1463082203341485810,563,1463082203339209461,,2.47063589096,-24.5968761444,-81.0540313721,0.00999100040644,1.0,0.0,0.0,0.0,1.0,0.0,0.0,0.0,1.0,1.40243899822,-3.17073178291,2.37804889679,1.0,0.0,0.0,0.0,1.0,0.0,0.0,0.0,1.0,-5.02782348633,-1.69509477539,-15.3276790283,1.0,0.0,0.0,0.0,1.0,0.0,0.0,0.0,1.0
1463082203352404744,564,1463082203349228449,,2.31007027626,-25.0925941467,-80.9001693726,0.0100090000778,1.0,0.0,0.0,0.0,1.0,0.0,0.0,0.0,1.0,2.74390244484,-3.29268312454,3.35365867615,1.0,0.0,0.0,0.0,1.0,0.0,0.0,0.0,1.0,-7.39329472656,2.47081611328,-0.699106884766,1.0,0.0,0.0,0.0,1.0,0.0,0.0,0.0,1.0
1463082203361590973,565,1463082203359210561,,2.55232572556,-25.0564517975,-80.8946914673,0.00999199971557,1.0,0.0,0.0,0.0,1.0,0.0,0.0,0.0,1.0,7.31707334518,-2.80487799644,3.84146332741,1.0,0.0,0.0,0.0,1.0,0.0,0.0,0.0,1.0,-4.84107575684,-4.49631071777,-13.8528508057,1.0,0.0,0.0,0.0,1.0,0.0,0.0,0.0,1.0
1463082203371679543,566,1463082203369220799,,2.79013133049,-24.9675731659,-81.0124969482,0.0100020002574,1.0,0.0,0.0,0.0,1.0,0.0,0.0,0.0,1.0,-2.74390244484,10.7317075729,-5.85365867615,1.0,0.0,0.0,0.0,1.0,0.0,0.0,0.0,1.0,-6.90008918457,-5.88015927734,-12.631807959,1.0,0.0,0.0,0.0,1.0,0.0,0.0,0.0,1.0
1463082203382600560,567,1463082203379222964,,2.67963337898,-24.6891613007,-80.9996261597,0.0100090000778,1.0,0.0,0.0,0.0,1.0,0.0,0.0,0.0,1.0,-3.10975623131,-4.51219558716,-6.89024400711,1.0,0.0,0.0,0.0,1.0,0.0,0.0,0.0,1.0,2.23139594727,2.44687409668,-13.5559697998,1.0,0.0,0.0,0.0,1.0,0.0,0.0,0.0,1.0
1463082203391567779,568,1463082203389232524,,2.57827210426,-24.7488536835,-80.8785476685,0.0100020002574,1.0,0.0,0.0,0.0,1.0,0.0,0.0,0.0,1.0,1.58536589146,-2.01219511032,3.10975623131,1.0,0.0,0.0,0.0,1.0,0.0,0.0,0.0,1.0,-5.87537087402,2.05422502441,-10.5057568848,1.0,0.0,0.0,0.0,1.0,0.0,0.0,0.0,1.0
1463082203401458329,569,1463082203399187866,,2.91625928879,-25.0152263641,-80.8964233398,0.00998899992555,1.0,0.0,0.0,0.0,1.0,0.0,0.0,0.0,1.0,11.4024391174,-1.70731711388,3.71951246262,1.0,0.0,0.0,0.0,1.0,0.0,0.0,0.0,1.0,-9.5193463853,-4.63996281738,-6.84262834473,1.0,0.0,0.0,0.0,1.0,0.0,0.0,0.0,1.0
1463082203411673462,570,1463082203409255135,,3.02045059204,-25.2666721344,-80.937828064,0.0100149996579,1.0,0.0,0.0,0.0,1.0,0.0,0.0,0.0,1.0,0.853658556938,-4.39024400711,-4.75609779358,1.0,0.0,0.0,0.0,1.0,0.0,0.0,0.0,1.0,-13.378798877,-1.93930334473,-12.1194488037,1.0,0.0,0.0,0.0,1.0,0.0,0.0,0.0,1.0
1463082203421775106,571,1463082203419182039,,3.16873002052,-25.0568027496,-80.9779205322,0.00998700037599,1.0,0.0,0.0,0.0,1.0,0.0,0.0,0.0,1.0,-1.52439022064,1.03658533096,-1.58536589146,1.0,0.0,0.0,0.0,1.0,0.0,0.0,0.0,1.0,-1.41257897949,-4.24252563406,-15.7538469238,1.0,0.0,0.0,0.0,1.0,0.0,0.0,0.0,1.0
1463082203431682948,572,1463082203429409516,,3.1368367672,-25.1326007843,-80.8902816772,0.0100239999592,1.0,0.0,0.0,0.0,1.0,0.0,0.0,0.0,1.0,-1.52439022064,0.0,3.96341490746,1.0,0.0,0.0,0.0,1.0,0.0,0.0,0.0,1.0,-8.67658681641,-0.114921679688,-13.2207815674,1.0,0.0,0.0,0.0,1.0,0.0,0.0,0.0,1.0
1463082203441493134,573,1463082203439200587,,3.2987818718,-25.1609115601,-80.8461608887,0.00997800007463,1.0,0.0,0.0,0.0,1.0,0.0,0.0,0.0,1.0,7.62195110321,-0.304878056049,4.08536577225,1.0,0.0,0.0,0.0,1.0,0.0,0.0,0.0,1.0,-6.88093557129,-2.54264216309,-12.6749035889,1.0,0.0,0.0,0.0,1.0,0.0,0.0,0.0,1.0
1463082203451490871,574,1463082203449224002,,3.52509593964,-25.1405010223,-80.9002227783,0.00999999977648,1.0,0.0,0.0,0.0,1.0,0.0,0.0,0.0,1.0,3.41463422775,1.15853655338,-1.8292683363,1.0,0.0,0.0,0.0,1.0,0.0,0.0,0.0,1.0,-2.67671745605,-1.96324536133,-5.59764348145,1.0,0.0,0.0,0.0,1.0,0.0,0.0,0.0,1.0
1463082203461562775,575,1463082203459210229,,3.34223771095,-25.3567142487,-80.7466888428,0.0100010000169,1.0,0.0,0.0,0.0,1.0,0.0,0.0,0.0,1.0,1.03658533096,-2.62195134163,2.98780488968,1.0,0.0,0.0,0.0,1.0,0.0,0.0,0.0,1.0,-3.67749375,1.54186586914,-3.58172568359,1.0,0.0,0.0,0.0,1.0,0.0,0.0,0.0,1.0
1463082203471434367,576,1463082203469171612,,3.22127127647,-24.8860931396,-80.7076187134,0.00999699998647,1.0,0.0,0.0,0.0,1.0,0.0,0.0,0.0,1.0,-5.54878091812,8.47560977936,-4.08536577225,1.0,0.0,0.0,0.0,1.0,0.0,0.0,0.0,1.0,3.21780703125,1.32159931641,-10.5584293213,1.0,0.0,0.0,0.0,1.0,0.0,0.0,0.0,1.0
1463082203481392626,577,1463082203479183777,,3.10573244095,-25.0789299011,-80.6161651611,0.00999999977648,1.0,0.0,0.0,0.0,1.0,0.0,0.0,0.0,1.0,1.2195122242,-4.02439022064,-0.609756112099,1.0,0.0,0.0,0.0,1.0,0.0,0.0,0.0,1.0,-7.7332713623,2.53306535645,-8.76277807617,1.0,0.0,0.0,0.0,1.0,0.0,0.0,0.0,1.0
1463082203491410155,578,1463082203489229587,,3.34087944031,-25.0989608765,-80.6344070435,0.0100029995665,1.0,0.0,0.0,0.0,1.0,0.0,0.0,0.0,1.0,4.2682929039,-0.12195122242,2.19512200356,1.0,0.0,0.0,0.0,1.0,0.0,0.0,0.0,1.0,-4.28083286062,-3.1364041748,-7.97747993164,1.0,0.0,0.0,0.0,1.0,0.0,0.0,0.0,1.0
1463082203501408726,579,1463082203499168991,,3.01434755325,-25.4978179932,-80.3894271851,0.00999699998647,1.0,0.0,0.0,0.0,1.0,0.0,0.0,0.0,1.0,4.69512224197,4.75609779358,4.02439022064,1.0,0.0,0.0,0.0,1.0,0.0,0.0,0.0,1.0,-6.97191523437,6.1770402832,3.29442148437,1.0,0.0,0.0,0.0,1.0,0.0,0.0,0.0,1.0
1463082203511623286,580,1463082203509235375,,3.47647643089,-25.200712204,-80.5324478149,0.0100020002574,1.0,0.0,0.0,0.0,1.0,0.0,0.0,0.0,1.0,5.0,4.39024400711,-1.2195122242,1.0,0.0,0.0,0.0,1.0,0.0,0.0,0.0,1.0,1.69509477539,-10.5727945312,-12.27267771,1.0,0.0,0.0,0.0,1.0,0.0,0.0,0.0,1.0
1463082203521609565,581,1463082203519170456,,3.64258146286,-25.2076015472,-80.5935516357,0.00999699998647,1.0,0.0,0.0,0.0,1.0,0.0,0.0,0.0,1.0,5.30487823486,-1.2195122242,-6.21951246262,1.0,0.0,0.0,0.0,1.0,0.0,0.0,0.0,1.0,-6.25365473633,-2.09732050817,-12.8185556885,1.0,0.0,0.0,0.0,1.0,0.0,0.0,0.0,1.0
1463082203531462772,582,1463082203529206787,,3.77069020271,-25.1143722534,-80.5404434204,0.00999999977648,1.0,0.0,0.0,0.0,1.0,0.0,0.0,0.0,1.0,6.95121955872,5.42682933807,3.41463422775,1.0,0.0,0.0,0.0,1.0,0.0,0.0,0.0,1.0,-3.49553442383,-1.31202250977,-8.69095202637,1.0,0.0,0.0,0.0,1.0,0.0,0.0,0.0,1.0
1463082203541476759,583,1463082203539200254,,3.73978161812,-25.400604248,-80.4424972534,0.00999999977648,1.0,0.0,0.0,0.0,1.0,0.0,0.0,0.0,1.0,3.04878044128,2.13414645195,2.80487799644,1.0,0.0,0.0,0.0,1.0,0.0,0.0,0.0,1.0,-6.43082565918,0.632069238281,-3.92649072266,1.0,0.0,0.0,0.0,1.0,0.0,0.0,0.0,1.0
1463082203551548559,584,1463082203549253356,,3.08865571022,-25.3839626312,-80.173034668,0.00999999977648,1.0,0.0,0.0,0.0,1.0,0.0,0.0,0.0,1.0,-7.92682981491,1.70731711388,-2.62195134163,1.0,0.0,0.0,0.0,1.0,0.0,0.0,0.0,1.0,-0.981622680664,8.13070883789,-2.26970317383,1.0,0.0,0.0,0.0,1.0,0.0,0.0,0.0,1.0
1463082203561463328,585,1463082203559222448,,3.28088569641,-25.1797561646,-80.2194213867,0.0100010000169,1.0,0.0,0.0,0.0,1.0,0.0,0.0,0.0,1.0,-1.58536589146,5.30487823486,-0.365853667259,1.0,0.0,0.0,0.0,1.0,0.0,0.0,0.0,1.0,-3.53384165039,-7.17302817383,-19.5510507568,1.0,0.0,0.0,0.0,1.0,0.0,0.0,0.0,1.0
1463082203571635284,586,1463082203569210446,,3.50034689903,-25.0478801727,-80.1837005615,0.00999699998647,1.0,0.0,0.0,0.0,1.0,0.0,0.0,0.0,1.0,7.80487823486,2.80487799644,5.60975599289,1.0,0.0,0.0,0.0,1.0,0.0,0.0,0.0,1.0,-3.96958635254,-4.49631071777,-14.829685083,1.0,0.0,0.0,0.0,1.0,0.0,0.0,0.0,1.0
1463082203581530782,587,1463082203579247246,,3.96118378639,-24.809879303,-80.306098938,0.0100109996274,1.0,0.0,0.0,0.0,1.0,0.0,0.0,0.0,1.0,10.7926826477,2.37804889679,-1.95121955872,1.0,0.0,0.0,0.0,1.0,0.0,0.0,0.0,1.0,-0.0287304199219,-7.29752666016,-10.7834842773,1.0,0.0,0.0,0.0,1.0,0.0,0.0,0.0,1.0
1463082203591576801,588,1463082203589241181,,4.12410497665,-25.0395030975,-80.3440322876,0.00999599974602,1.0,0.0,0.0,0.0,1.0,0.0,0.0,0.0,1.0,-2.98780488968,-1.09756100178,-0.0,1.0,0.0,0.0,0.0,1.0,0.0,0.0,0.0,1.0,-8.59039614116,-3.62482131348,-7.16823977051,1.0,0.0,0.0,0.0,1.0,0.0,0.0,0.0,1.0
1463082203601401466,589,1463082203599187565,,4.21277999878,-24.7634983063,-80.3235549927,0.00999400019646,1.0,0.0,0.0,0.0,1.0,0.0,0.0,0.0,1.0,0.426829278469,8.17073154449,0.792682945728,1.0,0.0,0.0,0.0,1.0,0.0,0.0,0.0,1.0,-1.67594116211,-3.04542451172,-17.1376954834,1.0,0.0,0.0,0.0,1.0,0.0,0.0,0.0,1.0
1463082203611593266,590,1463082203609274000,,4.3054151535,-24.8976364136,-80.3083496094,0.0100060002878,1.0,0.0,0.0,0.0,1.0,0.0,0.0,0.0,1.0,1.58536589146,-0.975609779358,0.426829278469,1.0,0.0,0.0,0.0,1.0,0.0,0.0,0.0,1.0,-7.9439611084,-1.81001645508,-9.98860932617,1.0,0.0,0.0,0.0,1.0,0.0,0.0,0.0,1.0
1463082203621470431,591,1463082203619208040,,4.22248601913,-24.8393573761,-80.1940612793,0.0100060002878,1.0,0.0,0.0,0.0,1.0,0.0,0.0,0.0,1.0,3.71951246262,1.15853655338,2.01219511032,1.0,0.0,0.0,0.0,1.0,0.0,0.0,0.0,1.0,-2.25533796387,0.981622680664,-6.0812722168,1.0,0.0,0.0,0.0,1.0,0.0,0.0,0.0,1.0
1463082203631495929,592,1463082203629250673,,4.00136375427,-25.1736831665,-80.0456008911,0.00999100040644,1.0,0.0,0.0,0.0,1.0,0.0,0.0,0.0,1.0,1.09756100178,5.06097555161,0.12195122242,1.0,0.0,0.0,0.0,1.0,0.0,0.0,0.0,1.0,-7.46033237305,3.31357509766,-2.37504819301,1.0,0.0,0.0,0.0,1.0,0.0,0.0,0.0,1.0
1463082203641354812,593,1463082203639203203,,3.99722480774,-24.902349472,-80.1067352295,0.0100109996274,1.0,0.0,0.0,0.0,1.0,0.0,0.0,0.0,1.0,-3.10975623131,3.84146332741,-10.6097564697,1.0,0.0,0.0,0.0,1.0,0.0,0.0,0.0,1.0,-0.550666381836,0.0861912597656,-12.9957266113,1.0,0.0,0.0,0.0,1.0,0.0,0.0,0.0,1.0
1463082203651460675,594,1463082203649171305,,4.08797121048,-24.8714122772,-80.1290054321,0.00998700037599,1.0,0.0,0.0,0.0,1.0,0.0,0.0,0.0,1.0,1.76829278469,-1.95121955872,-3.7804877758,1.0,0.0,0.0,0.0,1.0,0.0,0.0,0.0,1.0,-4.00310517578,-1.2497732666,-10.4770264648,1.0,0.0,0.0,0.0,1.0,0.0,0.0,0.0,1.0
1463082203661459350,595,1463082203659223365,,4.05111694336,-24.8522014618,-80.0284576416,0.0100020002574,1.0,0.0,0.0,0.0,1.0,0.0,0.0,0.0,1.0,5.85365867615,1.34146344662,1.64634156227,1.0,0.0,0.0,0.0,1.0,0.0,0.0,0.0,1.0,-4.67826975168,1.33117612305,-10.2040874756,1.0,0.0,0.0,0.0,1.0,0.0,0.0,0.0,1.0
1463082203671499848,596,1463082203669209228,,3.92947983742,-25.2782802582,-79.8792419434,0.00999599974602,1.0,0.0,0.0,0.0,1.0,0.0,0.0,0.0,1.0,2.86585378647,1.15853655338,4.32926845551,1.0,0.0,0.0,0.0,1.0,0.0,0.0,0.0,1.0,-7.27358464355,1.80043964844,-1.61369191895,1.0,0.0,0.0,0.0,1.0,0.0,0.0,0.0,1.0
1463082203681343835,597,1463082203679187747,,3.72790336609,-25.2293739319,-79.7974853516,0.00999699998647,1.0,0.0,0.0,0.0,1.0,0.0,0.0,0.0,1.0,-0.426829278469,1.34146344662,-5.36585378647,1.0,0.0,0.0,0.0,1.0,0.0,0.0,0.0,1.0,-2.4277204834,2.32237546422,-6.01423457031,1.0,0.0,0.0,0.0,1.0,0.0,0.0,0.0,1.0
1463082203692594174,598,1463082203689427515,,3.5755712986,-25.5655517578,-79.6391983032,0.010216999799,1.0,0.0,0.0,0.0,1.0,0.0,0.0,0.0,1.0,3.96341490746,-2.5,3.29268312454,1.0,0.0,0.0,0.0,1.0,0.0,0.0,0.0,1.0,-10.8696755371,3.78762702637,-6.4356140625,1.0,0.0,0.0,0.0,1.0,0.0,0.0,0.0,1.0
1463082203701602331,599,1463082203699165305,,3.63639783859,-25.8132305145,-79.5693359375,0.00978800002486,1.0,0.0,0.0,0.0,1.0,0.0,0.0,0.0,1.0,8.10975551605,0.18292683363,2.01219511032,1.0,0.0,0.0,0.0,1.0,0.0,0.0,0.0,1.0,-5.20020600586,0.119710083008,-3.92649072266,1.0,0.0,0.0,0.0,1.0,0.0,0.0,0.0,1.0
1463082203711417308,600,1463082203709229553,,3.69804620743,-25.9007167816,-79.62940979,0.0100039998069,1.0,0.0,0.0,0.0,1.0,0.0,0.0,0.0,1.0,-6.64634132385,0.365853667259,-5.42682933807,1.0,0.0,0.0,0.0,1.0,0.0,0.0,0.0,1.0,-7.51300480957,-2.18830031738,-10.1178962158,1.0,0.0,0.0,0.0,1.0,0.0,0.0,0.0,1.0
1463082203721329213,601,1463082203719183541,,3.63138151169,-25.8744125366,-79.62890625,0.00999699998647,1.0,0.0,0.0,0.0,1.0,0.0,0.0,0.0,1.0,-4.08536577225,-1.34146344662,-6.09756088257,1.0,0.0,0.0,0.0,1.0,0.0,0.0,0.0,1.0,-5.34864650879,0.972045874023,-12.6796919922,1.0,0.0,0.0,0.0,1.0,0.0,0.0,0.0,1.0
1463082203731443565,602,1463082203729235445,,3.45883011818,-25.8022174835,-79.5212478638,0.00999699998647,1.0,0.0,0.0,0.0,1.0,0.0,0.0,0.0,1.0,-0.731707334518,0.487804889679,-1.09756100178,1.0,0.0,0.0,0.0,1.0,0.0,0.0,0.0,1.0,-4.41490786133,3.52426484375,-12.6653267822,1.0,0.0,0.0,0.0,1.0,0.0,0.0,0.0,1.0
1463082203741062761,603,1463082203739191568,,3.2413752079,-26.0100898743,-79.3479232788,0.0100119998679,1.0,0.0,0.0,0.0,1.0,0.0,0.0,0.0,1.0,3.71951246262,-4.93902444839,2.07317066193,1.0,0.0,0.0,0.0,1.0,0.0,0.0,0.0,1.0,-4.38138903809,2.70065947266,-4.61602080078,1.0,0.0,0.0,0.0,1.0,0.0,0.0,0.0,1.0
1463082203751355759,604,1463082203749202691,,3.06655144691,-26.0334701538,-79.2546386719,0.0100020002574,1.0,0.0,0.0,0.0,1.0,0.0,0.0,0.0,1.0,-1.46341466904,1.09756100178,-2.56097555161,1.0,0.0,0.0,0.0,1.0,0.0,0.0,0.0,1.0,-2.95444484863,1.63284553223,-5.08528432617,1.0,0.0,0.0,0.0,1.0,0.0,0.0,0.0,1.0
1463082203760917351,605,1463082203759207876,,2.63647127151,-25.9291114807,-79.0031509399,0.00999800022691,1.0,0.0,0.0,0.0,1.0,0.0,0.0,0.0,1.0,-1.09756100178,-1.64634156227,2.5,1.0,0.0,0.0,0.0,1.0,0.0,0.0,0.0,1.0,-1.97761057129,10.2567599121,-11.8752402344,1.0,0.0,0.0,0.0,1.0,0.0,0.0,0.0,1.0
1463082203771171078,606,1463082203769172228,,2.49412345886,-25.9754924774,-78.8243789673,0.009990000166,1.0,0.0,0.0,0.0,1.0,0.0,0.0,0.0,1.0,0.609756112099,4.20731735229,7.43902492523,1.0,0.0,0.0,0.0,1.0,0.0,0.0,0.0,1.0,-6.90487758789,2.19787712402,-9.74440075684,1.0,0.0,0.0,0.0,1.0,0.0,0.0,0.0,1.0
1463082203780854441,607,1463082203779180591,,2.90495371819,-25.8661804199,-78.9618835449,0.00999999977648,1.0,0.0,0.0,0.0,1.0,0.0,0.0,0.0,1.0,7.62195110321,0.548780500889,-3.84146332741,1.0,0.0,0.0,0.0,1.0,0.0,0.0,0.0,1.0,-2.84431157227,-6.07648381348,-10.2040874756,1.0,0.0,0.0,0.0,1.0,0.0,0.0,0.0,1.0
1463082203791502750,608,1463082203789516036,,2.93723106384,-25.9685688019,-78.9566497803,0.0100079998374,1.0,0.0,0.0,0.0,1.0,0.0,0.0,0.0,1.0,-3.23170733452,-0.365853667259,-1.2195122242,1.0,0.0,0.0,0.0,1.0,0.0,0.0,0.0,1.0,-8.72925925293,-1.34554133301,-11.6214548584,1.0,0.0,0.0,0.0,1.0,0.0,0.0,0.0,1.0
1463082203801287832,609,1463082203799171795,,2.50224971771,-25.6530380249,-78.7506332397,0.00999299995601,1.0,0.0,0.0,0.0,1.0,0.0,0.0,0.0,1.0,-0.243902444839,4.2682929039,-3.35365867615,1.0,0.0,0.0,0.0,1.0,0.0,0.0,0.0,1.0,2.13083962367,7.10120212402,-6.47870969238,1.0,0.0,0.0,0.0,1.0,0.0,0.0,0.0,1.0
1463082203811842235,610,1463082203809264428,,2.53143119812,-25.7948188782,-78.6985931396,0.0100130001083,1.0,0.0,0.0,0.0,1.0,0.0,0.0,0.0,1.0,0.670731723309,-1.34146344662,1.95121955872,1.0,0.0,0.0,0.0,1.0,0.0,0.0,0.0,1.0,-7.8960770752,-0.526724328702,-9.56723041851,1.0,0.0,0.0,0.0,1.0,0.0,0.0,0.0,1.0
1463082203821398151,611,1463082203819234666,,2.73285675049,-25.7099266052,-78.7520904541,0.00999699998647,1.0,0.0,0.0,0.0,1.0,0.0,0.0,0.0,1.0,6.58536624908,-2.80487799644,-4.14634132385,1.0,0.0,0.0,0.0,1.0,0.0,0.0,0.0,1.0,-2.4516625,-1.73340200195,-8.94952580566,1.0,0.0,0.0,0.0,1.0,0.0,0.0,0.0,1.0
1463082203831691617,612,1463082203829242299,,2.64928889275,-26.1973152161,-78.6476364136,0.009990000166,1.0,0.0,0.0,0.0,1.0,0.0,0.0,0.0,1.0,-0.12195122242,-3.47560977936,2.68292689323,1.0,0.0,0.0,0.0,1.0,0.0,0.0,0.0,1.0,-13.4649901367,1.99197578125,-2.28406838379,1.0,0.0,0.0,0.0,1.0,0.0,0.0,0.0,1.0
1463082203844486379,613,1463082203839761598,,2.64564418793,-25.768447876,-78.5983276367,0.0100130001083,1.0,0.0,0.0,0.0,1.0,0.0,0.0,0.0,1.0,-0.304878056049,5.67073154449,0.304878056049,1.0,0.0,0.0,0.0,1.0,0.0,0.0,0.0,1.0,2.51391174316,-0.076614453125,-10.2280294922,1.0,0.0,0.0,0.0,1.0,0.0,0.0,0.0,1.0
1463082203851347353,614,1463082203849170900,,2.46129250526,-26.0367546082,-78.4352416992,0.00998600013554,1.0,0.0,0.0,0.0,1.0,0.0,0.0,0.0,1.0,2.19512200356,-4.51219558716,3.23170733452,1.0,0.0,0.0,0.0,1.0,0.0,0.0,0.0,1.0,-6.77080229492,2.93050283203,-5.54497104492,1.0,0.0,0.0,0.0,1.0,0.0,0.0,0.0,1.0
1463082203861417643,615,1463082203859182127,,2.58134174347,-26.1395587921,-78.3994140625,0.0100060002878,1.0,0.0,0.0,0.0,1.0,0.0,0.0,0.0,1.0,4.45121955872,-0.243902444839,2.74390244484,1.0,0.0,0.0,0.0,1.0,0.0,0.0,0.0,1.0,-5.67425793457,-1.26892687988,-7.47948598633,1.0,0.0,0.0,0.0,1.0,0.0,0.0,0.0,1.0
1463082203871588921,616,1463082203869239656,,2.94974040985,-26.3311157227,-78.5212478638,0.0099950004369,1.0,0.0,0.0,0.0,1.0,0.0,0.0,0.0,1.0,0.914634168148,0.0,-0.731707334518,1.0,0.0,0.0,0.0,1.0,0.0,0.0,0.0,1.0,-9.39484672993,-7.77157858887,-7.3789295166,1.0,0.0,0.0,0.0,1.0,0.0,0.0,0.0,1.0
1463082203881254576,617,1463082203879112550,,2.94359707832,-25.8102874756,-78.5402297974,0.00999999977648,1.0,0.0,0.0,0.0,1.0,0.0,0.0,0.0,1.0,-1.2195122242,7.07317113876,-7.07317113876,1.0,0.0,0.0,0.0,1.0,0.0,0.0,0.0,1.0,5.81312163086,0.512359155273,-12.6509615723,1.0,0.0,0.0,0.0,1.0,0.0,0.0,0.0,1.0
1463082203892543405,618,1463082203889411537,,2.81751155853,-26.0470542908,-78.4393005371,0.0100060002878,1.0,0.0,0.0,0.0,1.0,0.0,0.0,0.0,1.0,1.40243899822,-8.10975551605,-0.243902444839,1.0,0.0,0.0,0.0,1.0,0.0,0.0,0.0,1.0,-7.60398447266,2.66714064941,-8.2264769043,1.0,0.0,0.0,0.0,1.0,0.0,0.0,0.0,1.0
1463082203901403072,619,1463082203899134848,,3.14215683937,-26.0180454254,-78.4220046997,0.00999899953604,1.0,0.0,0.0,0.0,1.0,0.0,0.0,0.0,1.0,11.6463422775,-0.426829278469,7.25609779358,1.0,0.0,0.0,0.0,1.0,0.0,0.0,0.0,1.0,-4.97036264648,-5.26724365234,-11.511321582,1.0,0.0,0.0,0.0,1.0,0.0,0.0,0.0,1.0
1463082203911319872,620,1463082203909170346,,3.17071914673,-26.1221370697,-78.4103927612,0.0100020002574,1.0,0.0,0.0,0.0,1.0,0.0,0.0,0.0,1.0,0.426829278469,-1.2195122242,-2.43902444839,1.0,0.0,0.0,0.0,1.0,0.0,0.0,0.0,1.0,-8.47068488911,-0.320823022461,-11.5352635986,1.0,0.0,0.0,0.0,1.0,0.0,0.0,0.0,1.0
1463082203921298651,621,1463082203919160011,,3.11506271362,-25.9604434967,-78.3519592285,0.00999199971557,1.0,0.0,0.0,0.0,1.0,0.0,0.0,0.0,1.0,2.80487799644,-4.63414621353,-2.31707310677,1.0,0.0,0.0,0.0,1.0,0.0,0.0,0.0,1.0,-0.598550451572,0.948103857422,-6.72291826172,1.0,0.0,0.0,0.0,1.0,0.0,0.0,0.0,1.0
1463082203931505764,622,1463082203929203477,,3.24805736542,-26.1543769836,-78.3166656494,0.0100020002574,1.0,0.0,0.0,0.0,1.0,0.0,0.0,0.0,1.0,3.10975623131,-3.59756112099,4.14634132385,1.0,0.0,0.0,0.0,1.0,0.0,0.0,0.0,1.0,-11.5639940186,-3.26569106445,-12.27267771,1.0,0.0,0.0,0.0,1.0,0.0,0.0,0.0,1.0
1463082203941575063,623,1463082203939222048,,3.13404345512,-26.6722316742,-78.1098251343,0.0100090000778,1.0,0.0,0.0,0.0,1.0,0.0,0.0,0.0,1.0,8.47560977936,1.8902438879,7.92682981491,1.0,0.0,0.0,0.0,1.0,0.0,0.0,0.0,1.0,-5.4922986084,2.20745393066,3.53384165039,1.0,0.0,0.0,0.0,1.0,0.0,0.0,0.0,1.0
1463082203951046448,624,1463082203949351921,,2.86989068985,-26.7653636932,-77.9534988403,0.00999199971557,1.0,0.0,0.0,0.0,1.0,0.0,0.0,0.0,1.0,-3.84146332741,1.09756100178,0.914634168148,1.0,0.0,0.0,0.0,1.0,0.0,0.0,0.0,1.0,-4.49631071777,2.70065947266,-5.70298835449,1.0,0.0,0.0,0.0,1.0,0.0,0.0,0.0,1.0
1463082203960789863,625,1463082203959161169,,2.672716856,-26.5117340088,-77.862449646,0.00999999977648,1.0,0.0,0.0,0.0,1.0,0.0,0.0,0.0,1.0,-4.08536577225,2.01219511032,-2.80487799644,1.0,0.0,0.0,0.0,1.0,0.0,0.0,0.0,1.0,-0.497993945312,3.58172568359,-13.2830308105,1.0,0.0,0.0,0.0,1.0,0.0,0.0,0.0,1.0
1463082203971189944,626,1463082203969164219,,2.59057760239,-26.6469535828,-77.7634811401,0.00999999977648,1.0,0.0,0.0,0.0,1.0,0.0,0.0,0.0,1.0,3.90243911743,3.23170733452,-0.243902444839,1.0,0.0,0.0,0.0,1.0,0.0,0.0,0.0,1.0,-10.4722380615,3.03584770508,-10.5871597412,1.0,0.0,0.0,0.0,1.0,0.0,0.0,0.0,1.0
1463082203980854505,627,1463082203979131228,,2.78220939636,-26.5056838989,-77.8072814941,0.00999899953604,1.0,0.0,0.0,0.0,1.0,0.0,0.0,0.0,1.0,0.609756112099,-0.670731723309,-0.487804889679,1.0,0.0,0.0,0.0,1.0,0.0,0.0,0.0,1.0,-2.18830031738,-3.18428820801,-10.2423947021,1.0,0.0,0.0,0.0,1.0,0.0,0.0,0.0,1.0
1463082203991198388,628,1463082203989267663,,3.23640704155,-26.619228363,-77.940536499,0.0100100003183,1.0,0.0,0.0,0.0,1.0,0.0,0.0,0.0,1.0,2.01219511032,-3.53658556938,2.13414645195,1.0,0.0,0.0,0.0,1.0,0.0,0.0,0.0,1.0,-2.93529123535,-4.35265861816,-3.54341845703,1.0,0.0,0.0,0.0,1.0,0.0,0.0,0.0,1.0
1463082204000819303,629,1463082203999150817,,3.03364133835,-26.6222190857,-77.7642059326,0.00999299995601,1.0,0.0,0.0,0.0,1.0,0.0,0.0,0.0,1.0,-7.56097555161,2.92682933807,8.10975551605,1.0,0.0,0.0,0.0,1.0,0.0,0.0,0.0,1.0,-7.11077893066,1.81959326172,-12.3014081299,1.0,0.0,0.0,0.0,1.0,0.0,0.0,0.0,1.0
1463082204011346310,630,1463082204009165013,,3.10610532761,-26.3827590942,-77.6922988892,0.00999800022691,1.0,0.0,0.0,0.0,1.0,0.0,0.0,0.0,1.0,7.98780536652,3.53658556938,2.5,1.0,0.0,0.0,0.0,1.0,0.0,0.0,0.0,1.0,-1.11569797363,-0.229843359375,-10.299855542,1.0,0.0,0.0,0.0,1.0,0.0,0.0,0.0,1.0
1463082204021432225,631,1463082204019196292,,3.08388495445,-26.294927597,-77.6532211304,0.0100010000169,1.0,0.0,0.0,0.0,1.0,0.0,0.0,0.0,1.0,-1.34146344662,2.80487799644,-1.2195122242,1.0,0.0,0.0,0.0,1.0,0.0,0.0,0.0,1.0,-3.51468803711,0.119710083008,-9.09796630859,1.0,0.0,0.0,0.0,1.0,0.0,0.0,0.0,1.0
1463082204031513347,632,1463082204029214186,,3.00512719154,-26.1311721802,-77.5507049561,0.0100010000169,1.0,0.0,0.0,0.0,1.0,0.0,0.0,0.0,1.0,-3.23170733452,3.84146332741,3.96341490746,1.0,0.0,0.0,0.0,1.0,0.0,0.0,0.0,1.0,-3.95043273926,0.483628735352,-15.8448265869,1.0,0.0,0.0,0.0,1.0,0.0,0.0,0.0,1.0
1463082204041387752,633,1463082204039128486,,2.89178919792,-26.35987854,-77.4217376709,0.0100020002574,1.0,0.0,0.0,0.0,1.0,0.0,0.0,0.0,1.0,6.34146356583,-0.975609779358,0.609756112099,1.0,0.0,0.0,0.0,1.0,0.0,0.0,0.0,1.0,-4.77882680593,1.838746875,-3.96479794922,1.0,0.0,0.0,0.0,1.0,0.0,0.0,0.0,1.0
1463082204051380281,634,1463082204049158307,,3.02746272087,-26.2268390656,-77.4484481812,0.00999400019646,1.0,0.0,0.0,0.0,1.0,0.0,0.0,0.0,1.0,1.46341466904,4.32926845551,-2.13414645195,1.0,0.0,0.0,0.0,1.0,0.0,0.0,0.0,1.0,-3.71101257324,-2.2170307373,-11.2814782227,1.0,0.0,0.0,0.0,1.0,0.0,0.0,0.0,1.0
1463082204061303540,635,1463082204059120107,,2.62306547165,-26.1524543762,-77.2440261841,0.00999800022691,1.0,0.0,0.0,0.0,1.0,0.0,0.0,0.0,1.0,-5.54878091812,0.0,0.487804889679,1.0,0.0,0.0,0.0,1.0,0.0,0.0,0.0,1.0,-3.66312854004,8.10676682129,-11.8129909912,1.0,0.0,0.0,0.0,1.0,0.0,0.0,0.0,1.0
1463082204071330131,636,1463082204069191438,,2.20248818398,-26.3611679077,-76.9890670776,0.0100029995665,1.0,0.0,0.0,0.0,1.0,0.0,0.0,0.0,1.0,1.8292683363,-0.792682945728,1.58536589146,1.0,0.0,0.0,0.0,1.0,0.0,0.0,0.0,1.0,-4.04620080566,4.84107575684,-2.7341782959,1.0,0.0,0.0,0.0,1.0,0.0,0.0,0.0,1.0
1463082204081275109,637,1463082204079177197,,2.21373057365,-26.4041976929,-76.8981018066,0.0100020002574,1.0,0.0,0.0,0.0,1.0,0.0,0.0,0.0,1.0,4.57317066193,-2.86585378647,3.53658556938,1.0,0.0,0.0,0.0,1.0,0.0,0.0,0.0,1.0,-4.32871689382,0.31124621582,-7.98226833496,1.0,0.0,0.0,0.0,1.0,0.0,0.0,0.0,1.0
1463082204092612999,638,1463082204089353111,,2.11828231812,-26.2505435944,-76.8385620117,0.0100119998679,1.0,0.0,0.0,0.0,1.0,0.0,0.0,0.0,1.0,-10.8536586761,5.42682933807,2.13414645195,1.0,0.0,0.0,0.0,1.0,0.0,0.0,0.0,1.0,-4.22815983957,-0.507570751953,-13.7570827393,1.0,0.0,0.0,0.0,1.0,0.0,0.0,0.0,1.0
1463082204101412250,639,1463082204099169912,,1.7346303463,-26.4374332428,-76.5768203735,0.00998899992555,1.0,0.0,0.0,0.0,1.0,0.0,0.0,0.0,1.0,2.19512200356,-1.09756100178,3.96341490746,1.0,0.0,0.0,0.0,1.0,0.0,0.0,0.0,1.0,-5.43962617188,5.79396801758,-4.55377155762,1.0,0.0,0.0,0.0,1.0,0.0,0.0,0.0,1.0
1463082204111454206,640,1463082204109226868,,1.98985445499,-26.2278251648,-76.6875305176,0.0100039998069,1.0,0.0,0.0,0.0,1.0,0.0,0.0,0.0,1.0,0.365853667259,-1.40243899822,-4.69512224197,1.0,0.0,0.0,0.0,1.0,0.0,0.0,0.0,1.0,-0.588973571866,-4.17548740305,-11.2144405762,1.0,0.0,0.0,0.0,1.0,0.0,0.0,0.0,1.0
1463082204121271892,641,1463082204119166220,,1.90958583355,-26.0819721222,-76.613319397,0.00999100040644,1.0,0.0,0.0,0.0,1.0,0.0,0.0,0.0,1.0,-4.69512224197,6.15853643417,1.46341466904,1.0,0.0,0.0,0.0,1.0,0.0,0.0,0.0,1.0,-5.11880314941,0.780509741211,-15.4042934814,1.0,0.0,0.0,0.0,1.0,0.0,0.0,0.0,1.0
1463082204131424004,642,1463082204129176978,,2.17640733719,-25.8645820618,-76.7118453979,0.00999999977648,1.0,0.0,0.0,0.0,1.0,0.0,0.0,0.0,1.0,3.59756112099,-4.32926845551,-4.39024400711,1.0,0.0,0.0,0.0,1.0,0.0,0.0,0.0,1.0,0.440533105469,-5.86579406738,-17.2669835421,1.0,0.0,0.0,0.0,1.0,0.0,0.0,0.0,1.0
1463082204141484711,643,1463082204139217112,,2.07419633865,-25.6648864746,-76.7056732178,0.0100079998374,1.0,0.0,0.0,0.0,1.0,0.0,0.0,0.0,1.0,-6.82926845551,-1.8902438879,-5.79268312454,1.0,0.0,0.0,0.0,1.0,0.0,0.0,0.0,1.0,-0.938527050781,1.36948334961,-13.2064163574,1.0,0.0,0.0,0.0,1.0,0.0,0.0,0.0,1.0
1463082204151087762,644,1463082204149205943,,1.74319517612,-25.9557228088,-76.5090026855,0.00999400019646,1.0,0.0,0.0,0.0,1.0,0.0,0.0,0.0,1.0,3.23170733452,-2.25609779358,-0.792682945728,1.0,0.0,0.0,0.0,1.0,0.0,0.0,0.0,1.0,-7.46512077637,6.47870969238,-3.82114584961,1.0,0.0,0.0,0.0,1.0,0.0,0.0,0.0,1.0
1463082204161334457,645,1463082204159165035,,1.5886785984,-26.251493454,-76.3964920044,0.00999699998647,1.0,0.0,0.0,0.0,1.0,0.0,0.0,0.0,1.0,2.5,-4.57317066193,-1.2195122242,1.0,0.0,0.0,0.0,1.0,0.0,0.0,0.0,1.0,-8.11155522461,3.35188232422,-5.79396801758,1.0,0.0,0.0,0.0,1.0,0.0,0.0,0.0,1.0
1463082204171685840,646,1463082204169209960,,1.46121048927,-26.1708068848,-76.3181686401,0.0100029995665,1.0,0.0,0.0,0.0,1.0,0.0,0.0,0.0,1.0,-7.01219511032,-4.02439022064,1.03658533096,1.0,0.0,0.0,0.0,1.0,0.0,0.0,0.0,1.0,-3.68228215332,1.43173259277,-14.0779057617,1.0,0.0,0.0,0.0,1.0,0.0,0.0,0.0,1.0
1463082204181432224,647,1463082204179163635,,1.15638649464,-26.2025260925,-76.099571228,0.00999899953604,1.0,0.0,0.0,0.0,1.0,0.0,0.0,0.0,1.0,6.09756088257,-1.8292683363,1.2804877758,1.0,0.0,0.0,0.0,1.0,0.0,0.0,0.0,1.0,-4.38617744141,6.7660138916,-8.09719001465,1.0,0.0,0.0,0.0,1.0,0.0,0.0,0.0,1.0
1463082204191641784,648,1463082204189223872,,0.778968691826,-26.0509128571,-75.8842086792,0.0100020002574,1.0,0.0,0.0,0.0,1.0,0.0,0.0,0.0,1.0,3.29268312454,0.853658556938,-1.2804877758,1.0,0.0,0.0,0.0,1.0,0.0,0.0,0.0,1.0,-0.387860668945,3.1124621582,-3.28005627441,1.0,0.0,0.0,0.0,1.0,0.0,0.0,0.0,1.0
1463082204201679156,649,1463082204199183381,,0.923059225082,-25.9403972626,-75.9938049316,0.0100060002878,1.0,0.0,0.0,0.0,1.0,0.0,0.0,0.0,1.0,3.10975623131,-6.95121955872,-11.4634151459,1.0,0.0,0.0,0.0,1.0,0.0,0.0,0.0,1.0,-2.30801040039,-0.948103857422,-15.1936037354,1.0,0.0,0.0,0.0,1.0,0.0,0.0,0.0,1.0
1463082204211389968,650,1463082204209176431,,1.01425218582,-25.9590454102,-75.9504547119,0.00999599974602,1.0,0.0,0.0,0.0,1.0,0.0,0.0,0.0,1.0,2.68292689323,-0.548780500889,3.04878044128,1.0,0.0,0.0,0.0,1.0,0.0,0.0,0.0,1.0,-7.31189187012,-1.5322890625,-13.6517378662,1.0,0.0,0.0,0.0,1.0,0.0,0.0,0.0,1.0
1463082204220958331,651,1463082204219166877,,1.16147542,-25.6989841461,-76.0076751709,0.00999999977648,1.0,0.0,0.0,0.0,1.0,0.0,0.0,0.0,1.0,-1.2804877758,-0.609756112099,-3.41463422775,1.0,0.0,0.0,0.0,1.0,0.0,0.0,0.0,1.0,0.445321508789,-3.48116921387,-16.7354696045,1.0,0.0,0.0,0.0,1.0,0.0,0.0,0.0,1.0
1463082204231304714,652,1463082204229145552,,1.26152694225,-25.9765338898,-76.0028152466,0.00999899953604,1.0,0.0,0.0,0.0,1.0,0.0,0.0,0.0,1.0,10.1219511032,-6.64634132385,-4.32926845551,1.0,0.0,0.0,0.0,1.0,0.0,0.0,0.0,1.0,-8.18816967773,0.703895288086,-7.21133540039,1.0,0.0,0.0,0.0,1.0,0.0,0.0,0.0,1.0
1463082204241108493,653,1463082204239251518,,1.7191349268,-25.7807273865,-76.1344985962,0.00999699998647,1.0,0.0,0.0,0.0,1.0,0.0,0.0,0.0,1.0,5.12195110321,-0.548780500889,0.365853667259,1.0,0.0,0.0,0.0,1.0,0.0,0.0,0.0,1.0,-0.129286889648,-9.72045874023,-12.1481792236,1.0,0.0,0.0,0.0,1.0,0.0,0.0,0.0,1.0
1463082204251373991,654,1463082204249167277,,1.58667612076,-25.9856319427,-76.043006897,0.00999899953604,1.0,0.0,0.0,0.0,1.0,0.0,0.0,0.0,1.0,4.81707286835,-1.52439022064,-3.59756112099,1.0,0.0,0.0,0.0,1.0,0.0,0.0,0.0,1.0,-7.47469758301,3.6296097168,-6.87614716797,1.0,0.0,0.0,0.0,1.0,0.0,0.0,0.0,1.0
1463082204261568863,655,1463082204259235171,,1.78437948227,-25.880897522,-76.0775909424,0.00999999977648,1.0,0.0,0.0,0.0,1.0,0.0,0.0,0.0,1.0,4.39024400711,-0.365853667259,-1.2195122242,1.0,0.0,0.0,0.0,1.0,0.0,0.0,0.0,1.0,-1.77649763184,-1.47003981934,-6.29196196289,1.0,0.0,0.0,0.0,1.0,0.0,0.0,0.0,1.0
1463082204271575403,656,1463082204269284627,,1.50402784348,-25.6863632202,-75.9605789185,0.0100060002878,1.0,0.0,0.0,0.0,1.0,0.0,0.0,0.0,1.0,-9.93902492523,-1.58536589146,-0.670731723309,1.0,0.0,0.0,0.0,1.0,0.0,0.0,0.0,1.0,-1.0534486574,5.27203205566,-16.4242233887,1.0,0.0,0.0,0.0,1.0,0.0,0.0,0.0,1.0
1463082204281365381,657,1463082204279196635,,1.75461924076,-25.6336841583,-75.9869232178,0.00999400019646,1.0,0.0,0.0,0.0,1.0,0.0,0.0,0.0,1.0,8.5365858078,2.25609779358,0.12195122242,1.0,0.0,0.0,0.0,1.0,0.0,0.0,0.0,1.0,-6.05254179687,-3.84508786621,-13.8624276123,1.0,0.0,0.0,0.0,1.0,0.0,0.0,0.0,1.0
1463082204292794573,658,1463082204289229165,,1.70630335808,-25.5806503296,-75.9271011353,0.0100050000474,1.0,0.0,0.0,0.0,1.0,0.0,0.0,0.0,1.0,3.65853667259,-4.2682929039,-2.25609779358,1.0,0.0,0.0,0.0,1.0,0.0,0.0,0.0,1.0,-2.74854350586,1.62326872559,-9.23204160156,1.0,0.0,0.0,0.0,1.0,0.0,0.0,0.0,1.0
1463082204301445960,659,1463082204299162944,,1.90006327629,-25.5701751709,-75.915763855,0.00999699998647,1.0,0.0,0.0,0.0,1.0,0.0,0.0,0.0,1.0,3.90243911743,-4.81707286835,3.96341490746,1.0,0.0,0.0,0.0,1.0,0.0,0.0,0.0,1.0,-4.47715710449,-3.47159240723,-12.0476227539,1.0,0.0,0.0,0.0,1.0,0.0,0.0,0.0,1.0
1463082204311628280,660,1463082204309227348,,2.11372852325,-25.347278595,-75.9498748779,0.00999999977648,1.0,0.0,0.0,0.0,1.0,0.0,0.0,0.0,1.0,2.37804889679,3.17073178291,0.365853667259,1.0,0.0,0.0,0.0,1.0,0.0,0.0,0.0,1.0,-1.08217922346,-3.16992299805,-10.180145459,1.0,0.0,0.0,0.0,1.0,0.0,0.0,0.0,1.0
1463082204321312737,661,1463082204319158680,,2.36165332794,-25.3885097504,-76.0044174194,0.00999699998647,1.0,0.0,0.0,0.0,1.0,0.0,0.0,0.0,1.0,6.46341466904,-2.56097555161,-2.07317066193,1.0,0.0,0.0,0.0,1.0,0.0,0.0,0.0,1.0,-6.27280834961,-3.6535517334,-11.7076461182,1.0,0.0,0.0,0.0,1.0,0.0,0.0,0.0,1.0
1463082204331871932,662,1463082204329251000,,2.24455738068,-25.8943252563,-75.8089675903,0.0100060002878,1.0,0.0,0.0,0.0,1.0,0.0,0.0,0.0,1.0,12.7439022064,0.853658556938,4.81707286835,1.0,0.0,0.0,0.0,1.0,0.0,0.0,0.0,1.0,-8.43237766255,3.9839515625,3.0406361084,1.0,0.0,0.0,0.0,1.0,0.0,0.0,0.0,1.0
1463082204342681595,663,1463082204339185509,,2.25715374947,-25.6883945465,-75.8444213867,0.00999299995601,1.0,0.0,0.0,0.0,1.0,0.0,0.0,0.0,1.0,-9.51219558716,5.0,-3.7804877758,1.0,0.0,0.0,0.0,1.0,0.0,0.0,0.0,1.0,-3.02627089844,-2.27449157715,-15.7730005371,1.0,0.0,0.0,0.0,1.0,0.0,0.0,0.0,1.0
1463082204351604751,664,1463082204349298090,,2.64007496834,-25.8739070892,-75.9386444092,0.0100050000474,1.0,0.0,0.0,0.0,1.0,0.0,0.0,0.0,1.0,4.2682929039,-3.29268312454,1.2804877758,1.0,0.0,0.0,0.0,1.0,0.0,0.0,0.0,1.0,-6.7181298584,-5.86100566406,-6.53138212891,1.0,0.0,0.0,0.0,1.0,0.0,0.0,0.0,1.0
1463082204361580145,665,1463082204359246296,,2.36797118187,-25.5483474731,-75.8077163696,0.00999899953604,1.0,0.0,0.0,0.0,1.0,0.0,0.0,0.0,1.0,-4.20731735229,0.0609756112099,-1.52439022064,1.0,0.0,0.0,0.0,1.0,0.0,0.0,0.0,1.0,2.4277204834,4.80755722585,-11.511321582,1.0,0.0,0.0,0.0,1.0,0.0,0.0,0.0,1.0
1463082204371608247,666,1463082204369211846,,2.35206341743,-25.5125179291,-75.7289810181,0.00999699998647,1.0,0.0,0.0,0.0,1.0,0.0,0.0,0.0,1.0,5.91463422775,0.304878056049,0.18292683363,1.0,0.0,0.0,0.0,1.0,0.0,0.0,0.0,1.0,-3.21301862793,1.01514150391,-7.6135612793,1.0,0.0,0.0,0.0,1.0,0.0,0.0,0.0,1.0
1463082204381466298,667,1463082204379169167,,2.74442815781,-25.0207252502,-75.7944488525,0.0100039998069,1.0,0.0,0.0,0.0,1.0,0.0,0.0,0.0,1.0,3.35365867615,8.29268264771,4.69512224197,1.0,0.0,0.0,0.0,1.0,0.0,0.0,0.0,1.0,3.73974299316,-4.77882680593,-5.22414802246,1.0,0.0,0.0,0.0,1.0,0.0,0.0,0.0,1.0
1463082204391744816,668,1463082204389217113,,2.76321291924,-25.1340999603,-75.7540054321,0.00999699998647,1.0,0.0,0.0,0.0,1.0,0.0,0.0,0.0,1.0,-1.03658533096,-2.07317066193,1.03658533096,1.0,0.0,0.0,0.0,1.0,0.0,0.0,0.0,1.0,-8.48505126812,-0.742202514648,-12.004527124,1.0,0.0,0.0,0.0,1.0,0.0,0.0,0.0,1.0
1463082204401287711,669,1463082204399160215,,2.44719195366,-25.1656417847,-75.5244216919,0.0100090000778,1.0,0.0,0.0,0.0,1.0,0.0,0.0,0.0,1.0,-0.304878056049,2.86585378647,5.48780488968,1.0,0.0,0.0,0.0,1.0,0.0,0.0,0.0,1.0,-4.66390454172,4.60165559082,-7.46033237305,1.0,0.0,0.0,0.0,1.0,0.0,0.0,0.0,1.0
1463082204411406802,670,1463082204409179568,,2.14548563957,-25.0960426331,-75.3795166016,0.00999800022691,1.0,0.0,0.0,0.0,1.0,0.0,0.0,0.0,1.0,-5.24390268326,1.40243899822,-0.731707334518,1.0,0.0,0.0,0.0,1.0,0.0,0.0,0.0,1.0,-3.77805021973,5.09486113281,-10.7020814209,1.0,0.0,0.0,0.0,1.0,0.0,0.0,0.0,1.0
1463082204421694747,671,1463082204419141889,,1.8149626255,-25.3886432648,-75.1817626953,0.0099950004369,1.0,0.0,0.0,0.0,1.0,0.0,0.0,0.0,1.0,4.87804889679,1.15853655338,-1.15853655338,1.0,0.0,0.0,0.0,1.0,0.0,0.0,0.0,1.0,-9.97903251953,8.96389101563,-3.58651408691,1.0,0.0,0.0,0.0,1.0,0.0,0.0,0.0,1.0
1463082204433327794,672,1463082204430408061,,1.77574574947,-25.3263607025,-75.1792221069,0.0100520001724,1.0,0.0,0.0,0.0,1.0,0.0,0.0,0.0,1.0,-0.304878056049,-5.42682933807,-6.15853643417,1.0,0.0,0.0,0.0,1.0,0.0,0.0,0.0,1.0,-3.59130249023,1.69509477539,-13.9438304687,1.0,0.0,0.0,0.0,1.0,0.0,0.0,0.0,1.0
1463082204441457358,673,1463082204439222468,,1.64070940018,-25.5884666443,-75.0195465088,0.00994999986142,1.0,0.0,0.0,0.0,1.0,0.0,0.0,0.0,1.0,2.74390244484,-0.609756112099,5.0,1.0,0.0,0.0,0.0,1.0,0.0,0.0,0.0,1.0,-11.9087590576,3.74453139648,-8.69095202637,1.0,0.0,0.0,0.0,1.0,0.0,0.0,0.0,1.0
1463082204451386034,674,1463082204449120570,,1.53044903278,-25.3641052246,-74.9579086304,0.00999800022691,1.0,0.0,0.0,0.0,1.0,0.0,0.0,0.0,1.0,-5.54878091812,4.2682929039,-0.792682945728,1.0,0.0,0.0,0.0,1.0,0.0,0.0,0.0,1.0,-2.39420180629,1.92972653809,-17.9038388456,1.0,0.0,0.0,0.0,1.0,0.0,0.0,0.0,1.0
1463082204460946272,675,1463082204459152630,,1.5433049202,-25.5774860382,-74.9110794067,0.00999899953604,1.0,0.0,0.0,0.0,1.0,0.0,0.0,0.0,1.0,11.6463422775,-2.68292689323,-4.63414621353,1.0,0.0,0.0,0.0,1.0,0.0,0.0,0.0,1.0,-6.47870969238,2.07337849156,-6.25365473633,1.0,0.0,0.0,0.0,1.0,0.0,0.0,0.0,1.0
1463082204471242082,676,1463082204469164795,,1.7170894146,-25.4822502136,-74.9517669678,0.0100020002574,1.0,0.0,0.0,0.0,1.0,0.0,0.0,0.0,1.0,-3.90243911743,0.0609756112099,0.853658556938,1.0,0.0,0.0,0.0,1.0,0.0,0.0,0.0,1.0,-4.49631071777,-5.48751020508,-15.1600849121,1.0,0.0,0.0,0.0,1.0,0.0,0.0,0.0,1.0
1463082204481310549,677,1463082204479143626,,1.83151829243,-25.884185791,-74.9275360107,0.0099950004369,1.0,0.0,0.0,0.0,1.0,0.0,0.0,0.0,1.0,16.5243911743,1.8292683363,-4.75609779358,1.0,0.0,0.0,0.0,1.0,0.0,0.0,0.0,1.0,-5.52102902832,0.871489404297,-1.43652099609,1.0,0.0,0.0,0.0,1.0,0.0,0.0,0.0,1.0
1463082204491645629,678,1463082204489222510,,2.14589858055,-25.8601665497,-75.0637207031,0.0100010000169,1.0,0.0,0.0,0.0,1.0,0.0,0.0,0.0,1.0,4.14634132385,-4.20731735229,-6.58536624908,1.0,0.0,0.0,0.0,1.0,0.0,0.0,0.0,1.0,-4.20421782297,-4.82671083914,-11.4442839355,1.0,0.0,0.0,0.0,1.0,0.0,0.0,0.0,1.0
1463082204501427950,679,1463082204499165924,,2.34065651894,-26.4171943665,-75.041229248,0.0100020002574,1.0,0.0,0.0,0.0,1.0,0.0,0.0,0.0,1.0,12.8658542633,-8.71951198578,1.09756100178,1.0,0.0,0.0,0.0,1.0,0.0,0.0,0.0,1.0,-7.967903125,-0.588973571866,-0.885854614258,1.0,0.0,0.0,0.0,1.0,0.0,0.0,0.0,1.0
1463082204511621521,680,1463082204509249130,,1.91096234322,-26.2869586945,-74.8351364136,0.00999999977648,1.0,0.0,0.0,0.0,1.0,0.0,0.0,0.0,1.0,-4.87804889679,6.52439069748,-1.2804877758,1.0,0.0,0.0,0.0,1.0,0.0,0.0,0.0,1.0,-1.99197578125,5.03740029297,-6.02859978027,1.0,0.0,0.0,0.0,1.0,0.0,0.0,0.0,1.0
1463082204521334363,681,1463082204519207962,,1.4873894453,-26.304693222,-74.5314254761,0.00999800022691,1.0,0.0,0.0,0.0,1.0,0.0,0.0,0.0,1.0,4.87804889679,-4.39024400711,5.48780488968,1.0,0.0,0.0,0.0,1.0,0.0,0.0,0.0,1.0,-4.00310517578,10.9893856201,-9.62947966167,1.0,0.0,0.0,0.0,1.0,0.0,0.0,0.0,1.0
1463082204531744912,682,1463082204529208668,,1.43609309196,-26.0717658997,-74.4794158936,0.0100090000778,1.0,0.0,0.0,0.0,1.0,0.0,0.0,0.0,1.0,-8.96341514587,6.28048801422,2.62195134163,1.0,0.0,0.0,0.0,1.0,0.0,0.0,0.0,1.0,-1.45567460937,-0.579396801758,-8.53293530132,1.0,0.0,0.0,0.0,1.0,0.0,0.0,0.0,1.0
1463082204541584942,683,1463082204539185260,,1.80034220219,-25.9506988525,-74.5455932617,0.00999299995601,1.0,0.0,0.0,0.0,1.0,0.0,0.0,0.0,1.0,10.548781395,-1.46341466904,0.487804889679,1.0,0.0,0.0,0.0,1.0,0.0,0.0,0.0,1.0,-1.98239897461,-4.04141240234,-9.1697923584,1.0,0.0,0.0,0.0,1.0,0.0,0.0,0.0,1.0
1463082204550919191,684,1463082204549239560,,1.66639447212,-25.554189682,-74.4710693359,0.00999899953604,1.0,0.0,0.0,0.0,1.0,0.0,0.0,0.0,1.0,-2.92682933807,0.853658556938,-1.70731711388,1.0,0.0,0.0,0.0,1.0,0.0,0.0,0.0,1.0,3.78283862305,2.48039291992,-12.1050835937,1.0,0.0,0.0,0.0,1.0,0.0,0.0,0.0,1.0
1463082204560912971,685,1463082204559202402,,2.03334212303,-25.5591831207,-74.5527954102,0.010006999597,1.0,0.0,0.0,0.0,1.0,0.0,0.0,0.0,1.0,10.8536586761,-1.46341466904,-1.46341466904,1.0,0.0,0.0,0.0,1.0,0.0,0.0,0.0,1.0,-6.00465776367,-5.70777675781,-12.4306950195,1.0,0.0,0.0,0.0,1.0,0.0,0.0,0.0,1.0
1463082204571348259,686,1463082204569151858,,1.61826097965,-25.702205658,-74.4055023193,0.00999400019646,1.0,0.0,0.0,0.0,1.0,0.0,0.0,0.0,1.0,-5.24390268326,-2.43902444839,-6.09756088257,1.0,0.0,0.0,0.0,1.0,0.0,0.0,0.0,1.0,-4.86022937012,6.13394465332,-5.36301171875,1.0,0.0,0.0,0.0,1.0,0.0,0.0,0.0,1.0
1463082204581541049,687,1463082204579153658,,1.61071920395,-25.7565517426,-74.2556152344,0.00999899953604,1.0,0.0,0.0,0.0,1.0,0.0,0.0,0.0,1.0,10.3048782349,-4.63414621353,6.46341466904,1.0,0.0,0.0,0.0,1.0,0.0,0.0,0.0,1.0,-5.90410129395,1.88184250488,-11.5352635986,1.0,0.0,0.0,0.0,1.0,0.0,0.0,0.0,1.0
1463082204591580140,688,1463082204589233166,,1.67089319229,-25.580657959,-74.2706375122,0.00999899953604,1.0,0.0,0.0,0.0,1.0,0.0,0.0,0.0,1.0,-2.31707310677,-0.670731723309,-2.5,1.0,0.0,0.0,0.0,1.0,0.0,0.0,0.0,1.0,-2.05422502441,-1.49398183594,-14.8248966797,1.0,0.0,0.0,0.0,1.0,0.0,0.0,0.0,1.0
1463082204601283972,689,1463082204599135383,,1.46317100525,-25.5522174835,-74.0993270874,0.0100029995665,1.0,0.0,0.0,0.0,1.0,0.0,0.0,0.0,1.0,4.75609779358,3.65853667259,1.64634156227,1.0,0.0,0.0,0.0,1.0,0.0,0.0,0.0,1.0,-4.18506420969,4.14675698313,-8.19774648437,1.0,0.0,0.0,0.0,1.0,0.0,0.0,0.0,1.0
1463082204611456709,690,1463082204609159892,,1.35181677341,-25.37134552,-74.0214767456,0.0100050000474,1.0,0.0,0.0,0.0,1.0,0.0,0.0,0.0,1.0,-3.17073178291,-0.609756112099,-0.0609756112099,1.0,0.0,0.0,0.0,1.0,0.0,0.0,0.0,1.0,-1.64721074219,1.99676418457,-13.589488623,1.0,0.0,0.0,0.0,1.0,0.0,0.0,0.0,1.0
1463082204621626009,691,1463082204619229400,,1.77114009857,-25.2205181122,-74.1264648438,0.00999199971557,1.0,0.0,0.0,0.0,1.0,0.0,0.0,0.0,1.0,9.08536529541,-0.792682945728,-0.792682945728,1.0,0.0,0.0,0.0,1.0,0.0,0.0,0.0,1.0,-2.06859023437,-8.54730051128,-14.7913778564,1.0,0.0,0.0,0.0,1.0,0.0,0.0,0.0,1.0
1463082204631708330,692,1463082204629269117,,1.8042473793,-25.028181076,-74.1120834351,0.0100060002878,1.0,0.0,0.0,0.0,1.0,0.0,0.0,0.0,1.0,0.18292683363,5.42682933807,-1.95121955872,1.0,0.0,0.0,0.0,1.0,0.0,0.0,0.0,1.0,-2.70065947266,-0.316034619141,-12.6557499756,1.0,0.0,0.0,0.0,1.0,0.0,0.0,0.0,1.0
1463082204641499297,693,1463082204639167219,,2.0813024044,-25.351518631,-74.0908584595,0.00999299995601,1.0,0.0,0.0,0.0,1.0,0.0,0.0,0.0,1.0,12.0121955872,-1.2804877758,4.93902444839,1.0,0.0,0.0,0.0,1.0,0.0,0.0,0.0,1.0,-10.2088758789,-3.15076938477,-5.71735356445,1.0,0.0,0.0,0.0,1.0,0.0,0.0,0.0,1.0
1463082204651413337,694,1463082204649157561,,1.68412387371,-25.7233409882,-73.8878097534,0.0100039998069,1.0,0.0,0.0,0.0,1.0,0.0,0.0,0.0,1.0,-3.65853667259,-5.18292713165,0.304878056049,1.0,0.0,0.0,0.0,1.0,0.0,0.0,0.0,1.0,-7.06768330078,5.67425793457,-2.43250888672,1.0,0.0,0.0,0.0,1.0,0.0,0.0,0.0,1.0
1463082204660975971,695,1463082204659232381,,1.71278774738,-26.1064434052,-73.7133483887,0.0100020002574,1.0,0.0,0.0,0.0,1.0,0.0,0.0,0.0,1.0,15.9146347046,11.6463422775,7.68292665482,1.0,0.0,0.0,0.0,1.0,0.0,0.0,0.0,1.0,-12.885593335,2.44687409668,0.105344873047,1.0,0.0,0.0,0.0,1.0,0.0,0.0,0.0,1.0
1463082204671442874,696,1463082204669185171,,1.7721940279,-26.0681228638,-73.7651443481,0.0100010000169,1.0,0.0,0.0,0.0,1.0,0.0,0.0,0.0,1.0,-5.0,-0.548780500889,-5.30487823486,1.0,0.0,0.0,0.0,1.0,0.0,0.0,0.0,1.0,-7.70454094238,-2.37025978969,-18.3683151367,1.0,0.0,0.0,0.0,1.0,0.0,0.0,0.0,1.0
1463082204681262019,697,1463082204679163690,,1.51373291016,-26.1866912842,-73.5898208618,0.00999400019646,1.0,0.0,0.0,0.0,1.0,0.0,0.0,0.0,1.0,-4.87804889679,0.304878056049,4.14634132385,1.0,0.0,0.0,0.0,1.0,0.0,0.0,0.0,1.0,-8.97825622559,4.72136538157,-10.8122146973,1.0,0.0,0.0,0.0,1.0,0.0,0.0,0.0,1.0
1463082204691416006,698,1463082204689215021,,1.03369390965,-26.2758407593,-73.3316268921,0.0100060002878,1.0,0.0,0.0,0.0,1.0,0.0,0.0,0.0,1.0,-8.04878044128,2.62195134163,3.84146332741,1.0,0.0,0.0,0.0,1.0,0.0,0.0,0.0,1.0,-5.95677373047,7.17781657715,-6.65109221191,1.0,0.0,0.0,0.0,1.0,0.0,0.0,0.0,1.0
1463082204701422493,699,1463082204699177238,,1.00477671623,-25.8429660797,-73.289894104,0.00999899953604,1.0,0.0,0.0,0.0,1.0,0.0,0.0,0.0,1.0,3.04878044128,3.10975623131,-3.23170733452,1.0,0.0,0.0,0.0,1.0,0.0,0.0,0.0,1.0,3.46201560059,1.59453830566,-10.4722380615,1.0,0.0,0.0,0.0,1.0,0.0,0.0,0.0,1.0
1463082204711361064,700,1463082204709178621,,1.26879453659,-25.8355045319,-73.3283691406,0.0100029995665,1.0,0.0,0.0,0.0,1.0,0.0,0.0,0.0,1.0,4.02439022064,-5.73170757294,1.8292683363,1.0,0.0,0.0,0.0,1.0,0.0,0.0,0.0,1.0,-5.01824667969,-5.36780012207,-13.8336971924,1.0,0.0,0.0,0.0,1.0,0.0,0.0,0.0,1.0
1463082204721347864,701,1463082204719143078,,1.44456851482,-25.7108650208,-73.3303070068,0.00999899953604,1.0,0.0,0.0,0.0,1.0,0.0,0.0,0.0,1.0,-3.04878044128,7.98780536652,4.75609779358,1.0,0.0,0.0,0.0,1.0,0.0,0.0,0.0,1.0,-5.00388146973,-4.8793829834,-12.378022583,1.0,0.0,0.0,0.0,1.0,0.0,0.0,0.0,1.0
1463082204731207790,702,1463082204729157013,,1.1698153019,-25.5182800293,-73.1932144165,0.00999699998647,1.0,0.0,0.0,0.0,1.0,0.0,0.0,0.0,1.0,-0.914634168148,-1.34146344662,-2.5,1.0,0.0,0.0,0.0,1.0,0.0,0.0,0.0,1.0,-0.296881024126,3.88818349609,-7.46033237305,1.0,0.0,0.0,0.0,1.0,0.0,0.0,0.0,1.0
1463082204741029799,703,1463082204739152303,,1.07999813557,-25.4985198975,-73.0847167969,0.0100020002574,1.0,0.0,0.0,0.0,1.0,0.0,0.0,0.0,1.0,-2.01219511032,2.07317066193,3.71951246262,1.0,0.0,0.0,0.0,1.0,0.0,0.0,0.0,1.0,-6.6941878418,1.60890351563,-13.49850896,1.0,0.0,0.0,0.0,1.0,0.0,0.0,0.0,1.0
1463082204751108421,704,1463082204749262332,,1.47072470188,-25.5783290863,-73.1686248779,0.0100020002574,1.0,0.0,0.0,0.0,1.0,0.0,0.0,0.0,1.0,11.0365858078,5.36585378647,-0.792682945728,1.0,0.0,0.0,0.0,1.0,0.0,0.0,0.0,1.0,-8.66701059429,-5.88015927734,-9.72045874023,1.0,0.0,0.0,0.0,1.0,0.0,0.0,0.0,1.0
1463082204760788608,705,1463082204759176684,,1.00944304466,-25.7250347137,-73.011505127,0.00999100040644,1.0,0.0,0.0,0.0,1.0,0.0,0.0,0.0,1.0,-6.40243911743,-5.30487823486,-6.64634132385,1.0,0.0,0.0,0.0,1.0,0.0,0.0,0.0,1.0,-4.40533105469,6.94318481445,-5.22893642578,1.0,0.0,0.0,0.0,1.0,0.0,0.0,0.0,1.0
1463082204771268844,706,1463082204769148901,,1.05491840839,-25.807598114,-72.9230499268,0.0100029995665,1.0,0.0,0.0,0.0,1.0,0.0,0.0,0.0,1.0,5.42682933807,0.365853667259,4.45121955872,1.0,0.0,0.0,0.0,1.0,0.0,0.0,0.0,1.0,-6.00465776367,0.0718260498047,-8.48505126812,1.0,0.0,0.0,0.0,1.0,0.0,0.0,0.0,1.0
1463082204780893353,707,1463082204779148461,,0.782857775688,-26.1570091248,-72.8028259277,0.010006999597,1.0,0.0,0.0,0.0,1.0,0.0,0.0,0.0,1.0,3.47560977936,-3.04878044128,-6.64634132385,1.0,0.0,0.0,0.0,1.0,0.0,0.0,0.0,1.0,-7.6614453125,5.69819995117,-2.72460148926,1.0,0.0,0.0,0.0,1.0,0.0,0.0,0.0,1.0
1463082204791370673,708,1463082204789223386,,1.08319723606,-25.8614654541,-72.7651748657,0.0100060002878,1.0,0.0,0.0,0.0,1.0,0.0,0.0,0.0,1.0,11.0365858078,6.82926845551,8.5365858078,1.0,0.0,0.0,0.0,1.0,0.0,0.0,0.0,1.0,-0.296881024126,-3.17471140137,-8.77714328613,1.0,0.0,0.0,0.0,1.0,0.0,0.0,0.0,1.0
1463082204801423619,709,1463082204799182687,,1.59260821342,-25.9143714905,-72.8987884521,0.00998899992555,1.0,0.0,0.0,0.0,1.0,0.0,0.0,0.0,1.0,7.56097555161,-3.10975623131,1.52439022064,1.0,0.0,0.0,0.0,1.0,0.0,0.0,0.0,1.0,-6.55532414551,-11.6932809082,-11.1474029297,1.0,0.0,0.0,0.0,1.0,0.0,0.0,0.0,1.0
1463082204811412190,710,1463082204809173237,,1.31140768528,-25.8375968933,-72.6979217529,0.0100029995665,1.0,0.0,0.0,0.0,1.0,0.0,0.0,0.0,1.0,-2.37804889679,3.59756112099,4.69512224197,1.0,0.0,0.0,0.0,1.0,0.0,0.0,0.0,1.0,-4.40533105469,4.98472785645,-10.9319247803,1.0,0.0,0.0,0.0,1.0,0.0,0.0,0.0,1.0
1463082204821551437,711,1463082204819193266,,1.50822341442,-26.3698768616,-72.6814422607,0.00999999977648,1.0,0.0,0.0,0.0,1.0,0.0,0.0,0.0,1.0,6.40243911743,-1.95121955872,3.41463422775,1.0,0.0,0.0,0.0,1.0,0.0,0.0,0.0,1.0,-6.80432111816,-1.34075292969,0.627280834961,1.0,0.0,0.0,0.0,1.0,0.0,0.0,0.0,1.0
1463082204831516467,712,1463082204829278399,,1.40426754951,-26.2772254944,-72.661491394,0.0100159998983,1.0,0.0,0.0,0.0,1.0,0.0,0.0,0.0,1.0,-11.0365858078,3.35365867615,-2.5,1.0,0.0,0.0,0.0,1.0,0.0,0.0,0.0,1.0,-4.50588752441,0.31124621582,-11.5544172119,1.0,0.0,0.0,0.0,1.0,0.0,0.0,0.0,1.0
1463082204841391080,713,1463082204839202335,,1.59215342999,-26.2780628204,-72.7260818481,0.00998899992555,1.0,0.0,0.0,0.0,1.0,0.0,0.0,0.0,1.0,5.12195110321,-4.93902444839,-5.24390268326,1.0,0.0,0.0,0.0,1.0,0.0,0.0,0.0,1.0,-4.69263496165,-1.94409174805,-11.3676694824,1.0,0.0,0.0,0.0,1.0,0.0,0.0,0.0,1.0
1463082204851923608,714,1463082204849144760,,1.25739204884,-26.4075431824,-72.4851074219,0.0099950004369,1.0,0.0,0.0,0.0,1.0,0.0,0.0,0.0,1.0,-2.56097555161,-5.42682933807,6.58536624908,1.0,0.0,0.0,0.0,1.0,0.0,0.0,0.0,1.0,-6.14352145996,5.48751020508,-8.66222219097,1.0,0.0,0.0,0.0,1.0,0.0,0.0,0.0,1.0
1463082204861392128,715,1463082204859162862,,0.839335739613,-26.1401252747,-72.2682800293,0.00999999977648,1.0,0.0,0.0,0.0,1.0,0.0,0.0,0.0,1.0,0.304878056049,-0.792682945728,-1.70731711388,1.0,0.0,0.0,0.0,1.0,0.0,0.0,0.0,1.0,2.23139594727,8.09240161133,-7.80030900879,1.0,0.0,0.0,0.0,1.0,0.0,0.0,0.0,1.0
1463082204871513875,716,1463082204869288672,,0.850125730038,-25.9179096222,-72.1953048706,0.00999800022691,1.0,0.0,0.0,0.0,1.0,0.0,0.0,0.0,1.0,2.07317066193,-1.09756100178,2.74390244484,1.0,0.0,0.0,0.0,1.0,0.0,0.0,0.0,1.0,-0.531512805087,0.234631762695,-11.0420580566,1.0,0.0,0.0,0.0,1.0,0.0,0.0,0.0,1.0
1463082204881369426,717,1463082204879192972,,0.798256099224,-25.4946784973,-72.1056900024,0.0099950004369,1.0,0.0,0.0,0.0,1.0,0.0,0.0,0.0,1.0,2.80487799644,3.7804877758,1.15853655338,1.0,0.0,0.0,0.0,1.0,0.0,0.0,0.0,1.0,3.54341845703,1.83395847168,-11.9422778809,1.0,0.0,0.0,0.0,1.0,0.0,0.0,0.0,1.0
1463082204891856902,718,1463082204889235241,,1.02111887932,-25.2532024384,-72.1714401245,0.0100039998069,1.0,0.0,0.0,0.0,1.0,0.0,0.0,0.0,1.0,4.63414621353,-2.25609779358,-3.65853667259,1.0,0.0,0.0,0.0,1.0,0.0,0.0,0.0,1.0,0.301669427446,-2.11168571813,-9.14106193848,1.0,0.0,0.0,0.0,1.0,0.0,0.0,0.0,1.0
1463082204901411828,719,1463082204899132146,,1.10624551773,-25.0005722046,-72.162322998,0.00999999977648,1.0,0.0,0.0,0.0,1.0,0.0,0.0,0.0,1.0,-0.243902444839,4.45121955872,0.243902444839,1.0,0.0,0.0,0.0,1.0,0.0,0.0,0.0,1.0,-1.37906015625,-2.05901342773,-17.3579620361,1.0,0.0,0.0,0.0,1.0,0.0,0.0,0.0,1.0
1463082204911384670,720,1463082204909157227,,1.33785057068,-25.2494106293,-72.225479126,0.0100010000169,1.0,0.0,0.0,0.0,1.0,0.0,0.0,0.0,1.0,6.15853643417,-2.19512200356,-3.7804877758,1.0,0.0,0.0,0.0,1.0,0.0,0.0,0.0,1.0,-9.36611631001,-2.63841022949,-7.74763657227,1.0,0.0,0.0,0.0,1.0,0.0,0.0,0.0,1.0
1463082204921381366,721,1463082204919189131,,1.10768043995,-25.3572654724,-72.1121902466,0.0100029995665,1.0,0.0,0.0,0.0,1.0,0.0,0.0,0.0,1.0,-3.29268312454,-6.09756088257,-1.64634156227,1.0,0.0,0.0,0.0,1.0,0.0,0.0,0.0,1.0,-6.21055910645,4.51546433105,-10.2950671387,1.0,0.0,0.0,0.0,1.0,0.0,0.0,0.0,1.0
1463082204931501967,722,1463082204929243691,,1.44490945339,-25.2356491089,-72.157585144,0.0100079998374,1.0,0.0,0.0,0.0,1.0,0.0,0.0,0.0,1.0,3.90243911743,2.98780488968,4.2682929039,1.0,0.0,0.0,0.0,1.0,0.0,0.0,0.0,1.0,-4.14196887207,-8.31745598286,-14.5423808838,1.0,0.0,0.0,0.0,1.0,0.0,0.0,0.0,1.0
1463082204942521057,723,1463082204939244658,,1.02963483334,-25.4038696289,-71.9683074951,0.00999800022691,1.0,0.0,0.0,0.0,1.0,0.0,0.0,0.0,1.0,2.86585378647,-4.20731735229,-5.06097555161,1.0,0.0,0.0,0.0,1.0,0.0,0.0,0.0,1.0,-4.80755722585,8.14507404785,-4.51067592773,1.0,0.0,0.0,0.0,1.0,0.0,0.0,0.0,1.0
1463082204951001767,724,1463082204949304218,,1.05354785919,-25.20013237,-71.8985595703,0.00999999977648,1.0,0.0,0.0,0.0,1.0,0.0,0.0,0.0,1.0,2.43902444839,2.01219511032,2.80487799644,1.0,0.0,0.0,0.0,1.0,0.0,0.0,0.0,1.0,-0.670376464844,0.0191536132812,-5.18105239258,1.0,0.0,0.0,0.0,1.0,0.0,0.0,0.0,1.0
1463082204960762890,725,1463082204959142008,,1.3184043169,-25.182800293,-71.9797210693,0.00998600013554,1.0,0.0,0.0,0.0,1.0,0.0,0.0,0.0,1.0,7.19512224197,0.792682945728,-4.69512224197,1.0,0.0,0.0,0.0,1.0,0.0,0.0,0.0,1.0,-6.4356140625,-3.83551105957,-13.5847002197,1.0,0.0,0.0,0.0,1.0,0.0,0.0,0.0,1.0
1463082204972545207,726,1463082204969195892,,1.25764501095,-25.5554065704,-72.0018997192,0.0100050000474,1.0,0.0,0.0,0.0,1.0,0.0,0.0,0.0,1.0,-5.85365867615,-1.2195122242,-7.50000047684,1.0,0.0,0.0,0.0,1.0,0.0,0.0,0.0,1.0,-11.8034141846,1.21146604004,-5.21457121582,1.0,0.0,0.0,0.0,1.0,0.0,0.0,0.0,1.0
1463082204981352010,727,1463082204979131911,,1.07896244526,-25.8474235535,-71.8030929565,0.0100010000169,1.0,0.0,0.0,0.0,1.0,0.0,0.0,0.0,1.0,5.30487823486,-0.487804889679,5.85365867615,1.0,0.0,0.0,0.0,1.0,0.0,0.0,0.0,1.0,-7.20654699707,3.17949980469,-4.3239284905,1.0,0.0,0.0,0.0,1.0,0.0,0.0,0.0,1.0
1463082204991167091,728,1463082204989162252,,0.762500345707,-25.9086723328,-71.6353530884,0.0100100003183,1.0,0.0,0.0,0.0,1.0,0.0,0.0,0.0,1.0,-0.487804889679,-1.76829278469,-1.52439022064,1.0,0.0,0.0,0.0,1.0,0.0,0.0,0.0,1.0,-5.77960280762,6.91445439453,-9.2942902602,1.0,0.0,0.0,0.0,1.0,0.0,0.0,0.0,1.0
1463082205000836184,729,1463082204999154938,,1.08630883694,-25.9273529053,-71.6893005371,0.009990000166,1.0,0.0,0.0,0.0,1.0,0.0,0.0,0.0,1.0,6.09756088257,5.60975599289,1.8902438879,1.0,0.0,0.0,0.0,1.0,0.0,0.0,0.0,1.0,-4.80755722585,-3.63918652344,-6.7899559082,1.0,0.0,0.0,0.0,1.0,0.0,0.0,0.0,1.0
1463082205011206160,730,1463082205009122467,,1.1006218195,-26.0436153412,-71.6512069702,0.00999599974602,1.0,0.0,0.0,0.0,1.0,0.0,0.0,0.0,1.0,5.42682933807,-3.10975623131,-2.62195134163,1.0,0.0,0.0,0.0,1.0,0.0,0.0,0.0,1.0,-7.01022246094,1.33596452637,-9.81143840332,1.0,0.0,0.0,0.0,1.0,0.0,0.0,0.0,1.0
1463082205021173690,731,1463082205019227496,,1.01015102863,-25.7592067719,-71.5884780884,0.0100100003183,1.0,0.0,0.0,0.0,1.0,0.0,0.0,0.0,1.0,-6.64634132385,9.63414573669,0.731707334518,1.0,0.0,0.0,0.0,1.0,0.0,0.0,0.0,1.0,-1.40779057617,0.574608398438,-10.6254669678,1.0,0.0,0.0,0.0,1.0,0.0,0.0,0.0,1.0
1463082205031362312,732,1463082205029228984,,0.835996747017,-25.7517642975,-71.4596176147,0.00999400019646,1.0,0.0,0.0,0.0,1.0,0.0,0.0,0.0,1.0,-0.365853667259,-0.548780500889,1.09756100178,1.0,0.0,0.0,0.0,1.0,0.0,0.0,0.0,1.0,-4.42448466797,3.1364041748,-9.40921193989,1.0,0.0,0.0,0.0,1.0,0.0,0.0,0.0,1.0
1463082205041397029,733,1463082205039118128,,0.766194999218,-25.4379425049,-71.4395446777,0.00999599974602,1.0,0.0,0.0,0.0,1.0,0.0,0.0,0.0,1.0,-6.21951246262,8.23170757294,-3.10975623131,1.0,0.0,0.0,0.0,1.0,0.0,0.0,0.0,1.0,-0.713472094727,1.01514150391,-16.1464959961,1.0,0.0,0.0,0.0,1.0,0.0,0.0,0.0,1.0
1463082205051574453,734,1463082205049178990,,0.710095465183,-25.4659404755,-71.3187103271,0.0100020002574,1.0,0.0,0.0,0.0,1.0,0.0,0.0,0.0,1.0,-0.365853667259,3.41463422775,5.91463422775,1.0,0.0,0.0,0.0,1.0,0.0,0.0,0.0,1.0,-4.69263496165,0.603338854892,-7.35019909668,1.0,0.0,0.0,0.0,1.0,0.0,0.0,0.0,1.0
1463082205061383285,735,1463082205059166363,,0.219599783421,-25.6885128021,-71.0326309204,0.0100039998069,1.0,0.0,0.0,0.0,1.0,0.0,0.0,0.0,1.0,-4.51219558716,-4.75609779358,5.30487823486,1.0,0.0,0.0,0.0,1.0,0.0,0.0,0.0,1.0,-9.43794235981,11.8273562012,-7.28794985352,1.0,0.0,0.0,0.0,1.0,0.0,0.0,0.0,1.0
1463082205071515033,736,1463082205069262850,,0.0321755446494,-25.154209137,-70.8994293213,0.00999100040644,1.0,0.0,0.0,0.0,1.0,0.0,0.0,0.0,1.0,0.0,14.5731706619,0.914634168148,1.0,0.0,0.0,0.0,1.0,0.0,0.0,0.0,1.0,2.83952316895,2.95444484863,-7.93917270508,1.0,0.0,0.0,0.0,1.0,0.0,0.0,0.0,1.0
1463082205081356573,737,1463082205079171317,,-0.108906634152,-25.1258010864,-70.7845840454,0.0100119998679,1.0,0.0,0.0,0.0,1.0,0.0,0.0,0.0,1.0,5.0,-1.2804877758,-1.2195122242,1.0,0.0,0.0,0.0,1.0,0.0,0.0,0.0,1.0,-1.75734401855,1.81001645508,-4.41490786133,1.0,0.0,0.0,0.0,1.0,0.0,0.0,0.0,1.0
1463082205091362435,738,1463082205089211399,,-0.00884681381285,-25.0591754913,-70.8264083862,0.00999899953604,1.0,0.0,0.0,0.0,1.0,0.0,0.0,0.0,1.0,-8.96341514587,4.45121955872,-0.487804889679,1.0,0.0,0.0,0.0,1.0,0.0,0.0,0.0,1.0,-4.50109912109,-2.94007963867,-10.2184526855,1.0,0.0,0.0,0.0,1.0,0.0,0.0,0.0,1.0
1463082205101498714,739,1463082205099196949,,-0.348453044891,-25.0121688843,-70.5975036621,0.0099950004369,1.0,0.0,0.0,0.0,1.0,0.0,0.0,0.0,1.0,-0.0609756112099,1.52439022064,4.45121955872,1.0,0.0,0.0,0.0,1.0,0.0,0.0,0.0,1.0,-3.66312854004,6.3637880127,-8.89685336914,1.0,0.0,0.0,0.0,1.0,0.0,0.0,0.0,1.0
1463082205111559420,740,1463082205109273540,,-0.866550624371,-24.886724472,-70.3669204712,0.00999400019646,1.0,0.0,0.0,0.0,1.0,0.0,0.0,0.0,1.0,-9.26829242706,2.80487799644,0.670731723309,1.0,0.0,0.0,0.0,1.0,0.0,0.0,0.0,1.0,-2.02549460449,9.99818613281,-9.33259748677,1.0,0.0,0.0,0.0,1.0,0.0,0.0,0.0,1.0
1463082205122693978,741,1463082205119314819,,-1.05671083927,-24.6537342072,-70.1895904541,0.0100039998069,1.0,0.0,0.0,0.0,1.0,0.0,0.0,0.0,1.0,2.62195134163,1.46341466904,4.69512224197,1.0,0.0,0.0,0.0,1.0,0.0,0.0,0.0,1.0,-0.225054956055,2.90177241211,-7.28794985352,1.0,0.0,0.0,0.0,1.0,0.0,0.0,0.0,1.0
1463082205131127761,742,1463082205129344536,,-0.965974569321,-24.5938396454,-70.2130584717,0.0100130001083,1.0,0.0,0.0,0.0,1.0,0.0,0.0,0.0,1.0,3.71951246262,-2.19512200356,-4.93902444839,1.0,0.0,0.0,0.0,1.0,0.0,0.0,0.0,1.0,-2.93529123535,0.114921679688,-9.44273076313,1.0,0.0,0.0,0.0,1.0,0.0,0.0,0.0,1.0
1463082205140911593,743,1463082205139154878,,-1.24293982983,-24.2768249512,-70.046661377,0.00998799968511,1.0,0.0,0.0,0.0,1.0,0.0,0.0,0.0,1.0,-2.07317066193,8.5365858078,1.95121955872,1.0,0.0,0.0,0.0,1.0,0.0,0.0,0.0,1.0,0.201112939453,4.34308181152,-8.41322404927,1.0,0.0,0.0,0.0,1.0,0.0,0.0,0.0,1.0
1463082205151498965,744,1463082205149226261,,-0.838903367519,-24.4128742218,-70.1899642944,0.00999800022691,1.0,0.0,0.0,0.0,1.0,0.0,0.0,0.0,1.0,3.7804877758,-2.19512200356,-3.84146332741,1.0,0.0,0.0,0.0,1.0,0.0,0.0,0.0,1.0,-4.48194550781,-4.17548740305,-5.62158549805,1.0,0.0,0.0,0.0,1.0,0.0,0.0,0.0,1.0
1463082205161373109,745,1463082205159148010,,-0.868745803833,-24.4702377319,-70.1206283569,0.00999899953604,1.0,0.0,0.0,0.0,1.0,0.0,0.0,0.0,1.0,-6.46341466904,-1.46341466904,4.39024400711,1.0,0.0,0.0,0.0,1.0,0.0,0.0,0.0,1.0,-10.8074262939,-0.684741674805,-18.8854615263,1.0,0.0,0.0,0.0,1.0,0.0,0.0,0.0,1.0
1463082205171562356,746,1463082205169285799,,-0.723172843456,-24.1005516052,-70.1784210205,0.0100029995665,1.0,0.0,0.0,0.0,1.0,0.0,0.0,0.0,1.0,1.2804877758,5.60975599289,-4.93902444839,1.0,0.0,0.0,0.0,1.0,0.0,0.0,0.0,1.0,1.88184250488,-1.5322890625,-12.7227876221,1.0,0.0,0.0,0.0,1.0,0.0,0.0,0.0,1.0
1463082205182444779,747,1463082205179194683,,-0.54630535841,-23.8702335358,-70.2416229248,0.0100050000474,1.0,0.0,0.0,0.0,1.0,0.0,0.0,0.0,1.0,1.2804877758,0.487804889679,-4.2682929039,1.0,0.0,0.0,0.0,1.0,0.0,0.0,0.0,1.0,-0.282515795898,-2.38941340297,-13.2926076172,1.0,0.0,0.0,0.0,1.0,0.0,0.0,0.0,1.0
