%time,field.header.seq,field.header.stamp,field.header.frame_id,field.orientation.x,field.orientation.y,field.orientation.z,field.orientation.w,field.orientation_covariance0,field.orientation_covariance1,field.orientation_covariance2,field.orientation_covariance3,field.orientation_covariance4,field.orientation_covariance5,field.orientation_covariance6,field.orientation_covariance7,field.orientation_covariance8,field.angular_velocity.x,field.angular_velocity.y,field.angular_velocity.z,field.angular_velocity_covariance0,field.angular_velocity_covariance1,field.angular_velocity_covariance2,field.angular_velocity_covariance3,field.angular_velocity_covariance4,field.angular_velocity_covariance5,field.angular_velocity_covariance6,field.angular_velocity_covariance7,field.angular_velocity_covariance8,field.linear_acceleration.x,field.linear_acceleration.y,field.linear_acceleration.z,field.linear_acceleration_covariance0,field.linear_acceleration_covariance1,field.linear_acceleration_covariance2,field.linear_acceleration_covariance3,field.linear_acceleration_covariance4,field.linear_acceleration_covariance5,field.linear_acceleration_covariance6,field.linear_acceleration_covariance7,field.linear_acceleration_covariance8
1463751149110432053,173,1463751149000869865,,9.48281097412,-36.9973983765,41.6083869934,0.0199839994311,1.0,0.0,0.0,0.0,1.0,0.0,0.0,0.0,1.0,2.07317066193,-0.548780500889,-0.243902444839,1.0,0.0,0.0,0.0,1.0,0.0,0.0,0.0,1.0,-1.01992990723,-0.100556469727,-10.1322614258,1.0,0.0,0.0,0.0,1.0,0.0,0.0,0.0,1.0
1463751149110480855,174,1463751149020873529,,9.28137207031,-36.3721160889,41.7556648254,0.0200139991939,1.0,0.0,0.0,0.0,1.0,0.0,0.0,0.0,1.0,1.95121955872,-0.487804889679,-0.0,1.0,0.0,0.0,0.0,1.0,0.0,0.0,0.0,1.0,-0.91458503418,-0.0622492431641,-10.1226846191,1.0,0.0,0.0,0.0,1.0,0.0,0.0,0.0,1.0
1463751149110529396,175,1463751149040905996,,9.10180950165,-35.7676315308,41.8871154785,0.019999999553,1.0,0.0,0.0,0.0,1.0,0.0,0.0,0.0,1.0,2.13414645195,-0.487804889679,-0.18292683363,1.0,0.0,0.0,0.0,1.0,0.0,0.0,0.0,1.0,-1.03908344744,-0.124498486328,-10.1466266357,1.0,0.0,0.0,0.0,1.0,0.0,0.0,0.0,1.0
1463751149110639187,176,1463751149061220076,,8.92578029633,-35.1608695984,42.0134468079,0.0199790000916,1.0,0.0,0.0,0.0,1.0,0.0,0.0,0.0,1.0,2.01219511032,-0.365853667259,-0.18292683363,1.0,0.0,0.0,0.0,1.0,0.0,0.0,0.0,1.0,-0.9193734375,-0.124498486328,-10.0508585693,1.0,0.0,0.0,0.0,1.0,0.0,0.0,0.0,1.0
1463751149110683093,177,1463751149080856919,,8.74966144562,-34.5621490479,42.1407775879,0.0199989993125,1.0,0.0,0.0,0.0,1.0,0.0,0.0,0.0,1.0,2.25609779358,-0.365853667259,-0.18292683363,1.0,0.0,0.0,0.0,1.0,0.0,0.0,0.0,1.0,-0.9193734375,-0.0478840332031,-10.2615483154,1.0,0.0,0.0,0.0,1.0,0.0,0.0,0.0,1.0
1463751149110721531,178,1463751149100841729,,8.58827590942,-33.9769287109,42.2603416443,0.0200069993734,1.0,0.0,0.0,0.0,1.0,0.0,0.0,0.0,1.0,2.56097555161,-0.365853667259,-0.243902444839,1.0,0.0,0.0,0.0,1.0,0.0,0.0,0.0,1.0,-0.948103857422,-0.0622492431641,-10.1178962158,1.0,0.0,0.0,0.0,1.0,0.0,0.0,0.0,1.0
1463751149123617361,179,1463751149120835290,,8.42543983459,-33.4131355286,42.3742904663,0.0200050007552,1.0,0.0,0.0,0.0,1.0,0.0,0.0,0.0,1.0,2.13414645195,-0.670731723309,-0.18292683363,1.0,0.0,0.0,0.0,1.0,0.0,0.0,0.0,1.0,-1.00556469727,-0.076614453125,-10.1226846191,1.0,0.0,0.0,0.0,1.0,0.0,0.0,0.0,1.0
1463751149142196917,180,1463751149140808642,,8.26137447357,-32.8583946228,42.4826545715,0.0199660006911,1.0,0.0,0.0,0.0,1.0,0.0,0.0,0.0,1.0,1.8902438879,-0.609756112099,-0.304878056049,1.0,0.0,0.0,0.0,1.0,0.0,0.0,0.0,1.0,-1.01992990723,-0.0526724365234,-10.2759135254,1.0,0.0,0.0,0.0,1.0,0.0,0.0,0.0,1.0
1463751149162324956,181,1463751149160813764,,8.11047077179,-32.3118515015,42.5868911743,0.0200219992548,1.0,0.0,0.0,0.0,1.0,0.0,0.0,0.0,1.0,2.19512200356,-0.487804889679,-0.243902444839,1.0,0.0,0.0,0.0,1.0,0.0,0.0,0.0,1.0,-1.01992990723,-0.076614453125,-10.0221281494,1.0,0.0,0.0,0.0,1.0,0.0,0.0,0.0,1.0
1463751149182403724,182,1463751149180881075,,7.95745992661,-31.7721614838,42.6947059631,0.0199929997325,1.0,0.0,0.0,0.0,1.0,0.0,0.0,0.0,1.0,2.19512200356,-0.487804889679,-0.0,1.0,0.0,0.0,0.0,1.0,0.0,0.0,0.0,1.0,-0.991199487305,-0.0478840332031,-10.1466266357,1.0,0.0,0.0,0.0,1.0,0.0,0.0,0.0,1.0
1463751149204222277,183,1463751149200768125,,7.81227445602,-31.230424881,42.7964057922,0.0200079996139,1.0,0.0,0.0,0.0,1.0,0.0,0.0,0.0,1.0,2.19512200356,-0.243902444839,-0.0609756112099,1.0,0.0,0.0,0.0,1.0,0.0,0.0,0.0,1.0,-0.943315454102,-0.0718260498047,-10.2471831055,1.0,0.0,0.0,0.0,1.0,0.0,0.0,0.0,1.0
1463751149222169388,184,1463751149220789185,,7.67660474777,-30.7159252167,42.8869361877,0.0199900008738,1.0,0.0,0.0,0.0,1.0,0.0,0.0,0.0,1.0,2.19512200356,-0.487804889679,-0.304878056049,1.0,0.0,0.0,0.0,1.0,0.0,0.0,0.0,1.0,-1.05823706072,-0.0814028564453,-10.0700121826,1.0,0.0,0.0,0.0,1.0,0.0,0.0,0.0,1.0
1463751149245303299,185,1463751149243815076,,7.53651285172,-30.200750351,42.9818115234,0.0200219992548,1.0,0.0,0.0,0.0,1.0,0.0,0.0,0.0,1.0,2.07317066193,-0.243902444839,-0.0609756112099,1.0,0.0,0.0,0.0,1.0,0.0,0.0,0.0,1.0,-1.01514150391,-0.0622492431641,-10.1131078125,1.0,0.0,0.0,0.0,1.0,0.0,0.0,0.0,1.0
1463751149264642175,186,1463751149262513121,,7.40301036835,-29.6916618347,43.0729141235,0.0200149994344,1.0,0.0,0.0,0.0,1.0,0.0,0.0,0.0,1.0,2.19512200356,-0.365853667259,-0.0609756112099,1.0,0.0,0.0,0.0,1.0,0.0,0.0,0.0,1.0,-0.976834277344,-0.0622492431641,-10.2759135254,1.0,0.0,0.0,0.0,1.0,0.0,0.0,0.0,1.0
1463751149282342307,187,1463751149280745335,,7.27502679825,-29.2055530548,43.1577835083,0.0199650004506,1.0,0.0,0.0,0.0,1.0,0.0,0.0,0.0,1.0,2.31707310677,-0.426829278469,-0.243902444839,1.0,0.0,0.0,0.0,1.0,0.0,0.0,0.0,1.0,-1.07739082014,-0.0335188255255,-10.1131078125,1.0,0.0,0.0,0.0,1.0,0.0,0.0,0.0,1.0
1463751149302586960,188,1463751149300845457,,7.15270376205,-28.7203483582,43.2370414734,0.0200120005757,1.0,0.0,0.0,0.0,1.0,0.0,0.0,0.0,1.0,2.07317066193,-0.548780500889,-0.18292683363,1.0,0.0,0.0,0.0,1.0,0.0,0.0,0.0,1.0,-1.00077629395,-0.0957680664062,-10.2040874756,1.0,0.0,0.0,0.0,1.0,0.0,0.0,0.0,1.0
1463751149322565938,189,1463751149320704695,,7.03661823273,-28.2355861664,43.3153038025,0.019999999553,1.0,0.0,0.0,0.0,1.0,0.0,0.0,0.0,1.0,2.25609779358,-0.365853667259,-0.12195122242,1.0,0.0,0.0,0.0,1.0,0.0,0.0,0.0,1.0,-0.952892260742,-0.0957680664062,-10.2232410889,1.0,0.0,0.0,0.0,1.0,0.0,0.0,0.0,1.0
1463751149342558404,190,1463751149340804037,,6.91620969772,-27.7725105286,43.385307312,0.0200030002743,1.0,0.0,0.0,0.0,1.0,0.0,0.0,0.0,1.0,2.01219511032,-0.548780500889,-0.487804889679,1.0,0.0,0.0,0.0,1.0,0.0,0.0,0.0,1.0,-1.03429511719,-0.0383072265625,-10.0652237793,1.0,0.0,0.0,0.0,1.0,0.0,0.0,0.0,1.0
1463751149362659724,191,1463751149360831347,,6.81749868393,-27.3123264313,43.4488296509,0.0200120005757,1.0,0.0,0.0,0.0,1.0,0.0,0.0,0.0,1.0,2.19512200356,-0.609756112099,-0.304878056049,1.0,0.0,0.0,0.0,1.0,0.0,0.0,0.0,1.0,-0.981622680664,-0.172382519531,-10.1274730225,1.0,0.0,0.0,0.0,1.0,0.0,0.0,0.0,1.0
1463751149382648076,192,1463751149380844803,,6.70587205887,-26.8591747284,43.5230979919,0.0199730005115,1.0,0.0,0.0,0.0,1.0,0.0,0.0,0.0,1.0,2.13414645195,-0.609756112099,0.0609756112099,1.0,0.0,0.0,0.0,1.0,0.0,0.0,0.0,1.0,-0.962469067383,-0.0861912597656,-10.2807019287,1.0,0.0,0.0,0.0,1.0,0.0,0.0,0.0,1.0
1463751149402893354,193,1463751149400842217,,6.59786224365,-26.4135971069,43.587978363,0.0200190003961,1.0,0.0,0.0,0.0,1.0,0.0,0.0,0.0,1.0,2.19512200356,-0.487804889679,-0.365853667259,1.0,0.0,0.0,0.0,1.0,0.0,0.0,0.0,1.0,-0.991199487305,-0.0478840332031,-10.2136642822,1.0,0.0,0.0,0.0,1.0,0.0,0.0,0.0,1.0
1463751149422789259,194,1463751149420699268,,6.49464130402,-25.9680366516,43.6504325867,0.0199839994311,1.0,0.0,0.0,0.0,1.0,0.0,0.0,0.0,1.0,2.13414645195,-0.365853667259,-0.304878056049,1.0,0.0,0.0,0.0,1.0,0.0,0.0,0.0,1.0,-0.91458503418,-0.076614453125,-10.0748005859,1.0,0.0,0.0,0.0,1.0,0.0,0.0,0.0,1.0
1463751149443158911,195,1463751149440922150,,6.38057088852,-25.542383194,43.7203292847,0.0200190003961,1.0,0.0,0.0,0.0,1.0,0.0,0.0,0.0,1.0,2.07317066193,-0.426829278469,-0.0609756112099,1.0,0.0,0.0,0.0,1.0,0.0,0.0,0.0,1.0,-1.02950671387,0.00478840332031,-10.2184526855,1.0,0.0,0.0,0.0,1.0,0.0,0.0,0.0,1.0
1463751149463523304,196,1463751149460932533,,6.27910661697,-25.1208286285,43.7809448242,0.0201149992645,1.0,0.0,0.0,0.0,1.0,0.0,0.0,0.0,1.0,2.13414645195,-0.487804889679,-0.243902444839,1.0,0.0,0.0,0.0,1.0,0.0,0.0,0.0,1.0,-1.00077629395,-0.0526724365234,-10.1466266357,1.0,0.0,0.0,0.0,1.0,0.0,0.0,0.0,1.0
1463751149484043164,197,1463751149481003802,,6.17851829529,-24.7094802856,43.8439483643,0.019883999601,1.0,0.0,0.0,0.0,1.0,0.0,0.0,0.0,1.0,1.95121955872,-0.487804889679,0.0609756112099,1.0,0.0,0.0,0.0,1.0,0.0,0.0,0.0,1.0,-0.972045874023,-0.0814028564453,-10.1370498291,1.0,0.0,0.0,0.0,1.0,0.0,0.0,0.0,1.0
1463751149503740944,198,1463751149501000695,,6.06515216827,-24.2955322266,43.9093894958,0.0199849996716,1.0,0.0,0.0,0.0,1.0,0.0,0.0,0.0,1.0,1.8902438879,-0.18292683363,-0.0609756112099,1.0,0.0,0.0,0.0,1.0,0.0,0.0,0.0,1.0,-0.957680664062,0.0383072265625,-10.2184526855,1.0,0.0,0.0,0.0,1.0,0.0,0.0,0.0,1.0
1463751149523621120,199,1463751149521056964,,5.97004461288,-23.8929271698,43.9674530029,0.0200330000371,1.0,0.0,0.0,0.0,1.0,0.0,0.0,0.0,1.0,2.31707310677,-0.304878056049,-0.18292683363,1.0,0.0,0.0,0.0,1.0,0.0,0.0,0.0,1.0,-0.976834277344,-0.00957680664062,-10.1466266357,1.0,0.0,0.0,0.0,1.0,0.0,0.0,0.0,1.0
1463751149542977078,200,1463751149540781359,,5.87513637543,-23.5065345764,44.0257034302,0.0199580006301,1.0,0.0,0.0,0.0,1.0,0.0,0.0,0.0,1.0,2.25609779358,-0.548780500889,-0.0609756112099,1.0,0.0,0.0,0.0,1.0,0.0,0.0,0.0,1.0,-1.01035310059,-0.00478840332031,-10.2711251221,1.0,0.0,0.0,0.0,1.0,0.0,0.0,0.0,1.0
1463751149564462195,201,1463751149561223771,,5.79183149338,-23.1336135864,44.08045578,0.0200679991394,1.0,0.0,0.0,0.0,1.0,0.0,0.0,0.0,1.0,2.07317066193,-0.548780500889,0.12195122242,1.0,0.0,0.0,0.0,1.0,0.0,0.0,0.0,1.0,-1.09654436035,-0.129286889648,-10.3094323486,1.0,0.0,0.0,0.0,1.0,0.0,0.0,0.0,1.0
1463751149583278729,202,1463751149581067280,,5.7161231041,-22.7531356812,44.1268959045,0.0199880003929,1.0,0.0,0.0,0.0,1.0,0.0,0.0,0.0,1.0,2.31707310677,-0.426829278469,-0.243902444839,1.0,0.0,0.0,0.0,1.0,0.0,0.0,0.0,1.0,-0.957680664062,-0.105344873047,-10.1705686523,1.0,0.0,0.0,0.0,1.0,0.0,0.0,0.0,1.0
1463751149603482341,203,1463751149600907664,,5.63816452026,-22.3868789673,44.1747589111,0.0199599992484,1.0,0.0,0.0,0.0,1.0,0.0,0.0,0.0,1.0,2.25609779358,-0.670731723309,-0.12195122242,1.0,0.0,0.0,0.0,1.0,0.0,0.0,0.0,1.0,-0.972045874023,-0.0861912597656,-10.180145459,1.0,0.0,0.0,0.0,1.0,0.0,0.0,0.0,1.0
1463751149622974393,204,1463751149620808100,,5.56560564041,-22.0303821564,44.2224311829,0.0200239997357,1.0,0.0,0.0,0.0,1.0,0.0,0.0,0.0,1.0,2.13414645195,-0.609756112099,0.0609756112099,1.0,0.0,0.0,0.0,1.0,0.0,0.0,0.0,1.0,-1.04387185076,-0.15322890625,-10.4004120117,1.0,0.0,0.0,0.0,1.0,0.0,0.0,0.0,1.0
1463751149642951339,205,1463751149640689734,,5.48771619797,-21.6772594452,44.262550354,0.019974000752,1.0,0.0,0.0,0.0,1.0,0.0,0.0,0.0,1.0,2.19512200356,-0.18292683363,-0.487804889679,1.0,0.0,0.0,0.0,1.0,0.0,0.0,0.0,1.0,-1.07260241682,-0.0430956298828,-10.2280294922,1.0,0.0,0.0,0.0,1.0,0.0,0.0,0.0,1.0
1463751149663269325,206,1463751149660768294,,5.41157007217,-21.3294296265,44.3040504456,0.0199880003929,1.0,0.0,0.0,0.0,1.0,0.0,0.0,0.0,1.0,2.19512200356,-0.548780500889,-0.304878056049,1.0,0.0,0.0,0.0,1.0,0.0,0.0,0.0,1.0,-0.991199487305,-0.0526724365234,-10.2423947021,1.0,0.0,0.0,0.0,1.0,0.0,0.0,0.0,1.0
1463751149683540540,207,1463751149680676959,,5.3418598175,-20.980550766,44.3475914001,0.0200040005147,1.0,0.0,0.0,0.0,1.0,0.0,0.0,0.0,1.0,2.13414645195,0.0,-0.0609756112099,1.0,0.0,0.0,0.0,1.0,0.0,0.0,0.0,1.0,-1.01035310059,-0.119710083008,-10.1226846191,1.0,0.0,0.0,0.0,1.0,0.0,0.0,0.0,1.0
1463751149702411397,208,1463751149700748435,,5.26228475571,-20.6460895538,44.3879089355,0.0199950002134,1.0,0.0,0.0,0.0,1.0,0.0,0.0,0.0,1.0,1.8902438879,-0.548780500889,-0.243902444839,1.0,0.0,0.0,0.0,1.0,0.0,0.0,0.0,1.0,-0.981622680664,-0.0478840332031,-10.1322614258,1.0,0.0,0.0,0.0,1.0,0.0,0.0,0.0,1.0
1463751149722694800,209,1463751149720739339,,5.19426441193,-20.3114299774,44.4217147827,0.0199769996107,1.0,0.0,0.0,0.0,1.0,0.0,0.0,0.0,1.0,2.07317066193,-0.365853667259,-0.426829278469,1.0,0.0,0.0,0.0,1.0,0.0,0.0,0.0,1.0,-0.943315454102,-0.0861912597656,-10.0077629395,1.0,0.0,0.0,0.0,1.0,0.0,0.0,0.0,1.0
1463751149742426122,210,1463751149740753264,,5.1229724884,-19.9921264648,44.4607505798,0.0200379993767,1.0,0.0,0.0,0.0,1.0,0.0,0.0,0.0,1.0,2.07317066193,-0.304878056049,-0.18292683363,1.0,0.0,0.0,0.0,1.0,0.0,0.0,0.0,1.0,-1.0534486574,-0.0622492431641,-10.1131078125,1.0,0.0,0.0,0.0,1.0,0.0,0.0,0.0,1.0
1463751149762797076,211,1463751149760872866,,5.06109762192,-19.6712417603,44.4985389709,0.0199839994311,1.0,0.0,0.0,0.0,1.0,0.0,0.0,0.0,1.0,2.13414645195,-0.365853667259,-0.0609756112099,1.0,0.0,0.0,0.0,1.0,0.0,0.0,0.0,1.0,-0.972045874023,-0.124498486328,-10.2088758789,1.0,0.0,0.0,0.0,1.0,0.0,0.0,0.0,1.0
1463751149782472044,212,1463751149780782468,,5.00128269196,-19.3595485687,44.5337677002,0.0199989993125,1.0,0.0,0.0,0.0,1.0,0.0,0.0,0.0,1.0,2.07317066193,-0.243902444839,-0.12195122242,1.0,0.0,0.0,0.0,1.0,0.0,0.0,0.0,1.0,-1.01035310059,-0.134075302102,-10.0508585693,1.0,0.0,0.0,0.0,1.0,0.0,0.0,0.0,1.0
1463751149802598625,213,1463751149800888997,,4.93766403198,-19.0600223541,44.5672187805,0.0200040005147,1.0,0.0,0.0,0.0,1.0,0.0,0.0,0.0,1.0,2.25609779358,-0.426829278469,-0.304878056049,1.0,0.0,0.0,0.0,1.0,0.0,0.0,0.0,1.0,-1.04866025408,-0.0478840332031,-10.1753570557,1.0,0.0,0.0,0.0,1.0,0.0,0.0,0.0,1.0
1463751149822808382,214,1463751149820849172,,4.86740446091,-18.756439209,44.6019477844,0.019999999553,1.0,0.0,0.0,0.0,1.0,0.0,0.0,0.0,1.0,2.01219511032,-0.365853667259,-0.243902444839,1.0,0.0,0.0,0.0,1.0,0.0,0.0,0.0,1.0,-0.962469067383,-0.0239420166016,-10.1370498291,1.0,0.0,0.0,0.0,1.0,0.0,0.0,0.0,1.0
1463751149842824911,215,1463751149840881899,,4.80579137802,-18.4686126709,44.6387367249,0.0199979990721,1.0,0.0,0.0,0.0,1.0,0.0,0.0,0.0,1.0,2.13414645195,-0.365853667259,-0.0,1.0,0.0,0.0,0.0,1.0,0.0,0.0,0.0,1.0,-1.05823706072,-0.076614453125,-10.1945106689,1.0,0.0,0.0,0.0,1.0,0.0,0.0,0.0,1.0
1463751149862899200,216,1463751149860962021,,4.74075508118,-18.1832866669,44.669670105,0.0200079996139,1.0,0.0,0.0,0.0,1.0,0.0,0.0,0.0,1.0,1.8902438879,-0.548780500889,-0.243902444839,1.0,0.0,0.0,0.0,1.0,0.0,0.0,0.0,1.0,-1.00077629395,-0.0622492431641,-10.1945106689,1.0,0.0,0.0,0.0,1.0,0.0,0.0,0.0,1.0
1463751149882686876,217,1463751149881001831,,4.6822476387,-17.8981895447,44.7016105652,0.0199609994888,1.0,0.0,0.0,0.0,1.0,0.0,0.0,0.0,1.0,2.01219511032,-0.243902444839,-0.12195122242,1.0,0.0,0.0,0.0,1.0,0.0,0.0,0.0,1.0,-0.995987890625,-0.0909796630859,-10.1466266357,1.0,0.0,0.0,0.0,1.0,0.0,0.0,0.0,1.0
1463751149902476166,218,1463751149900802632,,4.62906599045,-17.6281738281,44.7270393372,0.0200360007584,1.0,0.0,0.0,0.0,1.0,0.0,0.0,0.0,1.0,2.25609779358,-0.365853667259,-0.426829278469,1.0,0.0,0.0,0.0,1.0,0.0,0.0,0.0,1.0,-1.07739082014,-0.067037651051,-10.1609918457,1.0,0.0,0.0,0.0,1.0,0.0,0.0,0.0,1.0
1463751149922788163,219,1463751149920863796,,4.57209682465,-17.3476009369,44.7615776062,0.0200030002743,1.0,0.0,0.0,0.0,1.0,0.0,0.0,0.0,1.0,2.13414645195,-0.426829278469,0.0609756112099,1.0,0.0,0.0,0.0,1.0,0.0,0.0,0.0,1.0,-0.91458503418,-0.0718260498047,-10.2232410889,1.0,0.0,0.0,0.0,1.0,0.0,0.0,0.0,1.0
1463751149945652909,220,1463751149941191886,,4.51377820969,-17.0865306854,44.7885284424,0.0199960004538,1.0,0.0,0.0,0.0,1.0,0.0,0.0,0.0,1.0,1.8902438879,-0.609756112099,-0.243902444839,1.0,0.0,0.0,0.0,1.0,0.0,0.0,0.0,1.0,-1.00556469727,-0.0718260498047,-10.1274730225,1.0,0.0,0.0,0.0,1.0,0.0,0.0,0.0,1.0
1463751149966225217,221,1463751149960789303,,4.457883358,-16.8328266144,44.816608429,0.0200130008161,1.0,0.0,0.0,0.0,1.0,0.0,0.0,0.0,1.0,2.07317066193,-0.609756112099,-0.18292683363,1.0,0.0,0.0,0.0,1.0,0.0,0.0,0.0,1.0,-1.01992990723,-0.0526724365234,-10.0556469727,1.0,0.0,0.0,0.0,1.0,0.0,0.0,0.0,1.0
1463751149984050714,222,1463751149981098799,,4.40534496307,-16.5871257782,44.8435134888,0.0200440008193,1.0,0.0,0.0,0.0,1.0,0.0,0.0,0.0,1.0,2.07317066193,-0.487804889679,-0.18292683363,1.0,0.0,0.0,0.0,1.0,0.0,0.0,0.0,1.0,-1.08217922346,-0.0718260498047,-10.1274730225,1.0,0.0,0.0,0.0,1.0,0.0,0.0,0.0,1.0
1463751150002928081,223,1463751150000717621,,4.35042381287,-16.3383750916,44.8677139282,0.019938999787,1.0,0.0,0.0,0.0,1.0,0.0,0.0,0.0,1.0,2.01219511032,-0.670731723309,-0.304878056049,1.0,0.0,0.0,0.0,1.0,0.0,0.0,0.0,1.0,-0.972045874023,-0.0430956298828,-10.1897222656,1.0,0.0,0.0,0.0,1.0,0.0,0.0,0.0,1.0
1463751150023242109,224,1463751150020732953,,4.30515909195,-16.0970897675,44.8945541382,0.0200050007552,1.0,0.0,0.0,0.0,1.0,0.0,0.0,0.0,1.0,2.13414645195,-0.426829278469,-0.0609756112099,1.0,0.0,0.0,0.0,1.0,0.0,0.0,0.0,1.0,-1.0534486574,-0.110133276367,-10.2519715088,1.0,0.0,0.0,0.0,1.0,0.0,0.0,0.0,1.0
1463751150042860462,225,1463751150040715263,,4.26004123688,-15.8649053574,44.9199142456,0.0200040005147,1.0,0.0,0.0,0.0,1.0,0.0,0.0,0.0,1.0,2.19512200356,-0.609756112099,-0.12195122242,1.0,0.0,0.0,0.0,1.0,0.0,0.0,0.0,1.0,-1.04387185076,-0.0861912597656,-10.0939541992,1.0,0.0,0.0,0.0,1.0,0.0,0.0,0.0,1.0
1463751150062917251,226,1463751150060741167,,4.22254705429,-15.623374939,44.9428672791,0.0199970006943,1.0,0.0,0.0,0.0,1.0,0.0,0.0,0.0,1.0,2.13414645195,-0.365853667259,-0.12195122242,1.0,0.0,0.0,0.0,1.0,0.0,0.0,0.0,1.0,-0.952892260742,-0.15322890625,-10.0029745361,1.0,0.0,0.0,0.0,1.0,0.0,0.0,0.0,1.0
1463751150083237217,227,1463751150080718790,,4.17377328873,-15.3957586288,44.973575592,0.0200040005147,1.0,0.0,0.0,0.0,1.0,0.0,0.0,0.0,1.0,2.01219511032,-0.487804889679,0.18292683363,1.0,0.0,0.0,0.0,1.0,0.0,0.0,0.0,1.0,-1.03429511719,-0.0861912597656,-10.2376062988,1.0,0.0,0.0,0.0,1.0,0.0,0.0,0.0,1.0
1463751150102950361,228,1463751150100700007,,4.13132190704,-15.1820316315,44.9976959229,0.0199939999729,1.0,0.0,0.0,0.0,1.0,0.0,0.0,0.0,1.0,2.31707310677,-0.731707334518,-0.12195122242,1.0,0.0,0.0,0.0,1.0,0.0,0.0,0.0,1.0,-1.07739082014,-0.0622492431641,-10.2184526855,1.0,0.0,0.0,0.0,1.0,0.0,0.0,0.0,1.0
1463751150123067463,229,1463751150121113200,,4.08635616302,-14.9518632889,45.0215759277,0.0200319997966,1.0,0.0,0.0,0.0,1.0,0.0,0.0,0.0,1.0,2.07317066193,-0.243902444839,-0.12195122242,1.0,0.0,0.0,0.0,1.0,0.0,0.0,0.0,1.0,-0.972045874023,-0.076614453125,-10.1274730225,1.0,0.0,0.0,0.0,1.0,0.0,0.0,0.0,1.0
1463751150142803576,230,1463751150141139000,,4.03953313828,-14.7304983139,45.0444107056,0.0199699997902,1.0,0.0,0.0,0.0,1.0,0.0,0.0,0.0,1.0,2.07317066193,-0.243902444839,-0.18292683363,1.0,0.0,0.0,0.0,1.0,0.0,0.0,0.0,1.0,-1.01514150391,-0.0478840332031,-10.2232410889,1.0,0.0,0.0,0.0,1.0,0.0,0.0,0.0,1.0
1463751150164993377,231,1463751150160926937,,3.99474453926,-14.5170593262,45.068775177,0.0200139991939,1.0,0.0,0.0,0.0,1.0,0.0,0.0,0.0,1.0,2.07317066193,-0.243902444839,-0.0609756112099,1.0,0.0,0.0,0.0,1.0,0.0,0.0,0.0,1.0,-1.04387185076,-0.0622492431641,-10.1514150391,1.0,0.0,0.0,0.0,1.0,0.0,0.0,0.0,1.0
1463751150184896365,232,1463751150180857633,,3.94813704491,-14.3065309525,45.0978088379,0.0199870001525,1.0,0.0,0.0,0.0,1.0,0.0,0.0,0.0,1.0,2.07317066193,-0.365853667259,0.18292683363,1.0,0.0,0.0,0.0,1.0,0.0,0.0,0.0,1.0,-1.00556469727,-0.0478840332031,-10.165780249,1.0,0.0,0.0,0.0,1.0,0.0,0.0,0.0,1.0
1463751150202355509,233,1463751150200742079,,3.90564990044,-14.0991239548,45.1194229126,0.0199870001525,1.0,0.0,0.0,0.0,1.0,0.0,0.0,0.0,1.0,2.01219511032,-0.304878056049,-0.12195122242,1.0,0.0,0.0,0.0,1.0,0.0,0.0,0.0,1.0,-1.01035310059,-0.0718260498047,-10.1514150391,1.0,0.0,0.0,0.0,1.0,0.0,0.0,0.0,1.0
1463751150222606256,234,1463751150220738139,,3.86718988419,-13.8882837296,45.1413955688,0.0200159996748,1.0,0.0,0.0,0.0,1.0,0.0,0.0,0.0,1.0,2.13414645195,-0.426829278469,-0.0609756112099,1.0,0.0,0.0,0.0,1.0,0.0,0.0,0.0,1.0,-0.928950244141,-0.0814028564453,-10.2280294922,1.0,0.0,0.0,0.0,1.0,0.0,0.0,0.0,1.0
1463751150242615389,235,1463751150240763470,,3.82693529129,-13.6813602448,45.1618919373,0.0199909992516,1.0,0.0,0.0,0.0,1.0,0.0,0.0,0.0,1.0,2.01219511032,-0.304878056049,-0.12195122242,1.0,0.0,0.0,0.0,1.0,0.0,0.0,0.0,1.0,-0.948103857422,-0.076614453125,-10.2328178955,1.0,0.0,0.0,0.0,1.0,0.0,0.0,0.0,1.0
1463751150263138062,236,1463751150260761614,,3.79269051552,-13.4796361923,45.1813697815,0.020005999133,1.0,0.0,0.0,0.0,1.0,0.0,0.0,0.0,1.0,2.13414645195,-0.243902444839,-0.12195122242,1.0,0.0,0.0,0.0,1.0,0.0,0.0,0.0,1.0,-0.972045874023,-0.100556469727,-10.2376062988,1.0,0.0,0.0,0.0,1.0,0.0,0.0,0.0,1.0
1463751150282484490,237,1463751150280788664,,3.75685024261,-13.2941837311,45.2021484375,0.0200020000339,1.0,0.0,0.0,0.0,1.0,0.0,0.0,0.0,1.0,1.95121955872,-0.487804889679,-0.0,1.0,0.0,0.0,0.0,1.0,0.0,0.0,0.0,1.0,-1.02950671387,-0.114921679688,-10.1466266357,1.0,0.0,0.0,0.0,1.0,0.0,0.0,0.0,1.0
1463751150302407113,238,1463751150300750818,,3.714209795,-13.1130514145,45.2206535339,0.0199900008738,1.0,0.0,0.0,0.0,1.0,0.0,0.0,0.0,1.0,2.19512200356,-0.487804889679,-0.243902444839,1.0,0.0,0.0,0.0,1.0,0.0,0.0,0.0,1.0,-1.04387185076,0.00478840332031,-10.2232410889,1.0,0.0,0.0,0.0,1.0,0.0,0.0,0.0,1.0
1463751150323059993,239,1463751150320749795,,3.67641544342,-12.9375925064,45.2374458313,0.0199939999729,1.0,0.0,0.0,0.0,1.0,0.0,0.0,0.0,1.0,1.8902438879,-0.609756112099,-0.18292683363,1.0,0.0,0.0,0.0,1.0,0.0,0.0,0.0,1.0,-1.04387185076,-0.0861912597656,-10.2423947021,1.0,0.0,0.0,0.0,1.0,0.0,0.0,0.0,1.0
1463751150343126053,240,1463751150340763355,,3.68892216682,-12.7609596252,45.2489433289,0.0200030002743,1.0,0.0,0.0,0.0,1.0,0.0,0.0,0.0,1.0,3.23170733452,-0.487804889679,-0.18292683363,1.0,0.0,0.0,0.0,1.0,0.0,0.0,0.0,1.0,-0.991199487305,-0.277727392578,-9.89762966309,1.0,0.0,0.0,0.0,1.0,0.0,0.0,0.0,1.0
1463751150363172738,241,1463751150360774311,,3.64482927322,-12.5850400925,45.2726097107,0.0200110003352,1.0,0.0,0.0,0.0,1.0,0.0,0.0,0.0,1.0,1.8292683363,-0.426829278469,0.12195122242,1.0,0.0,0.0,0.0,1.0,0.0,0.0,0.0,1.0,-0.991199487305,-0.0478840332031,-10.0891657959,1.0,0.0,0.0,0.0,1.0,0.0,0.0,0.0,1.0
1463751150383273330,242,1463751150380812351,,3.60845661163,-12.4126243591,45.2894859314,0.0200020000339,1.0,0.0,0.0,0.0,1.0,0.0,0.0,0.0,1.0,2.07317066193,-0.426829278469,-0.18292683363,1.0,0.0,0.0,0.0,1.0,0.0,0.0,0.0,1.0,-1.00077629395,-0.0526724365234,-10.1514150391,1.0,0.0,0.0,0.0,1.0,0.0,0.0,0.0,1.0
1463751150402852881,243,1463751150400762369,,3.57948613167,-12.2373962402,45.3050689697,0.0199929997325,1.0,0.0,0.0,0.0,1.0,0.0,0.0,0.0,1.0,2.19512200356,-0.426829278469,-0.18292683363,1.0,0.0,0.0,0.0,1.0,0.0,0.0,0.0,1.0,-0.957680664062,-0.0909796630859,-10.2950671387,1.0,0.0,0.0,0.0,1.0,0.0,0.0,0.0,1.0
1463751150423107899,244,1463751150420763326,,3.55002045631,-12.0673284531,45.3227348328,0.0199929997325,1.0,0.0,0.0,0.0,1.0,0.0,0.0,0.0,1.0,2.13414645195,-0.365853667259,-0.0609756112099,1.0,0.0,0.0,0.0,1.0,0.0,0.0,0.0,1.0,-0.976834277344,-0.0957680664062,-10.2280294922,1.0,0.0,0.0,0.0,1.0,0.0,0.0,0.0,1.0
1463751150443130678,245,1463751150440774855,,3.52629303932,-11.8968963623,45.3384513855,0.0200149994344,1.0,0.0,0.0,0.0,1.0,0.0,0.0,0.0,1.0,2.31707310677,-0.487804889679,-0.12195122242,1.0,0.0,0.0,0.0,1.0,0.0,0.0,0.0,1.0,-0.91458503418,-0.105344873047,-10.1370498291,1.0,0.0,0.0,0.0,1.0,0.0,0.0,0.0,1.0
1463751150463099603,246,1463751150460756592,,3.49841094017,-11.7406406403,45.3521347046,0.0199989993125,1.0,0.0,0.0,0.0,1.0,0.0,0.0,0.0,1.0,2.01219511032,-0.670731723309,-0.18292683363,1.0,0.0,0.0,0.0,1.0,0.0,0.0,0.0,1.0,-0.981622680664,-0.114921679688,-10.1609918457,1.0,0.0,0.0,0.0,1.0,0.0,0.0,0.0,1.0
1463751150483153371,247,1463751150480746767,,3.4718644619,-11.594581604,45.3683433533,0.0200020000339,1.0,0.0,0.0,0.0,1.0,0.0,0.0,0.0,1.0,2.13414645195,-0.609756112099,-0.0609756112099,1.0,0.0,0.0,0.0,1.0,0.0,0.0,0.0,1.0,-1.06781401349,-0.105344873047,-10.2711251221,1.0,0.0,0.0,0.0,1.0,0.0,0.0,0.0,1.0
1463751150505610932,248,1463751150501323658,,3.4439227581,-11.439658165,45.3820075989,0.0199929997325,1.0,0.0,0.0,0.0,1.0,0.0,0.0,0.0,1.0,2.01219511032,-0.426829278469,-0.18292683363,1.0,0.0,0.0,0.0,1.0,0.0,0.0,0.0,1.0,-0.991199487305,-0.105344873047,-10.2423947021,1.0,0.0,0.0,0.0,1.0,0.0,0.0,0.0,1.0
1463751150524958453,249,1463751150520749252,,3.41969966888,-11.2979059219,45.3979911804,0.0199970006943,1.0,0.0,0.0,0.0,1.0,0.0,0.0,0.0,1.0,2.31707310677,-0.731707334518,-0.0609756112099,1.0,0.0,0.0,0.0,1.0,0.0,0.0,0.0,1.0,-1.01514150391,-0.0814028564453,-10.1274730225,1.0,0.0,0.0,0.0,1.0,0.0,0.0,0.0,1.0
1463751150542254942,250,1463751150540712657,,3.39480209351,-11.1554508209,45.4127883911,0.0200069993734,1.0,0.0,0.0,0.0,1.0,0.0,0.0,0.0,1.0,2.19512200356,-0.304878056049,-0.12195122242,1.0,0.0,0.0,0.0,1.0,0.0,0.0,0.0,1.0,-1.06302561017,-0.0909796630859,-10.1370498291,1.0,0.0,0.0,0.0,1.0,0.0,0.0,0.0,1.0
1463751150562925374,251,1463751150560795383,,3.37478780746,-11.0108203888,45.422039032,0.0199939999729,1.0,0.0,0.0,0.0,1.0,0.0,0.0,0.0,1.0,2.01219511032,-0.426829278469,-0.304878056049,1.0,0.0,0.0,0.0,1.0,0.0,0.0,0.0,1.0,-1.01514150391,-0.15801730957,-10.314220752,1.0,0.0,0.0,0.0,1.0,0.0,0.0,0.0,1.0
1463751150583502526,252,1463751150580791860,,3.34673166275,-10.861073494,45.4346313477,0.019999999553,1.0,0.0,0.0,0.0,1.0,0.0,0.0,0.0,1.0,2.13414645195,-0.18292683363,-0.243902444839,1.0,0.0,0.0,0.0,1.0,0.0,0.0,0.0,1.0,-0.976834277344,-0.0622492431641,-10.2280294922,1.0,0.0,0.0,0.0,1.0,0.0,0.0,0.0,1.0
1463751150602889005,253,1463751150600714171,,3.32957911491,-10.7206525803,45.4478759766,0.0200180001557,1.0,0.0,0.0,0.0,1.0,0.0,0.0,0.0,1.0,2.31707310677,-0.365853667259,-0.12195122242,1.0,0.0,0.0,0.0,1.0,0.0,0.0,0.0,1.0,-0.995987890625,-0.124498486328,-10.165780249,1.0,0.0,0.0,0.0,1.0,0.0,0.0,0.0,1.0
1463751150622903816,254,1463751150620749919,,3.29715132713,-10.5803480148,45.4590835571,0.019991999492,1.0,0.0,0.0,0.0,1.0,0.0,0.0,0.0,1.0,2.01219511032,-0.365853667259,-0.304878056049,1.0,0.0,0.0,0.0,1.0,0.0,0.0,0.0,1.0,-0.972045874023,-0.0335188255255,-10.1753570557,1.0,0.0,0.0,0.0,1.0,0.0,0.0,0.0,1.0
1463751150648271311,255,1463751150641099936,,3.2598028183,-10.4450750351,45.4750404358,0.0202699992806,1.0,0.0,0.0,0.0,1.0,0.0,0.0,0.0,1.0,1.8292683363,-0.548780500889,-0.0609756112099,1.0,0.0,0.0,0.0,1.0,0.0,0.0,0.0,1.0,-0.981622680664,-0.0287304199219,-10.2567599121,1.0,0.0,0.0,0.0,1.0,0.0,0.0,0.0,1.0
1463751150662567969,256,1463751150660935372,,3.23478913307,-10.3165693283,45.488079071,0.0199519991875,1.0,0.0,0.0,0.0,1.0,0.0,0.0,0.0,1.0,2.07317066193,-0.609756112099,-0.12195122242,1.0,0.0,0.0,0.0,1.0,0.0,0.0,0.0,1.0,-0.991199487305,-0.0814028564453,-10.2711251221,1.0,0.0,0.0,0.0,1.0,0.0,0.0,0.0,1.0
1463751150683155381,257,1463751150681150494,,3.21263790131,-10.1906919479,45.4987640381,0.0197780001909,1.0,0.0,0.0,0.0,1.0,0.0,0.0,0.0,1.0,1.95121955872,-0.609756112099,-0.18292683363,1.0,0.0,0.0,0.0,1.0,0.0,0.0,0.0,1.0,-0.976834277344,-0.119710083008,-10.2088758789,1.0,0.0,0.0,0.0,1.0,0.0,0.0,0.0,1.0
1463751150702833422,258,1463751150701003638,,3.17831873894,-10.0676193237,45.5158500671,0.0199979990721,1.0,0.0,0.0,0.0,1.0,0.0,0.0,0.0,1.0,1.8292683363,-0.670731723309,0.0609756112099,1.0,0.0,0.0,0.0,1.0,0.0,0.0,0.0,1.0,-0.972045874023,-0.0383072265625,-10.1466266357,1.0,0.0,0.0,0.0,1.0,0.0,0.0,0.0,1.0
1463751150722942294,259,1463751150721332926,,3.15995740891,-9.92918682098,45.5265960693,0.0201360005885,1.0,0.0,0.0,0.0,1.0,0.0,0.0,0.0,1.0,2.13414645195,-0.426829278469,-0.18292683363,1.0,0.0,0.0,0.0,1.0,0.0,0.0,0.0,1.0,-0.876277807617,-0.114921679688,-10.2567599121,1.0,0.0,0.0,0.0,1.0,0.0,0.0,0.0,1.0
1463751150742686012,260,1463751150741030967,,3.13368821144,-9.80833911896,45.5362281799,0.0198940001428,1.0,0.0,0.0,0.0,1.0,0.0,0.0,0.0,1.0,2.13414645195,-0.304878056049,-0.304878056049,1.0,0.0,0.0,0.0,1.0,0.0,0.0,0.0,1.0,-1.01035310059,-0.0335188255255,-10.1562034424,1.0,0.0,0.0,0.0,1.0,0.0,0.0,0.0,1.0
1463751150762447750,261,1463751150760848226,,3.1047539711,-9.68975925446,45.5508880615,0.0200599990785,1.0,0.0,0.0,0.0,1.0,0.0,0.0,0.0,1.0,2.13414645195,-0.426829278469,-0.0609756112099,1.0,0.0,0.0,0.0,1.0,0.0,0.0,0.0,1.0,-0.995987890625,-0.0143652099609,-10.180145459,1.0,0.0,0.0,0.0,1.0,0.0,0.0,0.0,1.0
1463751150782559695,262,1463751150780744339,,3.08071470261,-9.56961631775,45.5659179688,0.0199050009251,1.0,0.0,0.0,0.0,1.0,0.0,0.0,0.0,1.0,2.13414645195,-0.243902444839,-0.0,1.0,0.0,0.0,0.0,1.0,0.0,0.0,0.0,1.0,-0.981622680664,-0.0526724365234,-10.1466266357,1.0,0.0,0.0,0.0,1.0,0.0,0.0,0.0,1.0
1463751150802901796,263,1463751150801071908,,3.06945514679,-9.46972179413,45.575969696,0.020035000518,1.0,0.0,0.0,0.0,1.0,0.0,0.0,0.0,1.0,2.5,-0.609756112099,-0.18292683363,1.0,0.0,0.0,0.0,1.0,0.0,0.0,0.0,1.0,-1.08217922346,-0.0909796630859,-10.1083194092,1.0,0.0,0.0,0.0,1.0,0.0,0.0,0.0,1.0
1463751150822506660,264,1463751150820940469,,3.05403757095,-9.35715770721,45.5912284851,0.0199619997293,1.0,0.0,0.0,0.0,1.0,0.0,0.0,0.0,1.0,2.37804889679,-0.365853667259,0.0609756112099,1.0,0.0,0.0,0.0,1.0,0.0,0.0,0.0,1.0,-0.991199487305,-0.0814028564453,-10.1418382324,1.0,0.0,0.0,0.0,1.0,0.0,0.0,0.0,1.0
1463751150842427304,265,1463751150840752467,,3.02742433548,-9.248960495,45.6048469543,0.0200239997357,1.0,0.0,0.0,0.0,1.0,0.0,0.0,0.0,1.0,2.13414645195,-0.548780500889,-0.0609756112099,1.0,0.0,0.0,0.0,1.0,0.0,0.0,0.0,1.0,-0.986411083984,-0.0191536132812,-10.1945106689,1.0,0.0,0.0,0.0,1.0,0.0,0.0,0.0,1.0
1463751150862420656,266,1463751150860787694,,3.02020049095,-9.14654636383,45.6086463928,0.0200069993734,1.0,0.0,0.0,0.0,1.0,0.0,0.0,0.0,1.0,2.31707310677,-0.487804889679,-0.426829278469,1.0,0.0,0.0,0.0,1.0,0.0,0.0,0.0,1.0,-1.03429511719,-0.143652099609,-10.1945106689,1.0,0.0,0.0,0.0,1.0,0.0,0.0,0.0,1.0
1463751150882830621,267,1463751150880780682,,2.99302005768,-9.04170417786,45.6196937561,0.0199839994311,1.0,0.0,0.0,0.0,1.0,0.0,0.0,0.0,1.0,2.07317066193,-0.365853667259,-0.18292683363,1.0,0.0,0.0,0.0,1.0,0.0,0.0,0.0,1.0,-1.00077629395,-0.0143652099609,-10.0891657959,1.0,0.0,0.0,0.0,1.0,0.0,0.0,0.0,1.0
1463751150904399591,268,1463751150901365438,,2.97312450409,-8.93603420258,45.6293373108,0.0200020000339,1.0,0.0,0.0,0.0,1.0,0.0,0.0,0.0,1.0,2.01219511032,-0.304878056049,-0.18292683363,1.0,0.0,0.0,0.0,1.0,0.0,0.0,0.0,1.0,-1.00077629395,-0.0861912597656,-10.2280294922,1.0,0.0,0.0,0.0,1.0,0.0,0.0,0.0,1.0
1463751150923602113,269,1463751150921121343,,2.95541071892,-8.83068561554,45.6419029236,0.0200229994953,1.0,0.0,0.0,0.0,1.0,0.0,0.0,0.0,1.0,2.25609779358,-0.12195122242,-0.0609756112099,1.0,0.0,0.0,0.0,1.0,0.0,0.0,0.0,1.0,-1.01992990723,-0.0622492431641,-10.2519715088,1.0,0.0,0.0,0.0,1.0,0.0,0.0,0.0,1.0
1463751150943770100,270,1463751150940814123,,2.93932557106,-8.73633670807,45.6485977173,0.019980000332,1.0,0.0,0.0,0.0,1.0,0.0,0.0,0.0,1.0,2.13414645195,-0.426829278469,-0.304878056049,1.0,0.0,0.0,0.0,1.0,0.0,0.0,0.0,1.0,-1.02950671387,-0.0861912597656,-10.0891657959,1.0,0.0,0.0,0.0,1.0,0.0,0.0,0.0,1.0
1463751150964136263,271,1463751150960800079,,2.9166162014,-8.64275074005,45.6592063904,0.0199979990721,1.0,0.0,0.0,0.0,1.0,0.0,0.0,0.0,1.0,1.95121955872,-0.487804889679,-0.12195122242,1.0,0.0,0.0,0.0,1.0,0.0,0.0,0.0,1.0,-1.01035310059,-0.0622492431641,-10.1178962158,1.0,0.0,0.0,0.0,1.0,0.0,0.0,0.0,1.0
1463751150983269150,272,1463751150980768952,,2.89920020103,-8.54685306549,45.6709480286,0.0200009997934,1.0,0.0,0.0,0.0,1.0,0.0,0.0,0.0,1.0,1.8902438879,-0.670731723309,-0.0,1.0,0.0,0.0,0.0,1.0,0.0,0.0,0.0,1.0,-0.943315454102,-0.119710083008,-10.1609918457,1.0,0.0,0.0,0.0,1.0,0.0,0.0,0.0,1.0
1463751151002809639,273,1463751151001072563,,2.87001752853,-8.45397567749,45.686340332,0.0202879998833,1.0,0.0,0.0,0.0,1.0,0.0,0.0,0.0,1.0,2.01219511032,-0.426829278469,0.0609756112099,1.0,0.0,0.0,0.0,1.0,0.0,0.0,0.0,1.0,-1.01992990723,0.00478840332031,-10.2807019287,1.0,0.0,0.0,0.0,1.0,0.0,0.0,0.0,1.0
1463751151022865387,274,1463751151020887947,,2.85815405846,-8.36977386475,45.6974525452,0.0197250004858,1.0,0.0,0.0,0.0,1.0,0.0,0.0,0.0,1.0,2.31707310677,-0.243902444839,-0.0609756112099,1.0,0.0,0.0,0.0,1.0,0.0,0.0,0.0,1.0,-1.08217922346,-0.0814028564453,-10.1609918457,1.0,0.0,0.0,0.0,1.0,0.0,0.0,0.0,1.0
1463751151042665042,275,1463751151040825102,,2.84829568863,-8.28534030914,45.704158783,0.0199779998511,1.0,0.0,0.0,0.0,1.0,0.0,0.0,0.0,1.0,2.25609779358,-0.609756112099,-0.243902444839,1.0,0.0,0.0,0.0,1.0,0.0,0.0,0.0,1.0,-1.01992990723,-0.105344873047,-10.2567599121,1.0,0.0,0.0,0.0,1.0,0.0,0.0,0.0,1.0
1463751151063013809,276,1463751151061076786,,2.82342934608,-8.19720554352,45.7150917053,0.0199970006943,1.0,0.0,0.0,0.0,1.0,0.0,0.0,0.0,1.0,2.07317066193,-0.365853667259,-0.12195122242,1.0,0.0,0.0,0.0,1.0,0.0,0.0,0.0,1.0,-1.01035310059,-0.00478840332031,-10.2184526855,1.0,0.0,0.0,0.0,1.0,0.0,0.0,0.0,1.0
1463751151082712058,277,1463751151081031492,,2.80317044258,-8.109167099,45.7314758301,0.0200130008161,1.0,0.0,0.0,0.0,1.0,0.0,0.0,0.0,1.0,2.13414645195,-0.365853667259,0.18292683363,1.0,0.0,0.0,0.0,1.0,0.0,0.0,0.0,1.0,-0.986411083984,-0.0383072265625,-10.1466266357,1.0,0.0,0.0,0.0,1.0,0.0,0.0,0.0,1.0
1463751151102521869,278,1463751151100789637,,2.79120278358,-8.01751995087,45.7376251221,0.019980000332,1.0,0.0,0.0,0.0,1.0,0.0,0.0,0.0,1.0,2.37804889679,-0.365853667259,-0.304878056049,1.0,0.0,0.0,0.0,1.0,0.0,0.0,0.0,1.0,-0.943315454102,-0.0526724365234,-10.1705686523,1.0,0.0,0.0,0.0,1.0,0.0,0.0,0.0,1.0
1463751151123408811,279,1463751151120874812,,2.77490258217,-7.93878269196,45.7430953979,0.0200159996748,1.0,0.0,0.0,0.0,1.0,0.0,0.0,0.0,1.0,2.01219511032,-0.548780500889,-0.304878056049,1.0,0.0,0.0,0.0,1.0,0.0,0.0,0.0,1.0,-1.01035310059,-0.076614453125,-10.1514150391,1.0,0.0,0.0,0.0,1.0,0.0,0.0,0.0,1.0
1463751151142377376,280,1463751151140757487,,2.74985218048,-7.85962343216,45.7521209717,0.0200130008161,1.0,0.0,0.0,0.0,1.0,0.0,0.0,0.0,1.0,1.95121955872,-0.365853667259,-0.18292683363,1.0,0.0,0.0,0.0,1.0,0.0,0.0,0.0,1.0,-1.01992990723,-0.00957680664062,-10.1131078125,1.0,0.0,0.0,0.0,1.0,0.0,0.0,0.0,1.0
1463751151162422082,281,1463751151160859276,,2.73362565041,-7.7810049057,45.7593650818,0.0199730005115,1.0,0.0,0.0,0.0,1.0,0.0,0.0,0.0,1.0,2.19512200356,-0.304878056049,-0.243902444839,1.0,0.0,0.0,0.0,1.0,0.0,0.0,0.0,1.0,-1.01992990723,-0.0383072265625,-10.1035310059,1.0,0.0,0.0,0.0,1.0,0.0,0.0,0.0,1.0
1463751151182424809,282,1463751151180848618,,2.71935343742,-7.71022939682,45.7708892822,0.0200229994953,1.0,0.0,0.0,0.0,1.0,0.0,0.0,0.0,1.0,2.07317066193,-0.18292683363,-0.0,1.0,0.0,0.0,0.0,1.0,0.0,0.0,0.0,1.0,-1.11090957031,-0.0814028564453,-10.2184526855,1.0,0.0,0.0,0.0,1.0,0.0,0.0,0.0,1.0
1463751151202707014,283,1463751151201131864,,2.71156930923,-7.64405822754,45.7754592896,0.0200040005147,1.0,0.0,0.0,0.0,1.0,0.0,0.0,0.0,1.0,2.19512200356,-0.487804889679,-0.304878056049,1.0,0.0,0.0,0.0,1.0,0.0,0.0,0.0,1.0,-1.06781401349,-0.105344873047,-10.0412817627,1.0,0.0,0.0,0.0,1.0,0.0,0.0,0.0,1.0
1463751151222773699,284,1463751151221134591,,2.69136714935,-7.56553030014,45.7824707031,0.0199759993702,1.0,0.0,0.0,0.0,1.0,0.0,0.0,0.0,1.0,2.01219511032,-0.365853667259,-0.243902444839,1.0,0.0,0.0,0.0,1.0,0.0,0.0,0.0,1.0,-0.976834277344,-0.0287304199219,-10.1609918457,1.0,0.0,0.0,0.0,1.0,0.0,0.0,0.0,1.0
1463751151242553250,285,1463751151240916850,,2.6783554554,-7.50245046616,45.7885551453,0.0200050007552,1.0,0.0,0.0,0.0,1.0,0.0,0.0,0.0,1.0,2.13414645195,-0.609756112099,-0.243902444839,1.0,0.0,0.0,0.0,1.0,0.0,0.0,0.0,1.0,-1.05823706072,-0.067037651051,-10.1466266357,1.0,0.0,0.0,0.0,1.0,0.0,0.0,0.0,1.0
1463751151263905294,286,1463751151261798063,,2.65646862984,-7.43570899963,45.8011627197,0.0200559999794,1.0,0.0,0.0,0.0,1.0,0.0,0.0,0.0,1.0,1.8292683363,-0.426829278469,0.0609756112099,1.0,0.0,0.0,0.0,1.0,0.0,0.0,0.0,1.0,-1.04866025408,-0.0478840332031,-10.1753570557,1.0,0.0,0.0,0.0,1.0,0.0,0.0,0.0,1.0
1463751151282795005,287,1463751151280812930,,2.64656805992,-7.35988759995,45.8116989136,0.0199379995465,1.0,0.0,0.0,0.0,1.0,0.0,0.0,0.0,1.0,2.07317066193,-0.243902444839,-0.0,1.0,0.0,0.0,0.0,1.0,0.0,0.0,0.0,1.0,-0.981622680664,-0.105344873047,-10.1466266357,1.0,0.0,0.0,0.0,1.0,0.0,0.0,0.0,1.0
1463751151302924658,288,1463751151300980812,,2.63502836227,-7.28561496735,45.8248023987,0.0200599990785,1.0,0.0,0.0,0.0,1.0,0.0,0.0,0.0,1.0,2.07317066193,-0.304878056049,0.12195122242,1.0,0.0,0.0,0.0,1.0,0.0,0.0,0.0,1.0,-0.962469067383,-0.0909796630859,-10.0269165527,1.0,0.0,0.0,0.0,1.0,0.0,0.0,0.0,1.0
1463751151322419575,289,1463751151320750103,,2.62964677811,-7.2222442627,45.8335380554,0.0199379995465,1.0,0.0,0.0,0.0,1.0,0.0,0.0,0.0,1.0,2.13414645195,-0.304878056049,-0.0609756112099,1.0,0.0,0.0,0.0,1.0,0.0,0.0,0.0,1.0,-1.05823706072,-0.129286889648,-10.1562034424,1.0,0.0,0.0,0.0,1.0,0.0,0.0,0.0,1.0
1463751151342397927,290,1463751151340731944,,2.61905550957,-7.1628947258,45.8338699341,0.020005999133,1.0,0.0,0.0,0.0,1.0,0.0,0.0,0.0,1.0,1.95121955872,-0.426829278469,-0.487804889679,1.0,0.0,0.0,0.0,1.0,0.0,0.0,0.0,1.0,-1.07260241682,-0.105344873047,-10.2136642822,1.0,0.0,0.0,0.0,1.0,0.0,0.0,0.0,1.0
1463751151362457737,291,1463751151360906025,,2.61192941666,-7.10253572464,45.8398475647,0.0200100000948,1.0,0.0,0.0,0.0,1.0,0.0,0.0,0.0,1.0,2.01219511032,-0.487804889679,-0.18292683363,1.0,0.0,0.0,0.0,1.0,0.0,0.0,0.0,1.0,-1.02950671387,-0.129286889648,-10.1178962158,1.0,0.0,0.0,0.0,1.0,0.0,0.0,0.0,1.0
1463751151382877962,292,1463751151380856773,,2.59570717812,-7.03322219849,45.8523254395,0.0200120005757,1.0,0.0,0.0,0.0,1.0,0.0,0.0,0.0,1.0,2.25609779358,-0.548780500889,0.0609756112099,1.0,0.0,0.0,0.0,1.0,0.0,0.0,0.0,1.0,-0.938527050781,-0.00957680664062,-10.2711251221,1.0,0.0,0.0,0.0,1.0,0.0,0.0,0.0,1.0
1463751151402732148,293,1463751151400855906,,2.596534729,-6.97103071213,45.8576812744,0.0200030002743,1.0,0.0,0.0,0.0,1.0,0.0,0.0,0.0,1.0,2.19512200356,-0.487804889679,-0.18292683363,1.0,0.0,0.0,0.0,1.0,0.0,0.0,0.0,1.0,-0.986411083984,-0.162805712891,-10.0843773926,1.0,0.0,0.0,0.0,1.0,0.0,0.0,0.0,1.0
1463751151422530918,294,1463751151420849831,,2.59190487862,-6.90636444092,45.8674049377,0.0199730005115,1.0,0.0,0.0,0.0,1.0,0.0,0.0,0.0,1.0,2.19512200356,-0.365853667259,-0.0,1.0,0.0,0.0,0.0,1.0,0.0,0.0,0.0,1.0,-0.981622680664,-0.119710083008,-10.180145459,1.0,0.0,0.0,0.0,1.0,0.0,0.0,0.0,1.0
1463751151442661613,295,1463751151441074068,,2.58200979233,-6.85676622391,45.8697433472,0.0199929997325,1.0,0.0,0.0,0.0,1.0,0.0,0.0,0.0,1.0,2.01219511032,-0.670731723309,-0.365853667259,1.0,0.0,0.0,0.0,1.0,0.0,0.0,0.0,1.0,-1.0534486574,-0.0957680664062,-10.165780249,1.0,0.0,0.0,0.0,1.0,0.0,0.0,0.0,1.0
1463751151462627152,296,1463751151461065076,,2.57801675797,-6.80175495148,45.8777694702,0.020021000877,1.0,0.0,0.0,0.0,1.0,0.0,0.0,0.0,1.0,2.07317066193,-0.426829278469,-0.0609756112099,1.0,0.0,0.0,0.0,1.0,0.0,0.0,0.0,1.0,-1.04387185076,-0.143652099609,-10.2232410889,1.0,0.0,0.0,0.0,1.0,0.0,0.0,0.0,1.0
1463751151482732431,297,1463751151480753065,,2.56867289543,-6.74832582474,45.8804740906,0.0199929997325,1.0,0.0,0.0,0.0,1.0,0.0,0.0,0.0,1.0,2.13414645195,-0.426829278469,-0.365853667259,1.0,0.0,0.0,0.0,1.0,0.0,0.0,0.0,1.0,-1.04387185076,-0.076614453125,-10.165780249,1.0,0.0,0.0,0.0,1.0,0.0,0.0,0.0,1.0
1463751151502783075,298,1463751151500791781,,2.55022668839,-6.68814229965,45.8881797791,0.0200229994953,1.0,0.0,0.0,0.0,1.0,0.0,0.0,0.0,1.0,2.25609779358,-0.365853667259,-0.18292683363,1.0,0.0,0.0,0.0,1.0,0.0,0.0,0.0,1.0,-0.976834277344,0.0239420166016,-10.1035310059,1.0,0.0,0.0,0.0,1.0,0.0,0.0,0.0,1.0
1463751151522720958,299,1463751151521152684,,2.54105687141,-6.63259744644,45.896446228,0.0199820008129,1.0,0.0,0.0,0.0,1.0,0.0,0.0,0.0,1.0,2.07317066193,-0.670731723309,-0.0609756112099,1.0,0.0,0.0,0.0,1.0,0.0,0.0,0.0,1.0,-0.962469067383,-0.0909796630859,-10.2184526855,1.0,0.0,0.0,0.0,1.0,0.0,0.0,0.0,1.0
1463751151542484676,300,1463751151540793433,,2.52837014198,-6.58158159256,45.9002037048,0.0199979990721,1.0,0.0,0.0,0.0,1.0,0.0,0.0,0.0,1.0,2.01219511032,-0.548780500889,-0.304878056049,1.0,0.0,0.0,0.0,1.0,0.0,0.0,0.0,1.0,-1.00077629395,-0.0622492431641,-10.046070166,1.0,0.0,0.0,0.0,1.0,0.0,0.0,0.0,1.0
1463751151564439061,301,1463751151560913399,,2.52211046219,-6.51597356796,45.9040756226,0.0200180001557,1.0,0.0,0.0,0.0,1.0,0.0,0.0,0.0,1.0,2.25609779358,-0.18292683363,-0.304878056049,1.0,0.0,0.0,0.0,1.0,0.0,0.0,0.0,1.0,-0.952892260742,-0.076614453125,-10.3237975586,1.0,0.0,0.0,0.0,1.0,0.0,0.0,0.0,1.0
1463751151582736951,302,1463751151580786283,,2.51162433624,-6.46934223175,45.9091148376,0.0199759993702,1.0,0.0,0.0,0.0,1.0,0.0,0.0,0.0,1.0,2.19512200356,-0.548780500889,-0.243902444839,1.0,0.0,0.0,0.0,1.0,0.0,0.0,0.0,1.0,-1.03429511719,-0.0478840332031,-10.2040874756,1.0,0.0,0.0,0.0,1.0,0.0,0.0,0.0,1.0
1463751151602485044,303,1463751151600885311,,2.50671648979,-6.41990852356,45.9150428772,0.0200040005147,1.0,0.0,0.0,0.0,1.0,0.0,0.0,0.0,1.0,2.25609779358,-0.304878056049,-0.18292683363,1.0,0.0,0.0,0.0,1.0,0.0,0.0,0.0,1.0,-1.03908344744,-0.0861912597656,-10.1466266357,1.0,0.0,0.0,0.0,1.0,0.0,0.0,0.0,1.0
1463751151622480271,304,1463751151620883715,,2.4992415905,-6.38147926331,45.9264945984,0.0199970006943,1.0,0.0,0.0,0.0,1.0,0.0,0.0,0.0,1.0,2.07317066193,-0.731707334518,0.12195122242,1.0,0.0,0.0,0.0,1.0,0.0,0.0,0.0,1.0,-1.04866025408,-0.100556469727,-10.1322614258,1.0,0.0,0.0,0.0,1.0,0.0,0.0,0.0,1.0
1463751151642427373,305,1463751151640831182,,2.48870563507,-6.33344507217,45.9308547974,0.0200330000371,1.0,0.0,0.0,0.0,1.0,0.0,0.0,0.0,1.0,2.01219511032,-0.731707334518,-0.243902444839,1.0,0.0,0.0,0.0,1.0,0.0,0.0,0.0,1.0,-0.967257470703,-0.076614453125,-10.2232410889,1.0,0.0,0.0,0.0,1.0,0.0,0.0,0.0,1.0
1463751151663577179,306,1463751151661175210,,2.48508095741,-6.28490829468,45.935508728,0.0200079996139,1.0,0.0,0.0,0.0,1.0,0.0,0.0,0.0,1.0,2.31707310677,-0.243902444839,-0.243902444839,1.0,0.0,0.0,0.0,1.0,0.0,0.0,0.0,1.0,-1.03429511719,-0.0814028564453,-10.1466266357,1.0,0.0,0.0,0.0,1.0,0.0,0.0,0.0,1.0
1463751151683546312,307,1463751151680911636,,2.47394704819,-6.23143434525,45.9384346008,0.0200869999826,1.0,0.0,0.0,0.0,1.0,0.0,0.0,0.0,1.0,2.19512200356,-0.0609756112099,-0.365853667259,1.0,0.0,0.0,0.0,1.0,0.0,0.0,0.0,1.0,-1.01514150391,-0.0335188255255,-10.1322614258,1.0,0.0,0.0,0.0,1.0,0.0,0.0,0.0,1.0
1463751151703118833,308,1463751151700762020,,2.46781945229,-6.19989871979,45.9500541687,0.0198730006814,1.0,0.0,0.0,0.0,1.0,0.0,0.0,0.0,1.0,2.31707310677,-0.731707334518,0.12195122242,1.0,0.0,0.0,0.0,1.0,0.0,0.0,0.0,1.0,-1.07260241682,-0.0622492431641,-10.1083194092,1.0,0.0,0.0,0.0,1.0,0.0,0.0,0.0,1.0
1463751151722445312,309,1463751151720784434,,2.45900011063,-6.1524438858,45.9587745667,0.0199979990721,1.0,0.0,0.0,0.0,1.0,0.0,0.0,0.0,1.0,2.37804889679,-0.426829278469,-0.0609756112099,1.0,0.0,0.0,0.0,1.0,0.0,0.0,0.0,1.0,-0.991199487305,-0.0239420166016,-10.2088758789,1.0,0.0,0.0,0.0,1.0,0.0,0.0,0.0,1.0
1463751151742522414,310,1463751151740747422,,2.45696616173,-6.10914468765,45.9603691101,0.0199989993125,1.0,0.0,0.0,0.0,1.0,0.0,0.0,0.0,1.0,2.19512200356,-0.304878056049,-0.365853667259,1.0,0.0,0.0,0.0,1.0,0.0,0.0,0.0,1.0,-1.04387185076,-0.110133276367,-10.1945106689,1.0,0.0,0.0,0.0,1.0,0.0,0.0,0.0,1.0
1463751151762468996,311,1463751151760771399,,2.46146035194,-6.0563454628,45.9665031433,0.0199989993125,1.0,0.0,0.0,0.0,1.0,0.0,0.0,0.0,1.0,2.43902444839,-0.426829278469,-0.12195122242,1.0,0.0,0.0,0.0,1.0,0.0,0.0,0.0,1.0,-0.92416184082,-0.129286889648,-10.1753570557,1.0,0.0,0.0,0.0,1.0,0.0,0.0,0.0,1.0
1463751151783071772,312,1463751151781016052,,2.45909190178,-6.01607513428,45.9752883911,0.0199909992516,1.0,0.0,0.0,0.0,1.0,0.0,0.0,0.0,1.0,2.19512200356,-0.365853667259,-0.0,1.0,0.0,0.0,0.0,1.0,0.0,0.0,0.0,1.0,-1.04387185076,-0.114921679688,-10.2328178955,1.0,0.0,0.0,0.0,1.0,0.0,0.0,0.0,1.0
1463751151802522366,313,1463751151800799977,,2.45513868332,-5.98654651642,45.982875824,0.0200139991939,1.0,0.0,0.0,0.0,1.0,0.0,0.0,0.0,1.0,2.13414645195,-0.365853667259,-0.0609756112099,1.0,0.0,0.0,0.0,1.0,0.0,0.0,0.0,1.0,-1.13963999023,-0.110133276367,-10.2711251221,1.0,0.0,0.0,0.0,1.0,0.0,0.0,0.0,1.0
1463751151822770092,314,1463751151820781819,,2.44735646248,-5.94975233078,45.9884262085,0.0199950002134,1.0,0.0,0.0,0.0,1.0,0.0,0.0,0.0,1.0,2.13414645195,-0.365853667259,-0.18292683363,1.0,0.0,0.0,0.0,1.0,0.0,0.0,0.0,1.0,-1.05823706072,-0.0718260498047,-10.1753570557,1.0,0.0,0.0,0.0,1.0,0.0,0.0,0.0,1.0
1463751151842465164,315,1463751151840775484,,2.43625497818,-5.9163351059,45.9953079224,0.0199909992516,1.0,0.0,0.0,0.0,1.0,0.0,0.0,0.0,1.0,2.07317066193,-0.426829278469,-0.12195122242,1.0,0.0,0.0,0.0,1.0,0.0,0.0,0.0,1.0,-1.07260241682,-0.0526724365234,-10.1945106689,1.0,0.0,0.0,0.0,1.0,0.0,0.0,0.0,1.0
1463751151862872525,316,1463751151860802273,,2.42874145508,-5.87405776978,46.0034217834,0.0200009997934,1.0,0.0,0.0,0.0,1.0,0.0,0.0,0.0,1.0,2.19512200356,-0.243902444839,-0.0609756112099,1.0,0.0,0.0,0.0,1.0,0.0,0.0,0.0,1.0,-1.01514150391,-0.0622492431641,-10.1562034424,1.0,0.0,0.0,0.0,1.0,0.0,0.0,0.0,1.0
1463751151883086292,317,1463751151881015312,,2.41798186302,-5.831346035,46.0128440857,0.0200200006366,1.0,0.0,0.0,0.0,1.0,0.0,0.0,0.0,1.0,2.19512200356,-0.487804889679,-0.0,1.0,0.0,0.0,0.0,1.0,0.0,0.0,0.0,1.0,-0.972045874023,-0.0335188255255,-10.2902787354,1.0,0.0,0.0,0.0,1.0,0.0,0.0,0.0,1.0
1463751151902647667,318,1463751151900878195,,2.40613293648,-5.7882027626,46.0220298767,0.0199939999729,1.0,0.0,0.0,0.0,1.0,0.0,0.0,0.0,1.0,2.07317066193,-0.548780500889,-0.0,1.0,0.0,0.0,0.0,1.0,0.0,0.0,0.0,1.0,-0.938527050781,-0.0430956298828,-10.180145459,1.0,0.0,0.0,0.0,1.0,0.0,0.0,0.0,1.0
1463751151922685550,319,1463751151920988474,,2.40929222107,-5.74776649475,46.0236282349,0.0201799999923,1.0,0.0,0.0,0.0,1.0,0.0,0.0,0.0,1.0,2.01219511032,-0.365853667259,-0.304878056049,1.0,0.0,0.0,0.0,1.0,0.0,0.0,0.0,1.0,-1.00077629395,-0.181959326172,-10.2423947021,1.0,0.0,0.0,0.0,1.0,0.0,0.0,0.0,1.0
1463751151942436976,320,1463751151940719640,,2.39945363998,-5.69962406158,46.0290641785,0.019803000614,1.0,0.0,0.0,0.0,1.0,0.0,0.0,0.0,1.0,2.19512200356,-0.609756112099,-0.18292683363,1.0,0.0,0.0,0.0,1.0,0.0,0.0,0.0,1.0,-0.861912597656,-0.0335188255255,-10.1514150391,1.0,0.0,0.0,0.0,1.0,0.0,0.0,0.0,1.0
1463751151962788035,321,1463751151960782627,,2.38917160034,-5.66411399841,46.0369186401,0.0200200006366,1.0,0.0,0.0,0.0,1.0,0.0,0.0,0.0,1.0,2.07317066193,-0.365853667259,-0.0609756112099,1.0,0.0,0.0,0.0,1.0,0.0,0.0,0.0,1.0,-1.01992990723,-0.0526724365234,-10.1992990723,1.0,0.0,0.0,0.0,1.0,0.0,0.0,0.0,1.0
1463751151983143365,322,1463751151981124102,,2.36654067039,-5.62674379349,46.0473098755,0.0200929995626,1.0,0.0,0.0,0.0,1.0,0.0,0.0,0.0,1.0,2.01219511032,-0.12195122242,-0.0,1.0,0.0,0.0,0.0,1.0,0.0,0.0,0.0,1.0,-1.0534486574,0.0478840332031,-10.3190091553,1.0,0.0,0.0,0.0,1.0,0.0,0.0,0.0,1.0
1463751152002410522,323,1463751152000750321,,2.34606695175,-5.59368038177,46.0557785034,0.0199180003256,1.0,0.0,0.0,0.0,1.0,0.0,0.0,0.0,1.0,1.95121955872,-0.426829278469,-0.0609756112099,1.0,0.0,0.0,0.0,1.0,0.0,0.0,0.0,1.0,-1.01035310059,0.0239420166016,-10.1418382324,1.0,0.0,0.0,0.0,1.0,0.0,0.0,0.0,1.0
1463751152022412103,324,1463751152020751485,,2.34232115746,-5.55637407303,46.0607147217,0.0199810005724,1.0,0.0,0.0,0.0,1.0,0.0,0.0,0.0,1.0,2.25609779358,-0.487804889679,-0.18292683363,1.0,0.0,0.0,0.0,1.0,0.0,0.0,0.0,1.0,-0.967257470703,-0.067037651051,-10.2471831055,1.0,0.0,0.0,0.0,1.0,0.0,0.0,0.0,1.0
1463751152042473528,325,1463751152040760045,,2.34226536751,-5.53109169006,46.0725364685,0.0200050007552,1.0,0.0,0.0,0.0,1.0,0.0,0.0,0.0,1.0,2.25609779358,-0.487804889679,0.18292683363,1.0,0.0,0.0,0.0,1.0,0.0,0.0,0.0,1.0,-1.06302561017,-0.105344873047,-10.1992990723,1.0,0.0,0.0,0.0,1.0,0.0,0.0,0.0,1.0
1463751152062699014,326,1463751152060742043,,2.3300178051,-5.49316072464,46.0756950378,0.0200020000339,1.0,0.0,0.0,0.0,1.0,0.0,0.0,0.0,1.0,2.13414645195,-0.365853667259,-0.304878056049,1.0,0.0,0.0,0.0,1.0,0.0,0.0,0.0,1.0,-0.981622680664,-0.00957680664062,-10.3333743652,1.0,0.0,0.0,0.0,1.0,0.0,0.0,0.0,1.0
1463751152082974084,327,1463751152080996644,,2.32945728302,-5.45080804825,46.0829124451,0.0200009997934,1.0,0.0,0.0,0.0,1.0,0.0,0.0,0.0,1.0,2.19512200356,-0.0609756112099,-0.0609756112099,1.0,0.0,0.0,0.0,1.0,0.0,0.0,0.0,1.0,-0.972045874023,-0.105344873047,-10.1609918457,1.0,0.0,0.0,0.0,1.0,0.0,0.0,0.0,1.0
1463751152102501604,328,1463751152100773851,,2.32228398323,-5.43260812759,46.0954246521,0.0199810005724,1.0,0.0,0.0,0.0,1.0,0.0,0.0,0.0,1.0,2.25609779358,-0.365853667259,0.18292683363,1.0,0.0,0.0,0.0,1.0,0.0,0.0,0.0,1.0,-1.12527478027,-0.0383072265625,-10.1562034424,1.0,0.0,0.0,0.0,1.0,0.0,0.0,0.0,1.0
1463751152122978340,329,1463751152121021317,,2.31755495071,-5.40332984924,46.0990257263,0.0201089996845,1.0,0.0,0.0,0.0,1.0,0.0,0.0,0.0,1.0,2.19512200356,-0.487804889679,-0.243902444839,1.0,0.0,0.0,0.0,1.0,0.0,0.0,0.0,1.0,-0.991199487305,-0.0622492431641,-10.0221281494,1.0,0.0,0.0,0.0,1.0,0.0,0.0,0.0,1.0
1463751152142515912,330,1463751152140761337,,2.31073784828,-5.36386013031,46.1078491211,0.0199030004442,1.0,0.0,0.0,0.0,1.0,0.0,0.0,0.0,1.0,2.19512200356,-0.18292683363,-0.0,1.0,0.0,0.0,0.0,1.0,0.0,0.0,0.0,1.0,-0.962469067383,-0.0478840332031,-10.2136642822,1.0,0.0,0.0,0.0,1.0,0.0,0.0,0.0,1.0
1463751152162724263,331,1463751152160727241,,2.29882335663,-5.32989835739,46.1143989563,0.0199939999729,1.0,0.0,0.0,0.0,1.0,0.0,0.0,0.0,1.0,2.13414645195,-0.426829278469,-0.12195122242,1.0,0.0,0.0,0.0,1.0,0.0,0.0,0.0,1.0,-0.957680664062,-0.00957680664062,-10.1514150391,1.0,0.0,0.0,0.0,1.0,0.0,0.0,0.0,1.0
1463751152182890531,332,1463751152180742780,,2.30431103706,-5.29273414612,46.1136016846,0.0199960004538,1.0,0.0,0.0,0.0,1.0,0.0,0.0,0.0,1.0,2.19512200356,-0.12195122242,-0.426829278469,1.0,0.0,0.0,0.0,1.0,0.0,0.0,0.0,1.0,-0.986411083984,-0.148440512063,-10.2136642822,1.0,0.0,0.0,0.0,1.0,0.0,0.0,0.0,1.0
1463751152202428417,333,1463751152200763528,,2.29692435265,-5.26374149323,46.1192893982,0.019999999553,1.0,0.0,0.0,0.0,1.0,0.0,0.0,0.0,1.0,1.95121955872,-0.487804889679,-0.12195122242,1.0,0.0,0.0,0.0,1.0,0.0,0.0,0.0,1.0,-0.976834277344,-0.0814028564453,-10.1274730225,1.0,0.0,0.0,0.0,1.0,0.0,0.0,0.0,1.0
1463751152222941037,334,1463751152220801411,,2.29353141785,-5.23736858368,46.1238212585,0.0200309995562,1.0,0.0,0.0,0.0,1.0,0.0,0.0,0.0,1.0,2.13414645195,-0.365853667259,-0.18292683363,1.0,0.0,0.0,0.0,1.0,0.0,0.0,0.0,1.0,-1.01035310059,-0.0814028564453,-10.0508585693,1.0,0.0,0.0,0.0,1.0,0.0,0.0,0.0,1.0
1463751152242775275,335,1463751152240767471,,2.27546429634,-5.21457004547,46.1311531067,0.0199699997902,1.0,0.0,0.0,0.0,1.0,0.0,0.0,0.0,1.0,2.25609779358,-0.304878056049,-0.12195122242,1.0,0.0,0.0,0.0,1.0,0.0,0.0,0.0,1.0,-1.06781401349,0.0718260498047,-10.2519715088,1.0,0.0,0.0,0.0,1.0,0.0,0.0,0.0,1.0
1463751152263133990,336,1463751152260755980,,2.27036428452,-5.19821834564,46.1367301941,0.019999999553,1.0,0.0,0.0,0.0,1.0,0.0,0.0,0.0,1.0,2.19512200356,-0.853658556938,-0.12195122242,1.0,0.0,0.0,0.0,1.0,0.0,0.0,0.0,1.0,-1.01035310059,-0.0526724365234,-10.1226846191,1.0,0.0,0.0,0.0,1.0,0.0,0.0,0.0,1.0
1463751152282850833,337,1463751152280758394,,2.27616834641,-5.17055702209,46.1408615112,0.0200180001557,1.0,0.0,0.0,0.0,1.0,0.0,0.0,0.0,1.0,2.43902444839,-0.426829278469,-0.18292683363,1.0,0.0,0.0,0.0,1.0,0.0,0.0,0.0,1.0,-0.986411083984,-0.105344873047,-10.1562034424,1.0,0.0,0.0,0.0,1.0,0.0,0.0,0.0,1.0
1463751152302768613,338,1463751152300719715,,2.26059436798,-5.14800357819,46.1471748352,0.0199839994311,1.0,0.0,0.0,0.0,1.0,0.0,0.0,0.0,1.0,2.07317066193,-0.792682945728,-0.12195122242,1.0,0.0,0.0,0.0,1.0,0.0,0.0,0.0,1.0,-0.972045874023,0.0191536132812,-10.2807019287,1.0,0.0,0.0,0.0,1.0,0.0,0.0,0.0,1.0
1463751152323292692,339,1463751152320836712,,2.19696259499,-5.08442115784,46.1573257446,0.0200159996748,1.0,0.0,0.0,0.0,1.0,0.0,0.0,0.0,1.0,10.8536586761,1.58536589146,-1.03658533096,1.0,0.0,0.0,0.0,1.0,0.0,0.0,0.0,1.0,-0.962469067383,1.98239897461,-9.61511445171,1.0,0.0,0.0,0.0,1.0,0.0,0.0,0.0,1.0
1463751152342839743,340,1463751152340780638,,2.14287853241,-4.85213947296,46.0934791565,0.0199939999729,1.0,0.0,0.0,0.0,1.0,0.0,0.0,0.0,1.0,13.3536586761,5.42682933807,-5.06097555161,1.0,0.0,0.0,0.0,1.0,0.0,0.0,0.0,1.0,-0.15801730957,2.26012636719,-8.99740983887,1.0,0.0,0.0,0.0,1.0,0.0,0.0,0.0,1.0
1463751152362215077,341,1463751152360788990,,2.50626683235,-4.46640634537,46.1141090393,0.0199939999729,1.0,0.0,0.0,0.0,1.0,0.0,0.0,0.0,1.0,24.3292694092,14.4512205124,-0.304878056049,1.0,0.0,0.0,0.0,1.0,0.0,0.0,0.0,1.0,-0.387860668945,0.651222851562,-10.5967365479,1.0,0.0,0.0,0.0,1.0,0.0,0.0,0.0,1.0
1463751152382460720,342,1463751152380724008,,2.75328564644,-4.21595716476,46.3566589355,0.0199960004538,1.0,0.0,0.0,0.0,1.0,0.0,0.0,0.0,1.0,16.341463089,7.43902492523,11.2804880142,1.0,0.0,0.0,0.0,1.0,0.0,0.0,0.0,1.0,-0.181959326172,0.0191536132812,-11.01811604,1.0,0.0,0.0,0.0,1.0,0.0,0.0,0.0,1.0
1463751152402671415,343,1463751152400988557,,3.04259181023,-4.15305995941,46.7707977295,0.0200139991939,1.0,0.0,0.0,0.0,1.0,0.0,0.0,0.0,1.0,5.48780488968,1.8902438879,21.0975627899,1.0,0.0,0.0,0.0,1.0,0.0,0.0,0.0,1.0,-0.723048901367,-2.52827695312,-10.165780249,1.0,0.0,0.0,0.0,1.0,0.0,0.0,0.0,1.0
1463751152422490184,344,1463751152420769619,,3.11658740044,-3.96111869812,47.1722297668,0.0199870001525,1.0,0.0,0.0,0.0,1.0,0.0,0.0,0.0,1.0,7.50000047684,-0.12195122242,19.6341457367,1.0,0.0,0.0,0.0,1.0,0.0,0.0,0.0,1.0,0.962469067383,-0.234631762695,-11.884817041,1.0,0.0,0.0,0.0,1.0,0.0,0.0,0.0,1.0
1463751152442497651,345,1463751152440842085,,3.03649663925,-4.15629577637,47.419960022,0.0200159996748,1.0,0.0,0.0,0.0,1.0,0.0,0.0,0.0,1.0,2.01219511032,-9.39024448395,12.2560977936,1.0,0.0,0.0,0.0,1.0,0.0,0.0,0.0,1.0,-1.19231249982,0.330399829102,-11.6789156982,1.0,0.0,0.0,0.0,1.0,0.0,0.0,0.0,1.0
1463751152462503867,346,1463751152460822937,,3.42310452461,-4.25542497635,47.5823478699,0.0200050007552,1.0,0.0,0.0,0.0,1.0,0.0,0.0,0.0,1.0,18.9634151459,-6.52439069748,8.29268264771,1.0,0.0,0.0,0.0,1.0,0.0,0.0,0.0,1.0,-0.684741674805,-0.723048901367,-9.14106193848,1.0,0.0,0.0,0.0,1.0,0.0,0.0,0.0,1.0
1463751152482471230,347,1463751152480734414,,3.71818399429,-4.21712303162,47.7746353149,0.0199870001525,1.0,0.0,0.0,0.0,1.0,0.0,0.0,0.0,1.0,7.62195110321,1.8902438879,9.81707286835,1.0,0.0,0.0,0.0,1.0,0.0,0.0,0.0,1.0,-1.02950671387,-2.13083962367,-10.060435376,1.0,0.0,0.0,0.0,1.0,0.0,0.0,0.0,1.0
1463751152502485988,348,1463751152500800735,,3.37346863747,-4.39635562897,48.090259552,0.020035000518,1.0,0.0,0.0,0.0,1.0,0.0,0.0,0.0,1.0,-27.8048782349,-6.0365858078,16.7073173523,1.0,0.0,0.0,0.0,1.0,0.0,0.0,0.0,1.0,-1.70467158203,-3.34230551758,-11.3676694824,1.0,0.0,0.0,0.0,1.0,0.0,0.0,0.0,1.0
1463751152522554183,349,1463751152520814660,,2.60389113426,-4.75615549088,48.1864585876,0.0199720002711,1.0,0.0,0.0,0.0,1.0,0.0,0.0,0.0,1.0,-33.1097564697,-20.3658542633,5.24390268326,1.0,0.0,0.0,0.0,1.0,0.0,0.0,0.0,1.0,-0.756567724609,0.244208569336,-10.9893856201,1.0,0.0,0.0,0.0,1.0,0.0,0.0,0.0,1.0
1463751152542550712,350,1463751152540804470,,2.42453813553,-5.07729911804,48.0202293396,0.019999999553,1.0,0.0,0.0,0.0,1.0,0.0,0.0,0.0,1.0,-17.6219520569,-18.7804889679,-7.01219511032,1.0,0.0,0.0,0.0,1.0,0.0,0.0,0.0,1.0,-0.823605371094,-2.04943662109,-10.3573163818,1.0,0.0,0.0,0.0,1.0,0.0,0.0,0.0,1.0
1463751152562611408,351,1463751152560906519,,2.14853024483,-5.49311828613,47.8718490601,0.020005999133,1.0,0.0,0.0,0.0,1.0,0.0,0.0,0.0,1.0,-6.15853643417,-19.6951236725,-7.56097555161,1.0,0.0,0.0,0.0,1.0,0.0,0.0,0.0,1.0,-1.58974990234,1.02950671387,-10.4147772217,1.0,0.0,0.0,0.0,1.0,0.0,0.0,0.0,1.0
1463751152582479448,352,1463751152580732164,,2.21234226227,-5.90863609314,47.897567749,0.019980000332,1.0,0.0,0.0,0.0,1.0,0.0,0.0,0.0,1.0,16.2804889679,-22.0731716156,0.670731723309,1.0,0.0,0.0,0.0,1.0,0.0,0.0,0.0,1.0,-1.17315874041,1.98718737793,-10.5344873047,1.0,0.0,0.0,0.0,1.0,0.0,0.0,0.0,1.0
1463751152601917125,353,1463751152600753380,,2.18298363686,-6.26521062851,48.5568161011,0.0200139991939,1.0,0.0,0.0,0.0,1.0,0.0,0.0,0.0,1.0,13.4756097794,-21.2804889679,32.1951217651,1.0,0.0,0.0,0.0,1.0,0.0,0.0,0.0,1.0,-0.569819995117,1.57059628906,-9.91199487305,1.0,0.0,0.0,0.0,1.0,0.0,0.0,0.0,1.0
1463751152621943446,354,1463751152620717774,,2.74428582191,-6.66714000702,49.698223114,0.0199829991907,1.0,0.0,0.0,0.0,1.0,0.0,0.0,0.0,1.0,28.475610733,-21.4024391174,58.1707344055,1.0,0.0,0.0,0.0,1.0,0.0,0.0,0.0,1.0,-0.837970581055,-1.60890351563,-10.2807019287,1.0,0.0,0.0,0.0,1.0,0.0,0.0,0.0,1.0
1463751152642830961,355,1463751152640766386,,2.79064130783,-7.15806341171,51.4083175659,0.0200040005147,1.0,0.0,0.0,0.0,1.0,0.0,0.0,0.0,1.0,22.1341457367,-25.1219520569,84.8170776367,1.0,0.0,0.0,0.0,1.0,0.0,0.0,0.0,1.0,-0.809240161133,1.28329208984,-11.3006318359,1.0,0.0,0.0,0.0,1.0,0.0,0.0,0.0,1.0
1463751152663033739,356,1463751152660711405,,2.8446598053,-7.81155109406,53.7351570129,0.0199970006943,1.0,0.0,0.0,0.0,1.0,0.0,0.0,0.0,1.0,29.4512195587,-30.7317066193,115.304878235,1.0,0.0,0.0,0.0,1.0,0.0,0.0,0.0,1.0,-1.07739082014,1.67594116211,-11.0947304932,1.0,0.0,0.0,0.0,1.0,0.0,0.0,0.0,1.0
1463751152682842613,357,1463751152680850590,,3.0129544735,-8.63122463226,56.6653289795,0.0200069993734,1.0,0.0,0.0,0.0,1.0,0.0,0.0,0.0,1.0,39.390247345,-34.0853691101,145.243911743,1.0,0.0,0.0,0.0,1.0,0.0,0.0,0.0,1.0,-1.9105729248,1.40779057617,-11.4634375488,1.0,0.0,0.0,0.0,1.0,0.0,0.0,0.0,1.0
1463751152704823612,358,1463751152700868838,,3.26216077805,-9.51939868927,60.236946106,0.0199950002134,1.0,0.0,0.0,0.0,1.0,0.0,0.0,0.0,1.0,52.317073822,-31.7073192596,176.341461182,1.0,0.0,0.0,0.0,1.0,0.0,0.0,0.0,1.0,-2.88261879883,1.78607443848,-11.6023012451,1.0,0.0,0.0,0.0,1.0,0.0,0.0,0.0,1.0
1463751152724836652,359,1463751152720757086,,3.64298248291,-10.3869009018,64.4569396973,0.0200079996139,1.0,0.0,0.0,0.0,1.0,0.0,0.0,0.0,1.0,65.8536605835,-24.3902435303,207.560974121,1.0,0.0,0.0,0.0,1.0,0.0,0.0,0.0,1.0,-3.83551105957,1.48919343262,-11.5927244385,1.0,0.0,0.0,0.0,1.0,0.0,0.0,0.0,1.0
1463751152742535691,360,1463751152740725282,,3.99545502663,-11.1440973282,69.3545303345,0.0199909992516,1.0,0.0,0.0,0.0,1.0,0.0,0.0,0.0,1.0,73.7195129395,-14.3902444839,239.939041138,1.0,0.0,0.0,0.0,1.0,0.0,0.0,0.0,1.0,-4.21858303293,1.41257897949,-11.4682259521,1.0,0.0,0.0,0.0,1.0,0.0,0.0,0.0,1.0
1463751152762335710,361,1463751152760717176,,4.36182498932,-11.7699193954,74.9217987061,0.0199950002134,1.0,0.0,0.0,0.0,1.0,0.0,0.0,0.0,1.0,79.9390258789,-3.90243911743,272.256103516,1.0,0.0,0.0,0.0,1.0,0.0,0.0,0.0,1.0,-4.20421782297,0.430956298828,-10.9798088135,1.0,0.0,0.0,0.0,1.0,0.0,0.0,0.0,1.0
1463751152783289944,362,1463751152781144744,,4.57738113403,-12.3161382675,81.1740493774,0.0200859997422,1.0,0.0,0.0,0.0,1.0,0.0,0.0,0.0,1.0,81.8902435303,3.41463422775,303.292694092,1.0,0.0,0.0,0.0,1.0,0.0,0.0,0.0,1.0,-3.91691391602,0.316034619141,-10.2423947021,1.0,0.0,0.0,0.0,1.0,0.0,0.0,0.0,1.0
1463751152802430591,363,1463751152800812890,,4.65101861954,-12.8082752228,87.9095840454,0.0199309997261,1.0,0.0,0.0,0.0,1.0,0.0,0.0,0.0,1.0,82.4390258789,9.75609779358,328.353668213,1.0,0.0,0.0,0.0,1.0,0.0,0.0,0.0,1.0,-3.92649072266,0.0909796630859,-9.46188437642,1.0,0.0,0.0,0.0,1.0,0.0,0.0,0.0,1.0
1463751152825143150,364,1463751152820753013,,4.61276674271,-13.2312688828,95.1338424683,0.0199979990721,1.0,0.0,0.0,0.0,1.0,0.0,0.0,0.0,1.0,86.5243911743,14.3292694092,349.512207031,1.0,0.0,0.0,0.0,1.0,0.0,0.0,0.0,1.0,-3.68228215332,0.402225878906,-9.03092866211,1.0,0.0,0.0,0.0,1.0,0.0,0.0,0.0,1.0
1463751152842700315,365,1463751152840727511,,4.47319173813,-13.6178236008,102.748451233,0.0199970006943,1.0,0.0,0.0,0.0,1.0,0.0,0.0,0.0,1.0,85.7926864624,16.5243911743,368.231719971,1.0,0.0,0.0,0.0,1.0,0.0,0.0,0.0,1.0,-3.47159240723,-0.0622492431641,-8.57124252788,1.0,0.0,0.0,0.0,1.0,0.0,0.0,0.0,1.0
1463751152862371637,366,1463751152860737113,,4.21131277084,-13.9961690903,110.712882996,0.0199960004538,1.0,0.0,0.0,0.0,1.0,0.0,0.0,0.0,1.0,84.7561035156,16.7682933807,384.817077637,1.0,0.0,0.0,0.0,1.0,0.0,0.0,0.0,1.0,-3.78283862305,-0.320823022461,-9.20331118164,1.0,0.0,0.0,0.0,1.0,0.0,0.0,0.0,1.0
1463751152882352853,367,1463751152880712652,,3.78031468391,-14.3246803284,118.926521301,0.0199960004538,1.0,0.0,0.0,0.0,1.0,0.0,0.0,0.0,1.0,80.9756088257,19.1463432312,396.097564697,1.0,0.0,0.0,0.0,1.0,0.0,0.0,0.0,1.0,-4.34787021484,-0.426167895508,-9.67736311035,1.0,0.0,0.0,0.0,1.0,0.0,0.0,0.0,1.0
1463751152902465320,368,1463751152900848451,,3.23333907127,-14.5389137268,127.365753174,0.0200100000948,1.0,0.0,0.0,0.0,1.0,0.0,0.0,0.0,1.0,84.3292694092,24.6951236725,404.512207031,1.0,0.0,0.0,0.0,1.0,0.0,0.0,0.0,1.0,-4.73094218821,0.531512805087,-9.193734375,1.0,0.0,0.0,0.0,1.0,0.0,0.0,0.0,1.0
1463751152922511275,369,1463751152920899720,,2.76183271408,-14.5721149445,135.897857666,0.0200009997934,1.0,0.0,0.0,0.0,1.0,0.0,0.0,0.0,1.0,92.7439041138,32.3780517578,407.743927002,1.0,0.0,0.0,0.0,1.0,0.0,0.0,0.0,1.0,-4.63517441406,1.02471831055,-8.14028564453,1.0,0.0,0.0,0.0,1.0,0.0,0.0,0.0,1.0
1463751152942849314,370,1463751152940893436,,3.21549963951,-14.7260074615,144.361480713,0.0200040005147,1.0,0.0,0.0,0.0,1.0,0.0,0.0,0.0,1.0,102.500007629,38.2317085266,413.475616455,1.0,0.0,0.0,0.0,1.0,0.0,0.0,0.0,1.0,-6.86178195801,-5.7508723877,-6.0812722168,1.0,0.0,0.0,0.0,1.0,0.0,0.0,0.0,1.0
1463751152962755166,371,1463751152960792778,,3.10534667969,-14.4598360062,153.083206177,0.019991999492,1.0,0.0,0.0,0.0,1.0,0.0,0.0,0.0,1.0,104.085365295,41.4634170532,418.780517578,1.0,0.0,0.0,0.0,1.0,0.0,0.0,0.0,1.0,-3.23217224121,-0.569819995117,-8.01099875488,1.0,0.0,0.0,0.0,1.0,0.0,0.0,0.0,1.0
1463751152982703674,372,1463751152980716912,,2.66488957405,-14.2156057358,161.737670898,0.0199929997325,1.0,0.0,0.0,0.0,1.0,0.0,0.0,0.0,1.0,95.4878082275,34.8780479431,413.536590576,1.0,0.0,0.0,0.0,1.0,0.0,0.0,0.0,1.0,-2.94486804199,1.22583125,-8.87291135254,1.0,0.0,0.0,0.0,1.0,0.0,0.0,0.0,1.0
1463751153002888588,373,1463751153000897347,,2.71747088432,-14.1536817551,170.000274658,0.0200030002743,1.0,0.0,0.0,0.0,1.0,0.0,0.0,0.0,1.0,107.012191772,28.475610733,396.829284668,1.0,0.0,0.0,0.0,1.0,0.0,0.0,0.0,1.0,-3.50032282715,0.067037651051,-8.17380446777,1.0,0.0,0.0,0.0,1.0,0.0,0.0,0.0,1.0
1463751153022405536,374,1463751153020788512,,2.96536374092,-14.1259307861,177.878540039,0.0200120005757,1.0,0.0,0.0,0.0,1.0,0.0,0.0,0.0,1.0,99.4512252808,22.5609760284,381.463439941,1.0,0.0,0.0,0.0,1.0,0.0,0.0,0.0,1.0,-2.54743056641,-1.75255561523,-7.46512077637,1.0,0.0,0.0,0.0,1.0,0.0,0.0,0.0,1.0
1463751153042380346,375,1463751153040768114,,2.98194980621,-14.2909679413,-174.686264038,0.0199989993125,1.0,0.0,0.0,0.0,1.0,0.0,0.0,0.0,1.0,88.3536605835,9.20731735229,359.390228271,1.0,0.0,0.0,0.0,1.0,0.0,0.0,0.0,1.0,-2.16435844691,-1.03429511719,-7.97269152832,1.0,0.0,0.0,0.0,1.0,0.0,0.0,0.0,1.0
1463751153062429115,376,1463751153060733810,,2.86525511742,-14.6553030014,-167.748001099,0.0199939999729,1.0,0.0,0.0,0.0,1.0,0.0,0.0,0.0,1.0,74.1463394165,2.80487799644,336.097564697,1.0,0.0,0.0,0.0,1.0,0.0,0.0,0.0,1.0,-3.05500131836,-1.56101948242,-8.11155522461,1.0,0.0,0.0,0.0,1.0,0.0,0.0,0.0,1.0
1463751153082411269,377,1463751153080709401,,2.52610516548,-14.9871749878,-161.31942749,0.0199890006334,1.0,0.0,0.0,0.0,1.0,0.0,0.0,0.0,1.0,55.9756126404,0.609756112099,311.829284668,1.0,0.0,0.0,0.0,1.0,0.0,0.0,0.0,1.0,-2.76769711914,-1.87226569824,-7.72848295898,1.0,0.0,0.0,0.0,1.0,0.0,0.0,0.0,1.0
1463751153102490766,378,1463751153100890877,,1.99227249622,-15.2973489761,-155.415115356,0.0200069993734,1.0,0.0,0.0,0.0,1.0,0.0,0.0,0.0,1.0,42.6219520569,-0.548780500889,285.487792969,1.0,0.0,0.0,0.0,1.0,0.0,0.0,0.0,1.0,-2.85867678223,-1.52271225586,-7.38371791992,1.0,0.0,0.0,0.0,1.0,0.0,0.0,0.0,1.0
1463751153123145105,379,1463751153121037927,,1.32732570171,-15.5037193298,-150.062789917,0.0200319997966,1.0,0.0,0.0,0.0,1.0,0.0,0.0,0.0,1.0,28.9024410248,1.40243899822,258.536590576,1.0,0.0,0.0,0.0,1.0,0.0,0.0,0.0,1.0,-3.03584770508,-1.65199914551,-7.50821640625,1.0,0.0,0.0,0.0,1.0,0.0,0.0,0.0,1.0
1463751153143208457,380,1463751153140745290,,0.471245288849,-15.487490654,-145.225860596,0.0199890006334,1.0,0.0,0.0,0.0,1.0,0.0,0.0,0.0,1.0,18.4146347046,5.97560977936,232.682937622,1.0,0.0,0.0,0.0,1.0,0.0,0.0,0.0,1.0,-2.77727392578,-0.76135612793,-7.92959589844,1.0,0.0,0.0,0.0,1.0,0.0,0.0,0.0,1.0
1463751153162789154,381,1463751153160747549,,-0.29694917798,-15.3632087708,-140.92855835,0.0199839994311,1.0,0.0,0.0,0.0,1.0,0.0,0.0,0.0,1.0,15.7926826477,10.4268293381,206.890258789,1.0,0.0,0.0,0.0,1.0,0.0,0.0,0.0,1.0,-3.18428820801,-0.588973571866,-8.00621035156,1.0,0.0,0.0,0.0,1.0,0.0,0.0,0.0,1.0
1463751153183274900,382,1463751153180898765,,-0.918287992477,-15.0132017136,-137.140838623,0.0199890006334,1.0,0.0,0.0,0.0,1.0,0.0,0.0,0.0,1.0,9.26829242706,18.4146347046,184.634155273,1.0,0.0,0.0,0.0,1.0,0.0,0.0,0.0,1.0,-3.07415493164,-1.52750065918,-8.2025348877,1.0,0.0,0.0,0.0,1.0,0.0,0.0,0.0,1.0
1463751153203933354,383,1463751153200865815,,-1.54349267483,-14.4031515121,-133.867584229,0.020005999133,1.0,0.0,0.0,0.0,1.0,0.0,0.0,0.0,1.0,12.5,26.158536911,157.439025879,1.0,0.0,0.0,0.0,1.0,0.0,0.0,0.0,1.0,-3.05500131836,0.531512805087,-10.4530844482,1.0,0.0,0.0,0.0,1.0,0.0,0.0,0.0,1.0
1463751153226047217,384,1463751153220869739,,-1.90186047554,-13.7003288269,-131.126068115,0.0201270002872,1.0,0.0,0.0,0.0,1.0,0.0,0.0,0.0,1.0,12.4390249252,31.5853652954,133.231704712,1.0,0.0,0.0,0.0,1.0,0.0,0.0,0.0,1.0,-3.04542451172,-0.339976635742,-9.79228479004,1.0,0.0,0.0,0.0,1.0,0.0,0.0,0.0,1.0
1463751153244801460,385,1463751153241003351,,-2.08031463623,-12.8394193649,-128.928970337,0.0198800005019,1.0,0.0,0.0,0.0,1.0,0.0,0.0,0.0,1.0,15.4878053665,38.9634132385,108.719512939,1.0,0.0,0.0,0.0,1.0,0.0,0.0,0.0,1.0,-2.86825358887,0.0861912597656,-10.4722380615,1.0,0.0,0.0,0.0,1.0,0.0,0.0,0.0,1.0
1463751153265687881,386,1463751153262519874,,-2.01843833923,-11.8440389633,-127.214653015,0.0202580001205,1.0,0.0,0.0,0.0,1.0,0.0,0.0,0.0,1.0,18.475610733,44.5121955872,84.5731735229,1.0,0.0,0.0,0.0,1.0,0.0,0.0,0.0,1.0,-2.48996972656,-0.225054956055,-10.4674496582,1.0,0.0,0.0,0.0,1.0,0.0,0.0,0.0,1.0
1463751153283463170,387,1463751153281136461,,-1.88552892208,-10.8368597031,-125.933586121,0.0197219997644,1.0,0.0,0.0,0.0,1.0,0.0,0.0,0.0,1.0,16.8292694092,46.5243911743,65.6097564697,1.0,0.0,0.0,0.0,1.0,0.0,0.0,0.0,1.0,-2.32716386754,-0.253785375977,-11.2766898193,1.0,0.0,0.0,0.0,1.0,0.0,0.0,0.0,1.0
1463751153303494230,388,1463751153300774190,,-1.69244325161,-9.7986831665,-124.986846924,0.0200050007552,1.0,0.0,0.0,0.0,1.0,0.0,0.0,0.0,1.0,14.6951217651,45.9146347046,48.4756126404,1.0,0.0,0.0,0.0,1.0,0.0,0.0,0.0,1.0,-1.67594116211,-0.426167895508,-11.2623246094,1.0,0.0,0.0,0.0,1.0,0.0,0.0,0.0,1.0
1463751153324427474,389,1463751153320994103,,-1.42712402344,-8.82820415497,-124.338768005,0.0200009997934,1.0,0.0,0.0,0.0,1.0,0.0,0.0,0.0,1.0,13.4146347046,43.4756126404,33.9024391174,1.0,0.0,0.0,0.0,1.0,0.0,0.0,0.0,1.0,-1.5322890625,-0.799663354492,-11.2335941895,1.0,0.0,0.0,0.0,1.0,0.0,0.0,0.0,1.0
1463751153344196035,390,1463751153340759019,,-1.26985931396,-7.93895769119,-123.918457031,0.0199939999729,1.0,0.0,0.0,0.0,1.0,0.0,0.0,0.0,1.0,8.65853691101,41.3414649963,22.0121955872,1.0,0.0,0.0,0.0,1.0,0.0,0.0,0.0,1.0,-1.66157595215,-0.277727392578,-11.3341506592,1.0,0.0,0.0,0.0,1.0,0.0,0.0,0.0,1.0
1463751153364293918,391,1463751153360915130,,-1.08519637585,-7.08887147903,-123.73500061,0.0200280006975,1.0,0.0,0.0,0.0,1.0,0.0,0.0,0.0,1.0,7.74390268326,39.2682914734,10.1829271317,1.0,0.0,0.0,0.0,1.0,0.0,0.0,0.0,1.0,-1.37427175293,-0.378283862305,-11.0420580566,1.0,0.0,0.0,0.0,1.0,0.0,0.0,0.0,1.0
1463751153384171229,392,1463751153381080721,,-0.906431138515,-6.33256053925,-123.767944336,0.0200849995017,1.0,0.0,0.0,0.0,1.0,0.0,0.0,0.0,1.0,6.0365858078,35.2439041138,-0.731707334518,1.0,0.0,0.0,0.0,1.0,0.0,0.0,0.0,1.0,-1.26892687988,-0.397437475586,-10.6494089844,1.0,0.0,0.0,0.0,1.0,0.0,0.0,0.0,1.0
1463751153403827134,393,1463751153400894855,,-0.738128185272,-5.67015171051,-124.031173706,0.0199679993093,1.0,0.0,0.0,0.0,1.0,0.0,0.0,0.0,1.0,5.91463422775,30.5487804413,-12.5609760284,1.0,0.0,0.0,0.0,1.0,0.0,0.0,0.0,1.0,-1.03429511719,-0.134075302102,-10.4387192383,1.0,0.0,0.0,0.0,1.0,0.0,0.0,0.0,1.0
1463751153423660279,394,1463751153420776281,,-0.529653847218,-5.12263298035,-124.526390076,0.0199170000851,1.0,0.0,0.0,0.0,1.0,0.0,0.0,0.0,1.0,6.28048801422,25.182926178,-24.2682933807,1.0,0.0,0.0,0.0,1.0,0.0,0.0,0.0,1.0,-0.938527050781,-0.292092584273,-10.2567599121,1.0,0.0,0.0,0.0,1.0,0.0,0.0,0.0,1.0
1463751153443914880,395,1463751153441018434,,-0.360770136118,-4.71408319473,-125.222305298,0.0201060008258,1.0,0.0,0.0,0.0,1.0,0.0,0.0,0.0,1.0,4.51219558716,18.1097564697,-34.2073173523,1.0,0.0,0.0,0.0,1.0,0.0,0.0,0.0,1.0,-0.876277807617,-0.162805712891,-10.4674496582,1.0,0.0,0.0,0.0,1.0,0.0,0.0,0.0,1.0
1463751153463887815,396,1463751153460980327,,-0.146274119616,-4.47482061386,-126.096580505,0.019991999492,1.0,0.0,0.0,0.0,1.0,0.0,0.0,0.0,1.0,10.2439022064,8.71951198578,-43.7195129395,1.0,0.0,0.0,0.0,1.0,0.0,0.0,0.0,1.0,-0.521935925381,0.450109912109,-8.77235488281,1.0,0.0,0.0,0.0,1.0,0.0,0.0,0.0,1.0
1463751153483447211,397,1463751153480920763,,-0.00986711401492,-4.34384250641,-127.054824829,0.0199820008129,1.0,0.0,0.0,0.0,1.0,0.0,0.0,0.0,1.0,4.2682929039,2.37804889679,-47.8048782349,1.0,0.0,0.0,0.0,1.0,0.0,0.0,0.0,1.0,-0.421379492187,0.143652099609,-10.2232410889,1.0,0.0,0.0,0.0,1.0,0.0,0.0,0.0,1.0
1463751153506028885,398,1463751153500860886,,0.0766491368413,-4.35826349258,-127.997238159,0.0199609994888,1.0,0.0,0.0,0.0,1.0,0.0,0.0,0.0,1.0,1.8902438879,-3.35365867615,-47.0731697083,1.0,0.0,0.0,0.0,1.0,0.0,0.0,0.0,1.0,-0.713472094727,0.124498486328,-10.4961800781,1.0,0.0,0.0,0.0,1.0,0.0,0.0,0.0,1.0
1463751153523540529,399,1463751153521134602,,0.0535442233086,-4.44199180603,-128.820388794,0.0199849996716,1.0,0.0,0.0,0.0,1.0,0.0,0.0,0.0,1.0,-3.04878044128,-5.36585378647,-41.0975646973,1.0,0.0,0.0,0.0,1.0,0.0,0.0,0.0,1.0,-0.957680664062,0.129286889648,-10.1418382324,1.0,0.0,0.0,0.0,1.0,0.0,0.0,0.0,1.0
1463751153543181955,400,1463751153540782018,,-0.0142117487267,-4.50832796097,-129.488891602,0.0200130008161,1.0,0.0,0.0,0.0,1.0,0.0,0.0,0.0,1.0,-5.73170757294,-5.60975599289,-33.2926826477,1.0,0.0,0.0,0.0,1.0,0.0,0.0,0.0,1.0,-0.77093293457,-0.0478840332031,-10.2232410889,1.0,0.0,0.0,0.0,1.0,0.0,0.0,0.0,1.0
1463751153563184474,401,1463751153561121774,,-0.113716356456,-4.58019256592,-129.95375061,0.0199970006943,1.0,0.0,0.0,0.0,1.0,0.0,0.0,0.0,1.0,-4.08536577225,-6.7682929039,-23.4146347046,1.0,0.0,0.0,0.0,1.0,0.0,0.0,0.0,1.0,-0.60812722168,0.407014282227,-10.0795889893,1.0,0.0,0.0,0.0,1.0,0.0,0.0,0.0,1.0
1463751153583183086,402,1463751153580762836,,-0.140928536654,-4.64413881302,-130.221832275,0.0200089998543,1.0,0.0,0.0,0.0,1.0,0.0,0.0,0.0,1.0,1.8902438879,-6.70731735229,-13.7804880142,1.0,0.0,0.0,0.0,1.0,0.0,0.0,0.0,1.0,-0.569819995117,0.723048901367,-10.2615483154,1.0,0.0,0.0,0.0,1.0,0.0,0.0,0.0,1.0
1463751153602862325,403,1463751153600805615,,-0.105949938297,-4.72814798355,-130.270050049,0.0200040005147,1.0,0.0,0.0,0.0,1.0,0.0,0.0,0.0,1.0,4.81707286835,-9.32926845551,-2.80487799644,1.0,0.0,0.0,0.0,1.0,0.0,0.0,0.0,1.0,-0.296881024126,0.541089611728,-10.4147772217,1.0,0.0,0.0,0.0,1.0,0.0,0.0,0.0,1.0
1463751153623296196,404,1463751153620829696,,-0.0126218590885,-4.86136245728,-130.133956909,0.0200110003352,1.0,0.0,0.0,0.0,1.0,0.0,0.0,0.0,1.0,9.02439117432,-13.9024391174,6.28048801422,1.0,0.0,0.0,0.0,1.0,0.0,0.0,0.0,1.0,0.076614453125,0.641646044922,-10.5775829346,1.0,0.0,0.0,0.0,1.0,0.0,0.0,0.0,1.0
1463751153643238767,405,1463751153640835236,,0.16322851181,-5.1118850708,-129.831130981,0.019974000752,1.0,0.0,0.0,0.0,1.0,0.0,0.0,0.0,1.0,12.6829271317,-18.5975627899,14.6951217651,1.0,0.0,0.0,0.0,1.0,0.0,0.0,0.0,1.0,-0.167594116211,0.392649072266,-10.5680061279,1.0,0.0,0.0,0.0,1.0,0.0,0.0,0.0,1.0
1463751153663172536,406,1463751153660740828,,0.369060128927,-5.42081689835,-129.413604736,0.0200020000339,1.0,0.0,0.0,0.0,1.0,0.0,0.0,0.0,1.0,12.5,-20.6707324982,20.6097564697,1.0,0.0,0.0,0.0,1.0,0.0,0.0,0.0,1.0,-0.344765039063,-0.0622492431641,-10.2519715088,1.0,0.0,0.0,0.0,1.0,0.0,0.0,0.0,1.0
1463751153683316200,407,1463751153680738867,,0.507041811943,-5.74625444412,-128.910842896,0.019985999912,1.0,0.0,0.0,0.0,1.0,0.0,0.0,0.0,1.0,9.75609779358,-18.9634151459,24.8780498505,1.0,0.0,0.0,0.0,1.0,0.0,0.0,0.0,1.0,-0.823605371094,-0.076614453125,-9.98860932617,1.0,0.0,0.0,0.0,1.0,0.0,0.0,0.0,1.0
1463751153704077986,408,1463751153701374977,,0.607040047646,-5.9897236824,-128.414962769,0.0200330000371,1.0,0.0,0.0,0.0,1.0,0.0,0.0,0.0,1.0,9.45121955872,-17.0731716156,24.3292694092,1.0,0.0,0.0,0.0,1.0,0.0,0.0,0.0,1.0,-0.483628735352,0.172382519531,-10.1562034424,1.0,0.0,0.0,0.0,1.0,0.0,0.0,0.0,1.0
1463751153723716704,409,1463751153720908070,,0.716824829578,-6.25379276276,-127.999389648,0.0199679993093,1.0,0.0,0.0,0.0,1.0,0.0,0.0,0.0,1.0,9.63414573669,-15.7317075729,20.4268302917,1.0,0.0,0.0,0.0,1.0,0.0,0.0,0.0,1.0,-0.962469067383,0.15322890625,-10.1609918457,1.0,0.0,0.0,0.0,1.0,0.0,0.0,0.0,1.0
1463751153743801410,410,1463751153740993557,,0.837803125381,-6.43122911453,-127.654769897,0.0201239995658,1.0,0.0,0.0,0.0,1.0,0.0,0.0,0.0,1.0,8.47560977936,-11.9512195587,16.8902435303,1.0,0.0,0.0,0.0,1.0,0.0,0.0,0.0,1.0,-0.900219824219,-0.110133276367,-10.1897222656,1.0,0.0,0.0,0.0,1.0,0.0,0.0,0.0,1.0
1463751153764821789,411,1463751153761028263,,0.889475643635,-6.56993198395,-127.359069824,0.0199609994888,1.0,0.0,0.0,0.0,1.0,0.0,0.0,0.0,1.0,8.17073154449,-5.85365867615,14.1463422775,1.0,0.0,0.0,0.0,1.0,0.0,0.0,0.0,1.0,-2.15957004359,0.60812722168,-12.885593335,1.0,0.0,0.0,0.0,1.0,0.0,0.0,0.0,1.0
1463751153783509105,412,1463751153780810575,,1.0230448246,-5.97891759872,-127.26537323,0.0199650004506,1.0,0.0,0.0,0.0,1.0,0.0,0.0,0.0,1.0,-2.07317066193,-0.0609756112099,5.54878091812,1.0,0.0,0.0,0.0,1.0,0.0,0.0,0.0,1.0,4.10366164551,-1.99197578125,-9.61990285503,1.0,0.0,0.0,0.0,1.0,0.0,0.0,0.0,1.0
1463751153803592665,413,1463751153800825906,,0.876370608807,-5.98760938644,-127.361686707,0.0199929997325,1.0,0.0,0.0,0.0,1.0,0.0,0.0,0.0,1.0,-4.63414621353,-1.15853655338,-5.24390268326,1.0,0.0,0.0,0.0,1.0,0.0,0.0,0.0,1.0,-1.64721074219,0.387860668945,-12.4833674561,1.0,0.0,0.0,0.0,1.0,0.0,0.0,0.0,1.0
1463751153824193670,414,1463751153820927747,,0.815815210342,-6.28843832016,-127.40196991,0.019985999912,1.0,0.0,0.0,0.0,1.0,0.0,0.0,0.0,1.0,3.17073178291,-10.0609760284,-2.68292689323,1.0,0.0,0.0,0.0,1.0,0.0,0.0,0.0,1.0,-2.83473476562,1.12048637695,-11.9805851074,1.0,0.0,0.0,0.0,1.0,0.0,0.0,0.0,1.0
1463751153844286085,415,1463751153840909589,,0.667519509792,-6.25664234161,-127.453117371,0.0200520008802,1.0,0.0,0.0,0.0,1.0,0.0,0.0,0.0,1.0,-2.31707310677,-2.19512200356,-3.23170733452,1.0,0.0,0.0,0.0,1.0,0.0,0.0,0.0,1.0,-0.828393774414,0.737414111328,-10.1083194092,1.0,0.0,0.0,0.0,1.0,0.0,0.0,0.0,1.0
1463751153863161212,416,1463751153861068565,,0.640377819538,-6.16871595383,-127.444480896,0.0200759992003,1.0,0.0,0.0,0.0,1.0,0.0,0.0,0.0,1.0,1.64634156227,1.8292683363,-0.0609756112099,1.0,0.0,0.0,0.0,1.0,0.0,0.0,0.0,1.0,-1.01035310059,0.320823022461,-9.84495722656,1.0,0.0,0.0,0.0,1.0,0.0,0.0,0.0,1.0
1463751153884618048,417,1463751153881203114,,0.590173780918,-6.05297279358,-127.39516449,0.0202719997615,1.0,0.0,0.0,0.0,1.0,0.0,0.0,0.0,1.0,2.98780488968,5.06097555161,1.64634156227,1.0,0.0,0.0,0.0,1.0,0.0,0.0,0.0,1.0,-1.37427175293,0.751779321289,-10.1992990723,1.0,0.0,0.0,0.0,1.0,0.0,0.0,0.0,1.0
1463751153903451196,418,1463751153901121050,,0.585221588612,-5.90534067154,-127.315940857,0.0198190007359,1.0,0.0,0.0,0.0,1.0,0.0,0.0,0.0,1.0,2.74390244484,6.58536624908,3.47560977936,1.0,0.0,0.0,0.0,1.0,0.0,0.0,0.0,1.0,-1.28329208984,0.272938989258,-9.98860932617,1.0,0.0,0.0,0.0,1.0,0.0,0.0,0.0,1.0
1463751153923729234,419,1463751153920808882,,0.630859076977,-5.71463489532,-127.215782166,0.0197889991105,1.0,0.0,0.0,0.0,1.0,0.0,0.0,0.0,1.0,4.32926845551,7.50000047684,4.63414621353,1.0,0.0,0.0,0.0,1.0,0.0,0.0,0.0,1.0,-1.07739082014,0.0861912597656,-10.4770264648,1.0,0.0,0.0,0.0,1.0,0.0,0.0,0.0,1.0
1463751153943700243,420,1463751153940789630,,0.725983858109,-5.55466747284,-127.167984009,0.0200139991939,1.0,0.0,0.0,0.0,1.0,0.0,0.0,0.0,1.0,5.30487823486,4.57317066193,2.13414645195,1.0,0.0,0.0,0.0,1.0,0.0,0.0,0.0,1.0,-0.799663354492,-0.143652099609,-10.3668931885,1.0,0.0,0.0,0.0,1.0,0.0,0.0,0.0,1.0
1463751153962855369,421,1463751153960772045,,0.80785214901,-5.38933372498,-127.18170166,0.0199379995465,1.0,0.0,0.0,0.0,1.0,0.0,0.0,0.0,1.0,4.87804889679,4.57317066193,-0.975609779358,1.0,0.0,0.0,0.0,1.0,0.0,0.0,0.0,1.0,-0.689530078125,-0.0622492431641,-9.90241806641,1.0,0.0,0.0,0.0,1.0,0.0,0.0,0.0,1.0
1463751153983769238,422,1463751153980810761,,0.833770632744,-5.22111082077,-127.176475525,0.0200190003961,1.0,0.0,0.0,0.0,1.0,0.0,0.0,0.0,1.0,0.426829278469,4.81707286835,0.12195122242,1.0,0.0,0.0,0.0,1.0,0.0,0.0,0.0,1.0,-0.703895288086,-0.392649072266,-10.2232410889,1.0,0.0,0.0,0.0,1.0,0.0,0.0,0.0,1.0
1463751154004230036,423,1463751154001537391,,0.788372397423,-5.11093902588,-127.119392395,0.0200030002743,1.0,0.0,0.0,0.0,1.0,0.0,0.0,0.0,1.0,-2.01219511032,3.65853667259,2.62195134163,1.0,0.0,0.0,0.0,1.0,0.0,0.0,0.0,1.0,-0.981622680664,-0.234631762695,-10.2136642822,1.0,0.0,0.0,0.0,1.0,0.0,0.0,0.0,1.0
1463751154024886823,424,1463751154020869444,,0.708554804325,-5.02395296097,-127.123344421,0.0200309995562,1.0,0.0,0.0,0.0,1.0,0.0,0.0,0.0,1.0,-2.13414645195,2.37804889679,-0.548780500889,1.0,0.0,0.0,0.0,1.0,0.0,0.0,0.0,1.0,-0.967257470703,0.114921679688,-10.4147772217,1.0,0.0,0.0,0.0,1.0,0.0,0.0,0.0,1.0
1463751154045072101,425,1463751154040784463,,0.629940748215,-4.93716621399,-127.128990173,0.019938999787,1.0,0.0,0.0,0.0,1.0,0.0,0.0,0.0,1.0,-1.40243899822,1.03658533096,-0.670731723309,1.0,0.0,0.0,0.0,1.0,0.0,0.0,0.0,1.0,-0.703895288086,0.258573779297,-10.4482960449,1.0,0.0,0.0,0.0,1.0,0.0,0.0,0.0,1.0
1463751154062888587,426,1463751154060756513,,0.584435224533,-4.85446310043,-127.185890198,0.0200379993767,1.0,0.0,0.0,0.0,1.0,0.0,0.0,0.0,1.0,1.8902438879,0.548780500889,-3.35365867615,1.0,0.0,0.0,0.0,1.0,0.0,0.0,0.0,1.0,-0.627280834961,0.598550451572,-10.180145459,1.0,0.0,0.0,0.0,1.0,0.0,0.0,0.0,1.0
1463751154082603034,427,1463751154080739188,,0.59634912014,-4.79841041565,-127.228263855,0.0199790000916,1.0,0.0,0.0,0.0,1.0,0.0,0.0,0.0,1.0,3.29268312454,0.0609756112099,-2.5,1.0,0.0,0.0,0.0,1.0,0.0,0.0,0.0,1.0,-0.751779321289,0.325611425781,-10.046070166,1.0,0.0,0.0,0.0,1.0,0.0,0.0,0.0,1.0
1463751154102514460,428,1463751154100965612,,0.558160662651,-4.75625085831,-127.178443909,0.0199769996107,1.0,0.0,0.0,0.0,1.0,0.0,0.0,0.0,1.0,1.2804877758,-0.18292683363,2.07317066193,1.0,0.0,0.0,0.0,1.0,0.0,0.0,0.0,1.0,-0.828393774414,0.349553442383,-10.2232410889,1.0,0.0,0.0,0.0,1.0,0.0,0.0,0.0,1.0
1463751154122558020,429,1463751154120980006,,0.560463011265,-4.7221865654,-127.157928467,0.0200249999762,1.0,0.0,0.0,0.0,1.0,0.0,0.0,0.0,1.0,3.29268312454,-0.304878056049,0.609756112099,1.0,0.0,0.0,0.0,1.0,0.0,0.0,0.0,1.0,-0.881066210937,0.378283862305,-10.285490332,1.0,0.0,0.0,0.0,1.0,0.0,0.0,0.0,1.0
1463751154142505382,430,1463751154140882160,,0.65222454071,-4.68508148193,-127.148864746,0.0200190003961,1.0,0.0,0.0,0.0,1.0,0.0,0.0,0.0,1.0,4.57317066193,-0.304878056049,0.304878056049,1.0,0.0,0.0,0.0,1.0,0.0,0.0,0.0,1.0,-0.847547387695,-0.196324536133,-10.2807019287,1.0,0.0,0.0,0.0,1.0,0.0,0.0,0.0,1.0
1463751154162881337,431,1463751154160824835,,0.689034283161,-4.64528989792,-127.115364075,0.0200789999217,1.0,0.0,0.0,0.0,1.0,0.0,0.0,0.0,1.0,1.70731711388,-0.18292683363,1.52439022064,1.0,0.0,0.0,0.0,1.0,0.0,0.0,0.0,1.0,-0.828393774414,-0.248996972656,-10.1753570557,1.0,0.0,0.0,0.0,1.0,0.0,0.0,0.0,1.0
1463751154183467395,432,1463751154180883291,,0.908215165138,-4.56680631638,-127.055671692,0.0199779998511,1.0,0.0,0.0,0.0,1.0,0.0,0.0,0.0,1.0,-0.731707334518,-0.12195122242,3.7804877758,1.0,0.0,0.0,0.0,1.0,0.0,0.0,0.0,1.0,-0.478840332031,-2.48039291992,-10.419565625,1.0,0.0,0.0,0.0,1.0,0.0,0.0,0.0,1.0
1463751154204783866,433,1463751154200743571,,0.669363737106,-4.53327417374,-126.968299866,0.0199229996651,1.0,0.0,0.0,0.0,1.0,0.0,0.0,0.0,1.0,-5.06097555161,0.12195122242,3.65853667259,1.0,0.0,0.0,0.0,1.0,0.0,0.0,0.0,1.0,-0.905008227539,0.943315454102,-10.1274730225,1.0,0.0,0.0,0.0,1.0,0.0,0.0,0.0,1.0
1463751154223956857,434,1463751154220733433,,0.853201329708,-4.47410154343,-127.176254272,0.0199870001525,1.0,0.0,0.0,0.0,1.0,0.0,0.0,0.0,1.0,6.70731735229,1.34146344662,-10.3658542633,1.0,0.0,0.0,0.0,1.0,0.0,0.0,0.0,1.0,-0.943315454102,-0.517147558594,-10.3429511719,1.0,0.0,0.0,0.0,1.0,0.0,0.0,0.0,1.0
1463751154242423549,435,1463751154240719233,,0.89369225502,-4.41969251633,-127.224807739,0.019999999553,1.0,0.0,0.0,0.0,1.0,0.0,0.0,0.0,1.0,7.86585378647,0.0609756112099,-3.04878044128,1.0,0.0,0.0,0.0,1.0,0.0,0.0,0.0,1.0,-0.689530078125,0.828393774414,-9.86889924316,1.0,0.0,0.0,0.0,1.0,0.0,0.0,0.0,1.0
1463751154263015857,436,1463751154260832689,,0.843989908695,-4.3700261116,-127.162322998,0.0200030002743,1.0,0.0,0.0,0.0,1.0,0.0,0.0,0.0,1.0,-2.19512200356,0.365853667259,2.92682933807,1.0,0.0,0.0,0.0,1.0,0.0,0.0,0.0,1.0,-0.76614453125,-0.229843359375,-9.94072529297,1.0,0.0,0.0,0.0,1.0,0.0,0.0,0.0,1.0
1463751154283298687,437,1463751154280721458,,0.792633295059,-4.32330322266,-127.07333374,0.0200159996748,1.0,0.0,0.0,0.0,1.0,0.0,0.0,0.0,1.0,3.96341490746,-0.487804889679,3.7804877758,1.0,0.0,0.0,0.0,1.0,0.0,0.0,0.0,1.0,-0.670376464844,0.9193734375,-10.5775829346,1.0,0.0,0.0,0.0,1.0,0.0,0.0,0.0,1.0
1463751154303881515,438,1463751154300732310,,0.866361796856,-4.30249929428,-127.082290649,0.0199900008738,1.0,0.0,0.0,0.0,1.0,0.0,0.0,0.0,1.0,3.84146332741,-0.853658556938,-0.609756112099,1.0,0.0,0.0,0.0,1.0,0.0,0.0,0.0,1.0,-0.809240161133,-0.191536132812,-10.0795889893,1.0,0.0,0.0,0.0,1.0,0.0,0.0,0.0,1.0
1463751154323236276,439,1463751154320695298,,0.984356939793,-4.28477621078,-127.048469543,0.0199960004538,1.0,0.0,0.0,0.0,1.0,0.0,0.0,0.0,1.0,5.12195110321,-0.243902444839,1.58536589146,1.0,0.0,0.0,0.0,1.0,0.0,0.0,0.0,1.0,-0.928950244141,-0.397437475586,-9.99818613281,1.0,0.0,0.0,0.0,1.0,0.0,0.0,0.0,1.0
1463751154343327961,440,1463751154340755212,,0.968569993973,-4.26511907578,-127.025726318,0.0199989993125,1.0,0.0,0.0,0.0,1.0,0.0,0.0,0.0,1.0,-0.914634168148,-0.0609756112099,0.975609779358,1.0,0.0,0.0,0.0,1.0,0.0,0.0,0.0,1.0,-0.952892260742,-0.296881024126,-10.1083194092,1.0,0.0,0.0,0.0,1.0,0.0,0.0,0.0,1.0
1463751154363583135,441,1463751154360982625,,1.02786183357,-4.23008728027,-127.038108826,0.0200020000339,1.0,0.0,0.0,0.0,1.0,0.0,0.0,0.0,1.0,3.10975623131,-0.365853667259,-0.792682945728,1.0,0.0,0.0,0.0,1.0,0.0,0.0,0.0,1.0,-0.77093293457,-0.225054956055,-10.2280294922,1.0,0.0,0.0,0.0,1.0,0.0,0.0,0.0,1.0
1463751154383917840,442,1463751154380765926,,0.981091380119,-4.19082260132,-127.059768677,0.0200309995562,1.0,0.0,0.0,0.0,1.0,0.0,0.0,0.0,1.0,-0.18292683363,-0.426829278469,-1.40243899822,1.0,0.0,0.0,0.0,1.0,0.0,0.0,0.0,1.0,-0.713472094727,0.134075302102,-10.1753570557,1.0,0.0,0.0,0.0,1.0,0.0,0.0,0.0,1.0
1463751154403650933,443,1463751154400718706,,0.980900645256,-4.17062425613,-127.055664062,0.0199769996107,1.0,0.0,0.0,0.0,1.0,0.0,0.0,0.0,1.0,1.34146344662,-0.243902444839,-0.0609756112099,1.0,0.0,0.0,0.0,1.0,0.0,0.0,0.0,1.0,-0.909796630859,-0.0191536132812,-10.2088758789,1.0,0.0,0.0,0.0,1.0,0.0,0.0,0.0,1.0
1463751154422430696,444,1463751154420729245,,0.925818026066,-4.14719247818,-127.066902161,0.0199929997325,1.0,0.0,0.0,0.0,1.0,0.0,0.0,0.0,1.0,1.46341466904,-0.243902444839,-1.03658533096,1.0,0.0,0.0,0.0,1.0,0.0,0.0,0.0,1.0,-0.881066210937,0.512359155273,-10.2280294922,1.0,0.0,0.0,0.0,1.0,0.0,0.0,0.0,1.0
1463751154447848192,445,1463751154440704316,,0.966320216656,-4.12451076508,-127.070411682,0.0200089998543,1.0,0.0,0.0,0.0,1.0,0.0,0.0,0.0,1.0,3.29268312454,-0.609756112099,-0.426829278469,1.0,0.0,0.0,0.0,1.0,0.0,0.0,0.0,1.0,-0.799663354492,-0.0191536132812,-10.0221281494,1.0,0.0,0.0,0.0,1.0,0.0,0.0,0.0,1.0
1463751154461944694,446,1463751154460794334,,0.953926742077,-4.09844636917,-127.057136536,0.0199979990721,1.0,0.0,0.0,0.0,1.0,0.0,0.0,0.0,1.0,2.92682933807,-0.548780500889,0.243902444839,1.0,0.0,0.0,0.0,1.0,0.0,0.0,0.0,1.0,-0.794874951172,0.378283862305,-10.2950671387,1.0,0.0,0.0,0.0,1.0,0.0,0.0,0.0,1.0
1463751154482086691,447,1463751154480905134,,0.998511135578,-4.07408285141,-127.049705505,0.0201239995658,1.0,0.0,0.0,0.0,1.0,0.0,0.0,0.0,1.0,2.56097555161,-0.609756112099,0.18292683363,1.0,0.0,0.0,0.0,1.0,0.0,0.0,0.0,1.0,-0.780509741211,-0.196324536133,-10.0843773926,1.0,0.0,0.0,0.0,1.0,0.0,0.0,0.0,1.0
1463751154502571343,448,1463751154500831246,,1.02589404583,-4.05522298813,-127.039405823,0.0198929999024,1.0,0.0,0.0,0.0,1.0,0.0,0.0,0.0,1.0,2.92682933807,-0.609756112099,0.243902444839,1.0,0.0,0.0,0.0,1.0,0.0,0.0,0.0,1.0,-0.833182177734,0.00957680664062,-10.2136642822,1.0,0.0,0.0,0.0,1.0,0.0,0.0,0.0,1.0
1463751154522488602,449,1463751154520809703,,1.0208748579,-4.03310394287,-127.036499023,0.019938999787,1.0,0.0,0.0,0.0,1.0,0.0,0.0,0.0,1.0,1.2195122242,-0.609756112099,-0.12195122242,1.0,0.0,0.0,0.0,1.0,0.0,0.0,0.0,1.0,-0.809240161133,-0.00478840332031,-10.3094323486,1.0,0.0,0.0,0.0,1.0,0.0,0.0,0.0,1.0
1463751154542872994,450,1463751154540958731,,1.04663896561,-4.01586437225,-127.042861938,0.0201810002327,1.0,0.0,0.0,0.0,1.0,0.0,0.0,0.0,1.0,2.31707310677,-0.731707334518,-0.548780500889,1.0,0.0,0.0,0.0,1.0,0.0,0.0,0.0,1.0,-0.828393774414,-0.076614453125,-10.2759135254,1.0,0.0,0.0,0.0,1.0,0.0,0.0,0.0,1.0
1463751154562659055,451,1463751154560737136,,1.01744878292,-3.98652052879,-127.043441772,0.0198400001973,1.0,0.0,0.0,0.0,1.0,0.0,0.0,0.0,1.0,0.914634168148,-0.304878056049,-0.365853667259,1.0,0.0,0.0,0.0,1.0,0.0,0.0,0.0,1.0,-0.775721337891,0.15801730957,-10.1131078125,1.0,0.0,0.0,0.0,1.0,0.0,0.0,0.0,1.0
1463751154582693500,452,1463751154580730853,,1.01770162582,-3.95333194733,-127.040840149,0.0200319997966,1.0,0.0,0.0,0.0,1.0,0.0,0.0,0.0,1.0,2.13414645195,-0.548780500889,-0.18292683363,1.0,0.0,0.0,0.0,1.0,0.0,0.0,0.0,1.0,-0.703895288086,0.114921679688,-10.2519715088,1.0,0.0,0.0,0.0,1.0,0.0,0.0,0.0,1.0
1463751154602616853,453,1463751154600711601,,1.00306034088,-3.92967391014,-127.035881042,0.0200130008161,1.0,0.0,0.0,0.0,1.0,0.0,0.0,0.0,1.0,2.19512200356,-0.487804889679,-0.12195122242,1.0,0.0,0.0,0.0,1.0,0.0,0.0,0.0,1.0,-0.790086547852,0.258573779297,-10.1897222656,1.0,0.0,0.0,0.0,1.0,0.0,0.0,0.0,1.0
1463751154624480978,454,1463751154621203440,,1.02419877052,-3.90343904495,-127.031433105,0.020101999864,1.0,0.0,0.0,0.0,1.0,0.0,0.0,0.0,1.0,2.74390244484,-0.487804889679,-0.0609756112099,1.0,0.0,0.0,0.0,1.0,0.0,0.0,0.0,1.0,-0.76614453125,0.0383072265625,-10.2232410889,1.0,0.0,0.0,0.0,1.0,0.0,0.0,0.0,1.0
1463751154643971468,455,1463751154640756950,,1.04593753815,-3.871707201,-127.024772644,0.0198589991778,1.0,0.0,0.0,0.0,1.0,0.0,0.0,0.0,1.0,2.68292689323,-0.548780500889,0.0609756112099,1.0,0.0,0.0,0.0,1.0,0.0,0.0,0.0,1.0,-0.708683691406,0.0143652099609,-10.3956236084,1.0,0.0,0.0,0.0,1.0,0.0,0.0,0.0,1.0
1463751154663877008,456,1463751154660739104,,1.06155061722,-3.8451488018,-127.024116516,0.0200040005147,1.0,0.0,0.0,0.0,1.0,0.0,0.0,0.0,1.0,2.31707310677,-0.243902444839,-0.243902444839,1.0,0.0,0.0,0.0,1.0,0.0,0.0,0.0,1.0,-0.790086547852,0.00478840332031,-10.1418382324,1.0,0.0,0.0,0.0,1.0,0.0,0.0,0.0,1.0
1463751154683022342,457,1463751154680802873,,1.07139027119,-3.82527160645,-127.024757385,0.0200200006366,1.0,0.0,0.0,0.0,1.0,0.0,0.0,0.0,1.0,2.01219511032,-0.304878056049,-0.304878056049,1.0,0.0,0.0,0.0,1.0,0.0,0.0,0.0,1.0,-0.837970581055,0.0,-10.180145459,1.0,0.0,0.0,0.0,1.0,0.0,0.0,0.0,1.0
1463751154704106523,458,1463751154700824297,,1.06664514542,-3.8071103096,-127.02116394,0.0200330000371,1.0,0.0,0.0,0.0,1.0,0.0,0.0,0.0,1.0,1.70731711388,-0.365853667259,-0.12195122242,1.0,0.0,0.0,0.0,1.0,0.0,0.0,0.0,1.0,-0.833182177734,0.0718260498047,-10.1178962158,1.0,0.0,0.0,0.0,1.0,0.0,0.0,0.0,1.0
1463751154723580086,459,1463751154720826556,,1.06000804901,-3.79582643509,-127.024894714,0.0199609994888,1.0,0.0,0.0,0.0,1.0,0.0,0.0,0.0,1.0,1.70731711388,-0.670731723309,-0.487804889679,1.0,0.0,0.0,0.0,1.0,0.0,0.0,0.0,1.0,-0.852335791016,0.0957680664062,-10.2950671387,1.0,0.0,0.0,0.0,1.0,0.0,0.0,0.0,1.0
1463751154743225887,460,1463751154741024803,,1.05036020279,-3.76955270767,-127.027252197,0.0199960004538,1.0,0.0,0.0,0.0,1.0,0.0,0.0,0.0,1.0,1.58536589146,-0.304878056049,-0.426829278469,1.0,0.0,0.0,0.0,1.0,0.0,0.0,0.0,1.0,-0.775721337891,0.100556469727,-10.2376062988,1.0,0.0,0.0,0.0,1.0,0.0,0.0,0.0,1.0
1463751154763306582,461,1463751154761026176,,1.05079853535,-3.75343632698,-127.024505615,0.0200040005147,1.0,0.0,0.0,0.0,1.0,0.0,0.0,0.0,1.0,2.31707310677,-0.487804889679,-0.18292683363,1.0,0.0,0.0,0.0,1.0,0.0,0.0,0.0,1.0,-0.818816967773,0.138863696289,-10.1083194092,1.0,0.0,0.0,0.0,1.0,0.0,0.0,0.0,1.0
1463751154784024983,462,1463751154780783643,,1.06177449226,-3.73780035973,-127.024833679,0.0199929997325,1.0,0.0,0.0,0.0,1.0,0.0,0.0,0.0,1.0,2.37804889679,-0.487804889679,-0.304878056049,1.0,0.0,0.0,0.0,1.0,0.0,0.0,0.0,1.0,-0.828393774414,0.0574608398438,-10.2040874756,1.0,0.0,0.0,0.0,1.0,0.0,0.0,0.0,1.0
1463751154803760524,463,1463751154800771526,,1.07616114616,-3.70560789108,-127.016532898,0.0200050007552,1.0,0.0,0.0,0.0,1.0,0.0,0.0,0.0,1.0,2.56097555161,-0.365853667259,0.12195122242,1.0,0.0,0.0,0.0,1.0,0.0,0.0,0.0,1.0,-0.699106884766,0.0526724365234,-10.2423947021,1.0,0.0,0.0,0.0,1.0,0.0,0.0,0.0,1.0
1463751154823008879,464,1463751154820823055,,1.09065639973,-3.69434070587,-127.015991211,0.0200009997934,1.0,0.0,0.0,0.0,1.0,0.0,0.0,0.0,1.0,2.31707310677,-0.609756112099,-0.243902444839,1.0,0.0,0.0,0.0,1.0,0.0,0.0,0.0,1.0,-0.837970581055,0.00957680664062,-10.2136642822,1.0,0.0,0.0,0.0,1.0,0.0,0.0,0.0,1.0
1463751154842407026,465,1463751154840749949,,1.10550963879,-3.67231678963,-127.015884399,0.0200009997934,1.0,0.0,0.0,0.0,1.0,0.0,0.0,0.0,1.0,1.95121955872,-0.426829278469,-0.243902444839,1.0,0.0,0.0,0.0,1.0,0.0,0.0,0.0,1.0,-0.77093293457,-0.0622492431641,-10.2040874756,1.0,0.0,0.0,0.0,1.0,0.0,0.0,0.0,1.0
1463751154862654335,466,1463751154860812155,,1.12857723236,-3.65373373032,-126.92591095,0.0200009997934,1.0,0.0,0.0,0.0,1.0,0.0,0.0,0.0,1.0,-9.45121955872,2.80487799644,4.93902444839,1.0,0.0,0.0,0.0,1.0,0.0,0.0,0.0,1.0,-1.24498486328,-2.07816689489,-9.14106193848,1.0,0.0,0.0,0.0,1.0,0.0,0.0,0.0,1.0
1463751154882125397,467,1463751154880710872,,0.887885928154,-3.47203421593,-126.741905212,0.0199950002134,1.0,0.0,0.0,0.0,1.0,0.0,0.0,0.0,1.0,-17.1951217651,7.25609779358,9.20731735229,1.0,0.0,0.0,0.0,1.0,0.0,0.0,0.0,1.0,-0.689530078125,-1.35032973633,-10.3621047852,1.0,0.0,0.0,0.0,1.0,0.0,0.0,0.0,1.0
1463751154902443331,468,1463751154900890630,,0.488643527031,-3.30598378181,-126.773895264,0.0200050007552,1.0,0.0,0.0,0.0,1.0,0.0,0.0,0.0,1.0,-17.2560977936,7.01219511032,-2.01219511032,1.0,0.0,0.0,0.0,1.0,0.0,0.0,0.0,1.0,-0.775721337891,0.263362164351,-10.1897222656,1.0,0.0,0.0,0.0,1.0,0.0,0.0,0.0,1.0
1463751154923080170,469,1463751154921046689,,0.250233769417,-3.19903612137,-126.948791504,0.0199900008738,1.0,0.0,0.0,0.0,1.0,0.0,0.0,0.0,1.0,-7.98780536652,5.24390268326,-9.14634132385,1.0,0.0,0.0,0.0,1.0,0.0,0.0,0.0,1.0,-0.952892260742,0.622492431641,-10.0364933594,1.0,0.0,0.0,0.0,1.0,0.0,0.0,0.0,1.0
1463751154942754982,470,1463751154940752178,,0.00715556414798,-3.13710832596,-127.083877563,0.019999999553,1.0,0.0,0.0,0.0,1.0,0.0,0.0,0.0,1.0,-6.70731735229,2.43902444839,-7.19512224197,1.0,0.0,0.0,0.0,1.0,0.0,0.0,0.0,1.0,-0.857124194336,0.943315454102,-10.3812583984,1.0,0.0,0.0,0.0,1.0,0.0,0.0,0.0,1.0
1463751154962668855,471,1463751154961112768,,-0.193561583757,-3.15741181374,-127.184959412,0.0200190003961,1.0,0.0,0.0,0.0,1.0,0.0,0.0,0.0,1.0,0.0,-0.731707334518,-5.73170757294,1.0,0.0,0.0,0.0,1.0,0.0,0.0,0.0,1.0,-1.00556469727,1.81001645508,-10.2232410889,1.0,0.0,0.0,0.0,1.0,0.0,0.0,0.0,1.0
1463751154982666426,472,1463751154980990808,,-0.297836720943,-3.11245393753,-127.239341736,0.0199790000916,1.0,0.0,0.0,0.0,1.0,0.0,0.0,0.0,1.0,3.90243911743,-0.0609756112099,-3.35365867615,1.0,0.0,0.0,0.0,1.0,0.0,0.0,0.0,1.0,-0.526724328702,1.63284553223,-10.1418382324,1.0,0.0,0.0,0.0,1.0,0.0,0.0,0.0,1.0
1463751155002408581,473,1463751155000777390,,-0.283965021372,-3.06823515892,-127.195610046,0.0200069993734,1.0,0.0,0.0,0.0,1.0,0.0,0.0,0.0,1.0,6.82926845551,-0.731707334518,1.70731711388,1.0,0.0,0.0,0.0,1.0,0.0,0.0,0.0,1.0,-0.411802685547,1.05823706072,-10.1992990723,1.0,0.0,0.0,0.0,1.0,0.0,0.0,0.0,1.0
1463751155023335627,474,1463751155020821627,,-0.20332890749,-3.04064655304,-127.09463501,0.0199939999729,1.0,0.0,0.0,0.0,1.0,0.0,0.0,0.0,1.0,6.64634132385,-0.609756112099,4.75609779358,1.0,0.0,0.0,0.0,1.0,0.0,0.0,0.0,1.0,-0.569819995117,0.383072265625,-10.0508585693,1.0,0.0,0.0,0.0,1.0,0.0,0.0,0.0,1.0
1463751155042672836,475,1463751155040702324,,-0.0897596105933,-3.0238134861,-126.962463379,0.0200009997934,1.0,0.0,0.0,0.0,1.0,0.0,0.0,0.0,1.0,5.42682933807,-0.0609756112099,6.46341466904,1.0,0.0,0.0,0.0,1.0,0.0,0.0,0.0,1.0,-0.77093293457,-0.15801730957,-10.2280294922,1.0,0.0,0.0,0.0,1.0,0.0,0.0,0.0,1.0
1463751155062410772,476,1463751155060870466,,-0.00715281767771,-3.03104901314,-126.875991821,0.0200100000948,1.0,0.0,0.0,0.0,1.0,0.0,0.0,0.0,1.0,3.35365867615,-0.609756112099,4.20731735229,1.0,0.0,0.0,0.0,1.0,0.0,0.0,0.0,1.0,-0.876277807617,-0.248996972656,-10.1322614258,1.0,0.0,0.0,0.0,1.0,0.0,0.0,0.0,1.0
1463751155082368135,477,1463751155080719705,,0.0566496327519,-2.99868535995,-126.856399536,0.019991999492,1.0,0.0,0.0,0.0,1.0,0.0,0.0,0.0,1.0,1.64634156227,0.0,0.914634168148,1.0,0.0,0.0,0.0,1.0,0.0,0.0,0.0,1.0,-0.636857641602,-0.373495458984,-10.2376062988,1.0,0.0,0.0,0.0,1.0,0.0,0.0,0.0,1.0
1463751155102439716,478,1463751155100871025,,0.0913124606013,-2.97550654411,-126.889472961,0.020021000877,1.0,0.0,0.0,0.0,1.0,0.0,0.0,0.0,1.0,0.12195122242,-0.243902444839,-1.70731711388,1.0,0.0,0.0,0.0,1.0,0.0,0.0,0.0,1.0,-0.665588061523,-0.368707055664,-10.1562034424,1.0,0.0,0.0,0.0,1.0,0.0,0.0,0.0,1.0
1463751155122786139,479,1463751155120883908,,0.0197719987482,-2.94125461578,-126.916763306,0.0199979990721,1.0,0.0,0.0,0.0,1.0,0.0,0.0,0.0,1.0,-0.914634168148,0.0,-1.64634156227,1.0,0.0,0.0,0.0,1.0,0.0,0.0,0.0,1.0,-0.60812722168,0.392649072266,-10.2040874756,1.0,0.0,0.0,0.0,1.0,0.0,0.0,0.0,1.0
1463751155142871522,480,1463751155140993874,,-0.035612475127,-2.91672873497,-126.982803345,0.0200159996748,1.0,0.0,0.0,0.0,1.0,0.0,0.0,0.0,1.0,0.426829278469,-0.304878056049,-3.59756112099,1.0,0.0,0.0,0.0,1.0,0.0,0.0,0.0,1.0,-0.632069238281,0.517147558594,-10.1609918457,1.0,0.0,0.0,0.0,1.0,0.0,0.0,0.0,1.0
1463751155162651906,481,1463751155161052226,,-0.103388123214,-2.90273833275,-127.010543823,0.020204000175,1.0,0.0,0.0,0.0,1.0,0.0,0.0,0.0,1.0,1.64634156227,-0.365853667259,-1.76829278469,1.0,0.0,0.0,0.0,1.0,0.0,0.0,0.0,1.0,-0.718260498047,0.842758984375,-10.2376062988,1.0,0.0,0.0,0.0,1.0,0.0,0.0,0.0,1.0
1463751155182319635,482,1463751155180754537,,-0.140436947346,-2.88807225227,-126.988975525,0.0197599995881,1.0,0.0,0.0,0.0,1.0,0.0,0.0,0.0,1.0,2.31707310677,-0.731707334518,0.731707334518,1.0,0.0,0.0,0.0,1.0,0.0,0.0,0.0,1.0,-0.636857641602,0.679953271484,-10.1753570557,1.0,0.0,0.0,0.0,1.0,0.0,0.0,0.0,1.0
1463751155202269966,483,1463751155200717473,,-0.12218657881,-2.86364150047,-126.964355469,0.0200050007552,1.0,0.0,0.0,0.0,1.0,0.0,0.0,0.0,1.0,4.2682929039,-0.731707334518,0.914634168148,1.0,0.0,0.0,0.0,1.0,0.0,0.0,0.0,1.0,-0.550666381836,0.536301208408,-10.2280294922,1.0,0.0,0.0,0.0,1.0,0.0,0.0,0.0,1.0
1463751155222896493,484,1463751155220929209,,-0.0541188903153,-2.85789227486,-126.94959259,0.0200159996748,1.0,0.0,0.0,0.0,1.0,0.0,0.0,0.0,1.0,4.2682929039,-0.792682945728,0.548780500889,1.0,0.0,0.0,0.0,1.0,0.0,0.0,0.0,1.0,-0.699106884766,0.0861912597656,-10.1562034424,1.0,0.0,0.0,0.0,1.0,0.0,0.0,0.0,1.0
1463751155242608544,485,1463751155240707041,,-0.0251661408693,-2.85107159615,-126.912963867,0.0199769996107,1.0,0.0,0.0,0.0,1.0,0.0,0.0,0.0,1.0,2.19512200356,-0.670731723309,1.64634156227,1.0,0.0,0.0,0.0,1.0,0.0,0.0,0.0,1.0,-0.718260498047,0.0430956298828,-10.2711251221,1.0,0.0,0.0,0.0,1.0,0.0,0.0,0.0,1.0
1463751155264579127,486,1463751155262153408,,-0.0350845009089,-2.84138917923,-126.88684845,0.0200069993734,1.0,0.0,0.0,0.0,1.0,0.0,0.0,0.0,1.0,0.670731723309,-0.426829278469,1.09756100178,1.0,0.0,0.0,0.0,1.0,0.0,0.0,0.0,1.0,-0.737414111328,0.119710083008,-10.299855542,1.0,0.0,0.0,0.0,1.0,0.0,0.0,0.0,1.0
1463751155282537383,487,1463751155280933380,,-0.0247143786401,-2.8220872879,-126.901107788,0.0199849996716,1.0,0.0,0.0,0.0,1.0,0.0,0.0,0.0,1.0,1.70731711388,-0.304878056049,-0.914634168148,1.0,0.0,0.0,0.0,1.0,0.0,0.0,0.0,1.0,-0.670376464844,0.143652099609,-10.3094323486,1.0,0.0,0.0,0.0,1.0,0.0,0.0,0.0,1.0
1463751155302629485,488,1463751155301027148,,-0.0265512652695,-2.80801129341,-126.92817688,0.020096000284,1.0,0.0,0.0,0.0,1.0,0.0,0.0,0.0,1.0,1.8902438879,-0.365853667259,-1.58536589146,1.0,0.0,0.0,0.0,1.0,0.0,0.0,0.0,1.0,-0.703895288086,0.292092584273,-10.3046439453,1.0,0.0,0.0,0.0,1.0,0.0,0.0,0.0,1.0
1463751155322602108,489,1463751155320980656,,-0.0368041843176,-2.7903072834,-126.946716309,0.0199200008065,1.0,0.0,0.0,0.0,1.0,0.0,0.0,0.0,1.0,1.2195122242,-0.304878056049,-1.15853655338,1.0,0.0,0.0,0.0,1.0,0.0,0.0,0.0,1.0,-0.679953271484,0.244208569336,-10.3333743652,1.0,0.0,0.0,0.0,1.0,0.0,0.0,0.0,1.0
1463751155342776813,490,1463751155340846457,,-0.0823988318443,-2.76107931137,-126.938819885,0.019985999912,1.0,0.0,0.0,0.0,1.0,0.0,0.0,0.0,1.0,1.58536589146,-0.12195122242,0.0609756112099,1.0,0.0,0.0,0.0,1.0,0.0,0.0,0.0,1.0,-0.593762048251,0.612915625,-10.1322614258,1.0,0.0,0.0,0.0,1.0,0.0,0.0,0.0,1.0
1463751155362676937,491,1463751155361003923,,-0.105403549969,-2.73898172379,-126.93862915,0.0201379992068,1.0,0.0,0.0,0.0,1.0,0.0,0.0,0.0,1.0,2.37804889679,-0.243902444839,-0.304878056049,1.0,0.0,0.0,0.0,1.0,0.0,0.0,0.0,1.0,-0.646434448242,0.574608398438,-10.3621047852,1.0,0.0,0.0,0.0,1.0,0.0,0.0,0.0,1.0
1463751155383399504,492,1463751155380980192,,-0.0823678746819,-2.73220300674,-126.930000305,0.0198849998415,1.0,0.0,0.0,0.0,1.0,0.0,0.0,0.0,1.0,3.35365867615,-0.731707334518,0.18292683363,1.0,0.0,0.0,0.0,1.0,0.0,0.0,0.0,1.0,-0.689530078125,0.330399829102,-10.3285859619,1.0,0.0,0.0,0.0,1.0,0.0,0.0,0.0,1.0
1463751155403859990,493,1463751155400719014,,-0.0528795309365,-2.72670054436,-126.922164917,0.0199779998511,1.0,0.0,0.0,0.0,1.0,0.0,0.0,0.0,1.0,2.80487799644,-0.670731723309,0.18292683363,1.0,0.0,0.0,0.0,1.0,0.0,0.0,0.0,1.0,-0.708683691406,0.167594116211,-10.2902787354,1.0,0.0,0.0,0.0,1.0,0.0,0.0,0.0,1.0
1463751155424563287,494,1463751155420742626,,-0.0151418745518,-2.71552491188,-126.918479919,0.0200069993734,1.0,0.0,0.0,0.0,1.0,0.0,0.0,0.0,1.0,2.68292689323,-0.426829278469,-0.0,1.0,0.0,0.0,0.0,1.0,0.0,0.0,0.0,1.0,-0.699106884766,0.067037651051,-10.2711251221,1.0,0.0,0.0,0.0,1.0,0.0,0.0,0.0,1.0
1463751155444143411,495,1463751155440793373,,0.00170346314553,-2.69628882408,-126.921775818,0.0199970006943,1.0,0.0,0.0,0.0,1.0,0.0,0.0,0.0,1.0,2.01219511032,-0.304878056049,-0.365853667259,1.0,0.0,0.0,0.0,1.0,0.0,0.0,0.0,1.0,-0.636857641602,0.129286889648,-10.1274730225,1.0,0.0,0.0,0.0,1.0,0.0,0.0,0.0,1.0
1463751155462884789,496,1463751155460727038,,-0.00563396280631,-2.68521356583,-126.919784546,0.0199900008738,1.0,0.0,0.0,0.0,1.0,0.0,0.0,0.0,1.0,1.2195122242,-0.548780500889,-0.12195122242,1.0,0.0,0.0,0.0,1.0,0.0,0.0,0.0,1.0,-0.670376464844,0.201112939453,-10.2423947021,1.0,0.0,0.0,0.0,1.0,0.0,0.0,0.0,1.0
1463751155484390062,497,1463751155480685755,,-0.0265447460115,-2.68336224556,-126.918304443,0.0200069993734,1.0,0.0,0.0,0.0,1.0,0.0,0.0,0.0,1.0,1.2804877758,-0.609756112099,-0.18292683363,1.0,0.0,0.0,0.0,1.0,0.0,0.0,0.0,1.0,-0.737414111328,0.335188232422,-10.1897222656,1.0,0.0,0.0,0.0,1.0,0.0,0.0,0.0,1.0
1463751155503274148,498,1463751155501136188,,-0.0274158921093,-2.67756867409,-126.920768738,0.0200200006366,1.0,0.0,0.0,0.0,1.0,0.0,0.0,0.0,1.0,2.01219511032,-0.548780500889,-0.365853667259,1.0,0.0,0.0,0.0,1.0,0.0,0.0,0.0,1.0,-0.713472094727,0.292092584273,-10.2040874756,1.0,0.0,0.0,0.0,1.0,0.0,0.0,0.0,1.0
1463751155524283850,499,1463751155520922458,,-0.0331201218069,-2.66979980469,-126.920394897,0.0199929997325,1.0,0.0,0.0,0.0,1.0,0.0,0.0,0.0,1.0,2.19512200356,-0.426829278469,-0.243902444839,1.0,0.0,0.0,0.0,1.0,0.0,0.0,0.0,1.0,-0.718260498047,0.368707055664,-10.2280294922,1.0,0.0,0.0,0.0,1.0,0.0,0.0,0.0,1.0
1463751155544410066,500,1463751155540762269,,-0.0267736185342,-2.65508675575,-126.913970947,0.019991999492,1.0,0.0,0.0,0.0,1.0,0.0,0.0,0.0,1.0,2.74390244484,-0.487804889679,0.0609756112099,1.0,0.0,0.0,0.0,1.0,0.0,0.0,0.0,1.0,-0.646434448242,0.359130249023,-10.285490332,1.0,0.0,0.0,0.0,1.0,0.0,0.0,0.0,1.0
1463751155564509615,501,1463751155560722392,,-0.000374459603336,-2.64413285255,-126.908348083,0.0200330000371,1.0,0.0,0.0,0.0,1.0,0.0,0.0,0.0,1.0,2.86585378647,-0.304878056049,0.0609756112099,1.0,0.0,0.0,0.0,1.0,0.0,0.0,0.0,1.0,-0.703895288086,0.196324536133,-10.1753570557,1.0,0.0,0.0,0.0,1.0,0.0,0.0,0.0,1.0
1463751155584888382,502,1463751155581002982,,0.0236574299634,-2.63415360451,-126.901847839,0.0199730005115,1.0,0.0,0.0,0.0,1.0,0.0,0.0,0.0,1.0,2.37804889679,-0.487804889679,0.12195122242,1.0,0.0,0.0,0.0,1.0,0.0,0.0,0.0,1.0,-0.679953271484,0.124498486328,-10.2136642822,1.0,0.0,0.0,0.0,1.0,0.0,0.0,0.0,1.0
1463751155602854972,503,1463751155600690242,,0.0415050461888,-2.61742138863,-126.905128479,0.019999999553,1.0,0.0,0.0,0.0,1.0,0.0,0.0,0.0,1.0,2.07317066193,-0.0609756112099,-0.365853667259,1.0,0.0,0.0,0.0,1.0,0.0,0.0,0.0,1.0,-0.689530078125,0.124498486328,-10.1418382324,1.0,0.0,0.0,0.0,1.0,0.0,0.0,0.0,1.0
1463751155623817383,504,1463751155620820677,,0.0355058610439,-2.61177897453,-126.907577515,0.0199960004538,1.0,0.0,0.0,0.0,1.0,0.0,0.0,0.0,1.0,1.76829278469,-0.548780500889,-0.365853667259,1.0,0.0,0.0,0.0,1.0,0.0,0.0,0.0,1.0,-0.703895288086,0.282515795898,-10.2184526855,1.0,0.0,0.0,0.0,1.0,0.0,0.0,0.0,1.0
1463751155642344230,505,1463751155640683092,,0.0298098605126,-2.60357761383,-126.906211853,0.0199849996716,1.0,0.0,0.0,0.0,1.0,0.0,0.0,0.0,1.0,1.95121955872,-0.426829278469,-0.18292683363,1.0,0.0,0.0,0.0,1.0,0.0,0.0,0.0,1.0,-0.699106884766,0.31124621582,-10.180145459,1.0,0.0,0.0,0.0,1.0,0.0,0.0,0.0,1.0
1463751155662379614,506,1463751155660821131,,0.0199729651213,-2.59771156311,-126.899543762,0.0200100000948,1.0,0.0,0.0,0.0,1.0,0.0,0.0,0.0,1.0,2.19512200356,-0.365853667259,0.0609756112099,1.0,0.0,0.0,0.0,1.0,0.0,0.0,0.0,1.0,-0.723048901367,0.387860668945,-10.0843773926,1.0,0.0,0.0,0.0,1.0,0.0,0.0,0.0,1.0
1463751155682641298,507,1463751155680691619,,0.022194666788,-2.58710122108,-126.895721436,0.0200020000339,1.0,0.0,0.0,0.0,1.0,0.0,0.0,0.0,1.0,2.37804889679,-0.426829278469,-0.0609756112099,1.0,0.0,0.0,0.0,1.0,0.0,0.0,0.0,1.0,-0.679953271484,0.320823022461,-10.2567599121,1.0,0.0,0.0,0.0,1.0,0.0,0.0,0.0,1.0
1463751155702924649,508,1463751155700740387,,0.0387350209057,-2.57425141335,-126.891052246,0.0199989993125,1.0,0.0,0.0,0.0,1.0,0.0,0.0,0.0,1.0,2.68292689323,-0.365853667259,-0.0,1.0,0.0,0.0,0.0,1.0,0.0,0.0,0.0,1.0,-0.665588061523,0.244208569336,-10.2088758789,1.0,0.0,0.0,0.0,1.0,0.0,0.0,0.0,1.0
1463751155723307999,509,1463751155720912749,,0.0540327467024,-2.56675934792,-126.887710571,0.0200510006398,1.0,0.0,0.0,0.0,1.0,0.0,0.0,0.0,1.0,2.5,-0.487804889679,-0.0609756112099,1.0,0.0,0.0,0.0,1.0,0.0,0.0,0.0,1.0,-0.689530078125,0.220266552734,-10.2040874756,1.0,0.0,0.0,0.0,1.0,0.0,0.0,0.0,1.0
1463751155742935259,510,1463751155740806309,,0.0597849152982,-2.55876898766,-126.884376526,0.0199619997293,1.0,0.0,0.0,0.0,1.0,0.0,0.0,0.0,1.0,2.01219511032,-0.670731723309,-0.0609756112099,1.0,0.0,0.0,0.0,1.0,0.0,0.0,0.0,1.0,-0.651222851562,0.215478149414,-10.2184526855,1.0,0.0,0.0,0.0,1.0,0.0,0.0,0.0,1.0
1463751155763886107,511,1463751155761067473,,0.0592730343342,-2.55738067627,-126.880859375,0.0200839992613,1.0,0.0,0.0,0.0,1.0,0.0,0.0,0.0,1.0,1.8902438879,-0.487804889679,-0.0609756112099,1.0,0.0,0.0,0.0,1.0,0.0,0.0,0.0,1.0,-0.742202514648,0.248996972656,-10.2088758789,1.0,0.0,0.0,0.0,1.0,0.0,0.0,0.0,1.0
1463751155783652637,512,1463751155780878274,,0.0461426153779,-2.54195785522,-126.881904602,0.0199829991907,1.0,0.0,0.0,0.0,1.0,0.0,0.0,0.0,1.0,1.64634156227,-0.365853667259,-0.304878056049,1.0,0.0,0.0,0.0,1.0,0.0,0.0,0.0,1.0,-0.646434448242,0.325611425781,-10.3621047852,1.0,0.0,0.0,0.0,1.0,0.0,0.0,0.0,1.0
1463751155802916044,513,1463751155800856053,,0.0343959219754,-2.53488588333,-126.88646698,0.0199519991875,1.0,0.0,0.0,0.0,1.0,0.0,0.0,0.0,1.0,1.8902438879,-0.426829278469,-0.487804889679,1.0,0.0,0.0,0.0,1.0,0.0,0.0,0.0,1.0,-0.703895288086,0.359130249023,-10.285490332,1.0,0.0,0.0,0.0,1.0,0.0,0.0,0.0,1.0
1463751155823298405,514,1463751155820788676,,0.0257802158594,-2.5279006958,-126.882522583,0.0199580006301,1.0,0.0,0.0,0.0,1.0,0.0,0.0,0.0,1.0,2.01219511032,-0.243902444839,-0.0609756112099,1.0,0.0,0.0,0.0,1.0,0.0,0.0,0.0,1.0,-0.732625708008,0.349553442383,-10.2280294922,1.0,0.0,0.0,0.0,1.0,0.0,0.0,0.0,1.0
1463751155842887123,515,1463751155840784267,,0.033006478101,-2.51593852043,-126.881240845,0.0200539994985,1.0,0.0,0.0,0.0,1.0,0.0,0.0,0.0,1.0,2.56097555161,-0.426829278469,-0.18292683363,1.0,0.0,0.0,0.0,1.0,0.0,0.0,0.0,1.0,-0.660799658203,0.31124621582,-10.3429511719,1.0,0.0,0.0,0.0,1.0,0.0,0.0,0.0,1.0
1463751155863137193,516,1463751155860808453,,0.0354579724371,-2.51080322266,-126.881095886,0.0199480000883,1.0,0.0,0.0,0.0,1.0,0.0,0.0,0.0,1.0,2.43902444839,-0.609756112099,-0.243902444839,1.0,0.0,0.0,0.0,1.0,0.0,0.0,0.0,1.0,-0.684741674805,0.330399829102,-10.3046439453,1.0,0.0,0.0,0.0,1.0,0.0,0.0,0.0,1.0
1463751155883902573,517,1463751155880885919,,0.0567492060363,-2.51360654831,-126.875762939,0.020005999133,1.0,0.0,0.0,0.0,1.0,0.0,0.0,0.0,1.0,2.31707310677,-0.426829278469,0.0609756112099,1.0,0.0,0.0,0.0,1.0,0.0,0.0,0.0,1.0,-0.790086547852,0.134075302102,-10.3094323486,1.0,0.0,0.0,0.0,1.0,0.0,0.0,0.0,1.0
1463751155904033945,518,1463751155900736824,,0.0593309551477,-2.5042681694,-126.876243591,0.0199960004538,1.0,0.0,0.0,0.0,1.0,0.0,0.0,0.0,1.0,1.70731711388,-0.365853667259,-0.243902444839,1.0,0.0,0.0,0.0,1.0,0.0,0.0,0.0,1.0,-0.689530078125,0.191536132812,-10.2902787354,1.0,0.0,0.0,0.0,1.0,0.0,0.0,0.0,1.0
1463751155923722246,519,1463751155920729030,,0.0685306116939,-2.49331283569,-126.876655579,0.0199960004538,1.0,0.0,0.0,0.0,1.0,0.0,0.0,0.0,1.0,2.13414645195,-0.548780500889,-0.243902444839,1.0,0.0,0.0,0.0,1.0,0.0,0.0,0.0,1.0,-0.632069238281,0.205901342773,-10.165780249,1.0,0.0,0.0,0.0,1.0,0.0,0.0,0.0,1.0
1463751155942884664,520,1463751155940771548,,0.067147821188,-2.48568439484,-126.876754761,0.0199979990721,1.0,0.0,0.0,0.0,1.0,0.0,0.0,0.0,1.0,1.95121955872,-0.487804889679,-0.243902444839,1.0,0.0,0.0,0.0,1.0,0.0,0.0,0.0,1.0,-0.675164868164,0.268150604204,-10.2280294922,1.0,0.0,0.0,0.0,1.0,0.0,0.0,0.0,1.0
1463751155963842283,521,1463751155960752348,,0.068468183279,-2.48025751114,-126.873466492,0.020005999133,1.0,0.0,0.0,0.0,1.0,0.0,0.0,0.0,1.0,1.76829278469,-0.426829278469,-0.0609756112099,1.0,0.0,0.0,0.0,1.0,0.0,0.0,0.0,1.0,-0.708683691406,0.210689746094,-10.285490332,1.0,0.0,0.0,0.0,1.0,0.0,0.0,0.0,1.0
1463751155983957301,522,1463751155980912679,,0.0542281903327,-2.48126888275,-126.87562561,0.0199989993125,1.0,0.0,0.0,0.0,1.0,0.0,0.0,0.0,1.0,1.76829278469,-0.609756112099,-0.365853667259,1.0,0.0,0.0,0.0,1.0,0.0,0.0,0.0,1.0,-0.723048901367,0.349553442383,-10.1418382324,1.0,0.0,0.0,0.0,1.0,0.0,0.0,0.0,1.0
1463751156002941283,523,1463751156000779938,,0.0524050220847,-2.47507596016,-126.875297546,0.0200120005757,1.0,0.0,0.0,0.0,1.0,0.0,0.0,0.0,1.0,2.43902444839,-0.426829278469,-0.243902444839,1.0,0.0,0.0,0.0,1.0,0.0,0.0,0.0,1.0,-0.699106884766,0.363918652344,-10.2567599121,1.0,0.0,0.0,0.0,1.0,0.0,0.0,0.0,1.0
1463751156023181352,524,1463751156020796050,,0.0574482530355,-2.46188044548,-126.870429993,0.0199929997325,1.0,0.0,0.0,0.0,1.0,0.0,0.0,0.0,1.0,2.37804889679,-0.365853667259,-0.0,1.0,0.0,0.0,0.0,1.0,0.0,0.0,0.0,1.0,-0.641646044922,0.287304199219,-10.1992990723,1.0,0.0,0.0,0.0,1.0,0.0,0.0,0.0,1.0
1463751156042815800,525,1463751156040899558,,0.0517322905362,-2.45399093628,-126.864723206,0.0200110003352,1.0,0.0,0.0,0.0,1.0,0.0,0.0,0.0,1.0,2.80487799644,-0.426829278469,-0.0,1.0,0.0,0.0,0.0,1.0,0.0,0.0,0.0,1.0,-0.675164868164,0.45968671875,-10.180145459,1.0,0.0,0.0,0.0,1.0,0.0,0.0,0.0,1.0
1463751156063348993,526,1463751156060900410,,0.0924270004034,-2.4322924614,-126.927146912,0.019991999492,1.0,0.0,0.0,0.0,1.0,0.0,0.0,0.0,1.0,7.01219511032,-0.243902444839,-3.47560977936,1.0,0.0,0.0,0.0,1.0,0.0,0.0,0.0,1.0,-0.593762048251,0.842758984375,-10.3668931885,1.0,0.0,0.0,0.0,1.0,0.0,0.0,0.0,1.0
1463751156082586307,527,1463751156081036626,,0.166890963912,-2.42281198502,-126.922859192,0.0200100000948,1.0,0.0,0.0,0.0,1.0,0.0,0.0,0.0,1.0,7.98780536652,-0.18292683363,-0.12195122242,1.0,0.0,0.0,0.0,1.0,0.0,0.0,0.0,1.0,-0.699106884766,0.665588061523,-10.1705686523,1.0,0.0,0.0,0.0,1.0,0.0,0.0,0.0,1.0
1463751156102774866,528,1463751156100788625,,0.246017634869,-2.3748831749,-126.891052246,0.019980000332,1.0,0.0,0.0,0.0,1.0,0.0,0.0,0.0,1.0,8.78048801422,1.8902438879,1.2195122242,1.0,0.0,0.0,0.0,1.0,0.0,0.0,0.0,1.0,-0.727837304687,0.746990917969,-10.2376062988,1.0,0.0,0.0,0.0,1.0,0.0,0.0,0.0,1.0
1463751156123011603,529,1463751156120867393,,0.426056265831,-2.32301306725,-126.907989502,0.0200379993767,1.0,0.0,0.0,0.0,1.0,0.0,0.0,0.0,1.0,14.0243902206,1.15853655338,-1.2195122242,1.0,0.0,0.0,0.0,1.0,0.0,0.0,0.0,1.0,-0.550666381836,0.785298144531,-10.180145459,1.0,0.0,0.0,0.0,1.0,0.0,0.0,0.0,1.0
1463751156143002194,530,1463751156140719496,,0.655098557472,-2.30187034607,-126.866912842,0.0199599992484,1.0,0.0,0.0,0.0,1.0,0.0,0.0,0.0,1.0,15.7317075729,0.18292683363,1.70731711388,1.0,0.0,0.0,0.0,1.0,0.0,0.0,0.0,1.0,-0.646434448242,0.598550451572,-10.3333743652,1.0,0.0,0.0,0.0,1.0,0.0,0.0,0.0,1.0
1463751156163194764,531,1463751156160755556,,0.913414597511,-2.28326940536,-126.795143127,0.0200030002743,1.0,0.0,0.0,0.0,1.0,0.0,0.0,0.0,1.0,17.0121955872,0.0609756112099,3.23170733452,1.0,0.0,0.0,0.0,1.0,0.0,0.0,0.0,1.0,-0.627280834961,0.507570751953,-10.1514150391,1.0,0.0,0.0,0.0,1.0,0.0,0.0,0.0,1.0
1463751156184843942,532,1463751156181263958,,1.22939527035,-2.28816008568,-126.742492676,0.0200020000339,1.0,0.0,0.0,0.0,1.0,0.0,0.0,0.0,1.0,19.0853652954,-0.609756112099,2.31707310677,1.0,0.0,0.0,0.0,1.0,0.0,0.0,0.0,1.0,-0.732625708008,0.330399829102,-10.4099888184,1.0,0.0,0.0,0.0,1.0,0.0,0.0,0.0,1.0
1463751156203169385,533,1463751156200774343,,1.5998442173,-2.29936051369,-126.691101074,0.0200100000948,1.0,0.0,0.0,0.0,1.0,0.0,0.0,0.0,1.0,18.7804889679,-1.09756100178,2.37804889679,1.0,0.0,0.0,0.0,1.0,0.0,0.0,0.0,1.0,-0.684741674805,-0.277727392578,-10.1945106689,1.0,0.0,0.0,0.0,1.0,0.0,0.0,0.0,1.0
1463751156229708594,534,1463751156220846965,,1.97294390202,-2.30726861954,-126.599960327,0.0200360007584,1.0,0.0,0.0,0.0,1.0,0.0,0.0,0.0,1.0,14.6341466904,-0.914634168148,4.51219558716,1.0,0.0,0.0,0.0,1.0,0.0,0.0,0.0,1.0,-0.679953271484,-1.13485158691,-10.2328178955,1.0,0.0,0.0,0.0,1.0,0.0,0.0,0.0,1.0
1463751156243509681,535,1463751156240752870,,2.17661070824,-2.29951667786,-126.431091309,0.0199480000883,1.0,0.0,0.0,0.0,1.0,0.0,0.0,0.0,1.0,5.79268312454,-0.609756112099,8.41463470459,1.0,0.0,0.0,0.0,1.0,0.0,0.0,0.0,1.0,-0.555454785156,-1.28808049316,-10.0652237793,1.0,0.0,0.0,0.0,1.0,0.0,0.0,0.0,1.0
1463751156264817975,536,1463751156260970231,,2.27550578117,-2.30970573425,-126.299751282,0.0200319997966,1.0,0.0,0.0,0.0,1.0,0.0,0.0,0.0,1.0,0.12195122242,-0.609756112099,6.52439069748,1.0,0.0,0.0,0.0,1.0,0.0,0.0,0.0,1.0,-0.727837304687,-1.38863696289,-10.1035310059,1.0,0.0,0.0,0.0,1.0,0.0,0.0,0.0,1.0
1463751156283588781,537,1463751156281104520,,2.25755620003,-2.33671832085,-126.219100952,0.019980000332,1.0,0.0,0.0,0.0,1.0,0.0,0.0,0.0,1.0,-3.17073178291,-0.548780500889,3.90243911743,1.0,0.0,0.0,0.0,1.0,0.0,0.0,0.0,1.0,-0.943315454102,-0.962469067383,-10.4961800781,1.0,0.0,0.0,0.0,1.0,0.0,0.0,0.0,1.0
1463751156303118697,538,1463751156301009644,,2.19722890854,-2.33349561691,-126.247207642,0.0200219992548,1.0,0.0,0.0,0.0,1.0,0.0,0.0,0.0,1.0,-2.56097555161,-0.12195122242,-1.64634156227,1.0,0.0,0.0,0.0,1.0,0.0,0.0,0.0,1.0,-0.77093293457,-0.402225878906,-10.3237975586,1.0,0.0,0.0,0.0,1.0,0.0,0.0,0.0,1.0
1463751156329821500,539,1463751156321312786,,2.12743473053,-2.32926559448,-126.312271118,0.0200020000339,1.0,0.0,0.0,0.0,1.0,0.0,0.0,0.0,1.0,-1.70731711388,-0.304878056049,-3.53658556938,1.0,0.0,0.0,0.0,1.0,0.0,0.0,0.0,1.0,-0.737414111328,-0.134075302102,-10.2902787354,1.0,0.0,0.0,0.0,1.0,0.0,0.0,0.0,1.0
1463751156349881466,540,1463751156340739213,,2.00211882591,-2.29930233955,-126.336624146,0.0199640002102,1.0,0.0,0.0,0.0,1.0,0.0,0.0,0.0,1.0,-2.74390244484,-0.0609756112099,-1.58536589146,1.0,0.0,0.0,0.0,1.0,0.0,0.0,0.0,1.0,-0.531512805087,0.181959326172,-10.285490332,1.0,0.0,0.0,0.0,1.0,0.0,0.0,0.0,1.0
1463751156363466929,541,1463751156360679076,,1.84635066986,-2.29139137268,-126.338348389,0.0199939999729,1.0,0.0,0.0,0.0,1.0,0.0,0.0,0.0,1.0,-1.8902438879,0.0,-0.548780500889,1.0,0.0,0.0,0.0,1.0,0.0,0.0,0.0,1.0,-0.723048901367,0.622492431641,-10.165780249,1.0,0.0,0.0,0.0,1.0,0.0,0.0,0.0,1.0
1463751156382868773,542,1463751156380794875,,1.77880430222,-2.28991341591,-126.355918884,0.0200079996139,1.0,0.0,0.0,0.0,1.0,0.0,0.0,0.0,1.0,1.8292683363,-0.731707334518,-1.2804877758,1.0,0.0,0.0,0.0,1.0,0.0,0.0,0.0,1.0,-0.660799658203,0.536301208408,-10.3046439453,1.0,0.0,0.0,0.0,1.0,0.0,0.0,0.0,1.0
1463751156405275187,543,1463751156400908279,,1.78651845455,-2.28310871124,-126.356178284,0.0200580004603,1.0,0.0,0.0,0.0,1.0,0.0,0.0,0.0,1.0,4.39024400711,-0.792682945728,-0.365853667259,1.0,0.0,0.0,0.0,1.0,0.0,0.0,0.0,1.0,-0.584185168546,0.316034619141,-10.1035310059,1.0,0.0,0.0,0.0,1.0,0.0,0.0,0.0,1.0
1463751156422691936,544,1463751156420873871,,1.81524240971,-2.28921413422,-126.331756592,0.0199570003897,1.0,0.0,0.0,0.0,1.0,0.0,0.0,0.0,1.0,4.02439022064,-0.487804889679,0.914634168148,1.0,0.0,0.0,0.0,1.0,0.0,0.0,0.0,1.0,-0.756567724609,0.0526724365234,-10.2471831055,1.0,0.0,0.0,0.0,1.0,0.0,0.0,0.0,1.0
1463751156442700079,545,1463751156440691390,,1.87722957134,-2.28894066811,-126.315704346,0.0199880003929,1.0,0.0,0.0,0.0,1.0,0.0,0.0,0.0,1.0,4.32926845551,-0.487804889679,0.548780500889,1.0,0.0,0.0,0.0,1.0,0.0,0.0,0.0,1.0,-0.703895288086,-0.196324536133,-10.2759135254,1.0,0.0,0.0,0.0,1.0,0.0,0.0,0.0,1.0
1463751156462772077,546,1463751156461012345,,1.94322538376,-2.29623222351,-126.309204102,0.0200020000339,1.0,0.0,0.0,0.0,1.0,0.0,0.0,0.0,1.0,3.35365867615,-0.609756112099,0.12195122242,1.0,0.0,0.0,0.0,1.0,0.0,0.0,0.0,1.0,-0.751779321289,-0.416591088867,-10.2519715088,1.0,0.0,0.0,0.0,1.0,0.0,0.0,0.0,1.0
1463751156484411047,547,1463751156480871010,,1.96694481373,-2.29485988617,-126.31072998,0.020005999133,1.0,0.0,0.0,0.0,1.0,0.0,0.0,0.0,1.0,1.70731711388,-0.426829278469,-0.304878056049,1.0,0.0,0.0,0.0,1.0,0.0,0.0,0.0,1.0,-0.699106884766,-0.335188232422,-10.0939541992,1.0,0.0,0.0,0.0,1.0,0.0,0.0,0.0,1.0
1463751156502352585,548,1463751156500788842,,1.96752953529,-2.30100059509,-126.309684753,0.0199880003929,1.0,0.0,0.0,0.0,1.0,0.0,0.0,0.0,1.0,0.426829278469,-0.12195122242,-0.18292683363,1.0,0.0,0.0,0.0,1.0,0.0,0.0,0.0,1.0,-0.823605371094,-0.363918652344,-10.1370498291,1.0,0.0,0.0,0.0,1.0,0.0,0.0,0.0,1.0
1463751156522864893,549,1463751156520845527,,1.90718889236,-2.28351998329,-126.321098328,0.0200110003352,1.0,0.0,0.0,0.0,1.0,0.0,0.0,0.0,1.0,0.18292683363,-0.18292683363,-0.914634168148,1.0,0.0,0.0,0.0,1.0,0.0,0.0,0.0,1.0,-0.60812722168,0.143652099609,-10.1897222656,1.0,0.0,0.0,0.0,1.0,0.0,0.0,0.0,1.0
1463751156542811943,550,1463751156540761587,,1.86943948269,-2.27712106705,-126.317092896,0.0199900008738,1.0,0.0,0.0,0.0,1.0,0.0,0.0,0.0,1.0,0.670731723309,-0.0609756112099,-0.12195122242,1.0,0.0,0.0,0.0,1.0,0.0,0.0,0.0,1.0,-0.713472094727,0.0335188255255,-10.0652237793,1.0,0.0,0.0,0.0,1.0,0.0,0.0,0.0,1.0
1463751156562698889,551,1463751156560744887,,1.85398697853,-2.27456736565,-126.336990356,0.020027000457,1.0,0.0,0.0,0.0,1.0,0.0,0.0,0.0,1.0,2.86585378647,-0.426829278469,-1.34146344662,1.0,0.0,0.0,0.0,1.0,0.0,0.0,0.0,1.0,-0.699106884766,0.244208569336,-10.2232410889,1.0,0.0,0.0,0.0,1.0,0.0,0.0,0.0,1.0
1463751156582750835,552,1463751156580755270,,1.85280776024,-2.2814412117,-126.333946228,0.0199779998511,1.0,0.0,0.0,0.0,1.0,0.0,0.0,0.0,1.0,3.41463422775,-0.731707334518,-0.18292683363,1.0,0.0,0.0,0.0,1.0,0.0,0.0,0.0,1.0,-0.727837304687,0.210689746094,-10.3046439453,1.0,0.0,0.0,0.0,1.0,0.0,0.0,0.0,1.0
1463751156602375334,553,1463751156600768831,,1.84611010551,-2.29269814491,-126.308799744,0.0200020000339,1.0,0.0,0.0,0.0,1.0,0.0,0.0,0.0,1.0,3.17073178291,-0.670731723309,0.914634168148,1.0,0.0,0.0,0.0,1.0,0.0,0.0,0.0,1.0,-0.780509741211,0.210689746094,-10.3956236084,1.0,0.0,0.0,0.0,1.0,0.0,0.0,0.0,1.0
1463751156623902117,554,1463751156620931453,,1.88234257698,-2.29090476036,-126.308105469,0.0200219992548,1.0,0.0,0.0,0.0,1.0,0.0,0.0,0.0,1.0,3.71951246262,-0.548780500889,-0.243902444839,1.0,0.0,0.0,0.0,1.0,0.0,0.0,0.0,1.0,-0.679953271484,-0.0718260498047,-10.2136642822,1.0,0.0,0.0,0.0,1.0,0.0,0.0,0.0,1.0
1463751156642633912,555,1463751156640690848,,1.92434680462,-2.28513979912,-126.304573059,0.0199730005115,1.0,0.0,0.0,0.0,1.0,0.0,0.0,0.0,1.0,2.74390244484,-0.243902444839,-0.0609756112099,1.0,0.0,0.0,0.0,1.0,0.0,0.0,0.0,1.0,-0.703895288086,-0.31124621582,-10.299855542,1.0,0.0,0.0,0.0,1.0,0.0,0.0,0.0,1.0
1463751156664972567,556,1463751156660971698,,1.92592191696,-2.27915501595,-126.294578552,0.020027000457,1.0,0.0,0.0,0.0,1.0,0.0,0.0,0.0,1.0,1.2195122242,-0.426829278469,0.243902444839,1.0,0.0,0.0,0.0,1.0,0.0,0.0,0.0,1.0,-0.665588061523,-0.229843359375,-10.299855542,1.0,0.0,0.0,0.0,1.0,0.0,0.0,0.0,1.0
1463751156682598585,557,1463751156680667760,,1.90947449207,-2.28316283226,-126.299797058,0.0199650004506,1.0,0.0,0.0,0.0,1.0,0.0,0.0,0.0,1.0,1.09756100178,-0.304878056049,-0.548780500889,1.0,0.0,0.0,0.0,1.0,0.0,0.0,0.0,1.0,-0.775721337891,-0.0814028564453,-10.2088758789,1.0,0.0,0.0,0.0,1.0,0.0,0.0,0.0,1.0
1463751156702408396,558,1463751156700869288,,1.88367962837,-2.27963423729,-126.299667358,0.0200330000371,1.0,0.0,0.0,0.0,1.0,0.0,0.0,0.0,1.0,1.15853655338,-0.243902444839,-0.304878056049,1.0,0.0,0.0,0.0,1.0,0.0,0.0,0.0,1.0,-0.718260498047,0.0143652099609,-10.2184526855,1.0,0.0,0.0,0.0,1.0,0.0,0.0,0.0,1.0
1463751156723170859,559,1463751156720762172,,1.8528444767,-2.27469229698,-126.297050476,0.0199730005115,1.0,0.0,0.0,0.0,1.0,0.0,0.0,0.0,1.0,1.2804877758,-0.609756112099,-0.18292683363,1.0,0.0,0.0,0.0,1.0,0.0,0.0,0.0,1.0,-0.636857641602,0.0861912597656,-10.2040874756,1.0,0.0,0.0,0.0,1.0,0.0,0.0,0.0,1.0
1463751156743199211,560,1463751156740875575,,1.83801841736,-2.27384161949,-126.296440125,0.0200229994953,1.0,0.0,0.0,0.0,1.0,0.0,0.0,0.0,1.0,2.56097555161,-0.487804889679,-0.304878056049,1.0,0.0,0.0,0.0,1.0,0.0,0.0,0.0,1.0,-0.689530078125,0.177170922852,-10.1131078125,1.0,0.0,0.0,0.0,1.0,0.0,0.0,0.0,1.0
1463751156763220792,561,1463751156760817574,,1.84228682518,-2.27528572083,-126.291427612,0.0199929997325,1.0,0.0,0.0,0.0,1.0,0.0,0.0,0.0,1.0,3.04878044128,-0.670731723309,-0.0609756112099,1.0,0.0,0.0,0.0,1.0,0.0,0.0,0.0,1.0,-0.684741674805,0.0957680664062,-10.2471831055,1.0,0.0,0.0,0.0,1.0,0.0,0.0,0.0,1.0
1463751156782793053,562,1463751156780739155,,1.86722540855,-2.27065658569,-126.278503418,0.0199820008129,1.0,0.0,0.0,0.0,1.0,0.0,0.0,0.0,1.0,3.04878044128,-0.365853667259,0.365853667259,1.0,0.0,0.0,0.0,1.0,0.0,0.0,0.0,1.0,-0.684741674805,-0.0957680664062,-10.2759135254,1.0,0.0,0.0,0.0,1.0,0.0,0.0,0.0,1.0
1463751156802788696,563,1463751156800711726,,1.90446794033,-2.26152443886,-126.274436951,0.0200130008161,1.0,0.0,0.0,0.0,1.0,0.0,0.0,0.0,1.0,3.10975623131,-0.18292683363,-0.0609756112099,1.0,0.0,0.0,0.0,1.0,0.0,0.0,0.0,1.0,-0.675164868164,-0.196324536133,-10.2184526855,1.0,0.0,0.0,0.0,1.0,0.0,0.0,0.0,1.0
1463751156823183765,564,1463751156820694245,,1.91587436199,-2.25874066353,-126.273887634,0.0200030002743,1.0,0.0,0.0,0.0,1.0,0.0,0.0,0.0,1.0,2.13414645195,-0.365853667259,-0.243902444839,1.0,0.0,0.0,0.0,1.0,0.0,0.0,0.0,1.0,-0.694318481445,-0.143652099609,-10.1514150391,1.0,0.0,0.0,0.0,1.0,0.0,0.0,0.0,1.0
