%time,field.header.seq,field.header.stamp,field.header.frame_id,field.orientation.x,field.orientation.y,field.orientation.z,field.orientation.w,field.orientation_covariance0,field.orientation_covariance1,field.orientation_covariance2,field.orientation_covariance3,field.orientation_covariance4,field.orientation_covariance5,field.orientation_covariance6,field.orientation_covariance7,field.orientation_covariance8,field.angular_velocity.x,field.angular_velocity.y,field.angular_velocity.z,field.angular_velocity_covariance0,field.angular_velocity_covariance1,field.angular_velocity_covariance2,field.angular_velocity_covariance3,field.angular_velocity_covariance4,field.angular_velocity_covariance5,field.angular_velocity_covariance6,field.angular_velocity_covariance7,field.angular_velocity_covariance8,field.linear_acceleration.x,field.linear_acceleration.y,field.linear_acceleration.z,field.linear_acceleration_covariance0,field.linear_acceleration_covariance1,field.linear_acceleration_covariance2,field.linear_acceleration_covariance3,field.linear_acceleration_covariance4,field.linear_acceleration_covariance5,field.linear_acceleration_covariance6,field.linear_acceleration_covariance7,field.linear_acceleration_covariance8
1464117347956585858,173,1464117347747228631,,-3.40436077118,124.628158569,-114.241569519,0.0199730005115,1.0,0.0,0.0,0.0,1.0,0.0,0.0,0.0,1.0,-0.365853667259,2.5,0.18292683363,1.0,0.0,0.0,0.0,1.0,0.0,0.0,0.0,1.0,0.067037651051,-0.541089611728,10.3237975586,1.0,0.0,0.0,0.0,1.0,0.0,0.0,0.0,1.0
1464117347956626170,174,1464117347767484512,,-3.54323816299,123.647903442,-114.078865051,0.00104999996256,1.0,0.0,0.0,0.0,1.0,0.0,0.0,0.0,1.0,-0.18292683363,5.06097555161,0.548780500889,1.0,0.0,0.0,0.0,1.0,0.0,0.0,0.0,1.0,-0.100556469727,-0.445321508789,10.2376062988,1.0,0.0,0.0,0.0,1.0,0.0,0.0,0.0,1.0
1464117347956661066,175,1464117347788247527,,-3.65160250664,122.66897583,-113.898994446,0.00110899994615,1.0,0.0,0.0,0.0,1.0,0.0,0.0,0.0,1.0,-0.365853667259,4.87804889679,-0.548780500889,1.0,0.0,0.0,0.0,1.0,0.0,0.0,0.0,1.0,0.114921679688,-1.66636435547,10.3812583984,1.0,0.0,0.0,0.0,1.0,0.0,0.0,0.0,1.0
1464117347957548147,176,1464117347809604655,,-3.89653682709,121.638465881,-113.65120697,0.00127400003839,1.0,0.0,0.0,0.0,1.0,0.0,0.0,0.0,1.0,0.243902444839,14.0243902206,5.73170757294,1.0,0.0,0.0,0.0,1.0,0.0,0.0,0.0,1.0,-0.143652099609,-0.560243188477,10.1322614258,1.0,0.0,0.0,0.0,1.0,0.0,0.0,0.0,1.0
1464117347957597157,177,1464117347830928918,,-4.25071716309,120.592842102,-113.369773865,0.00252399989404,1.0,0.0,0.0,0.0,1.0,0.0,0.0,0.0,1.0,0.0,14.6951217651,8.71951198578,1.0,0.0,0.0,0.0,1.0,0.0,0.0,0.0,1.0,-0.699106884766,-0.450109912109,9.91199487305,1.0,0.0,0.0,0.0,1.0,0.0,0.0,0.0,1.0
1464117347957635282,178,1464117347853868958,,-4.4230427742,119.526313782,-113.094062805,0.00124999997206,1.0,0.0,0.0,0.0,1.0,0.0,0.0,0.0,1.0,-0.365853667259,6.34146356583,1.2804877758,1.0,0.0,0.0,0.0,1.0,0.0,0.0,0.0,1.0,-1.55144267578,-0.450109912109,9.82580361328,1.0,0.0,0.0,0.0,1.0,0.0,0.0,0.0,1.0
1464117347957668511,179,1464117347872886144,,-4.40075969696,118.506408691,-112.962295532,0.00133999995887,1.0,0.0,0.0,0.0,1.0,0.0,0.0,0.0,1.0,0.18292683363,-1.34146344662,-5.12195110321,1.0,0.0,0.0,0.0,1.0,0.0,0.0,0.0,1.0,-0.191536132812,-0.426167895508,10.2280294922,1.0,0.0,0.0,0.0,1.0,0.0,0.0,0.0,1.0
1464117347957713199,180,1464117347895159624,,-4.22252321243,117.444488525,-112.870742798,0.00110100000165,1.0,0.0,0.0,0.0,1.0,0.0,0.0,0.0,1.0,-1.64634156227,-7.25609779358,-8.29268264771,1.0,0.0,0.0,0.0,1.0,0.0,0.0,0.0,1.0,0.0957680664062,-0.292092584273,10.3094323486,1.0,0.0,0.0,0.0,1.0,0.0,0.0,0.0,1.0
1464117347957875542,181,1464117347916741282,,-4.20613288879,116.307182312,-112.722068787,0.00227700010873,1.0,0.0,0.0,0.0,1.0,0.0,0.0,0.0,1.0,-0.0609756112099,7.56097555161,0.914634168148,1.0,0.0,0.0,0.0,1.0,0.0,0.0,0.0,1.0,0.737414111328,-0.445321508789,10.4530844482,1.0,0.0,0.0,0.0,1.0,0.0,0.0,0.0,1.0
1464117347957946583,182,1464117347940444705,,-4.51842784882,115.247299194,-112.421020508,0.00113099999726,1.0,0.0,0.0,0.0,1.0,0.0,0.0,0.0,1.0,-2.01219511032,15.4268302917,8.71951198578,1.0,0.0,0.0,0.0,1.0,0.0,0.0,0.0,1.0,-0.641646044922,-0.785298144531,10.3190091553,1.0,0.0,0.0,0.0,1.0,0.0,0.0,0.0,1.0
1464117347964274430,183,1464117347961390688,,-4.71569395065,114.168235779,-112.141563416,0.00134499999695,1.0,0.0,0.0,0.0,1.0,0.0,0.0,0.0,1.0,-0.548780500889,7.43902492523,2.19512200356,1.0,0.0,0.0,0.0,1.0,0.0,0.0,0.0,1.0,-1.17794714373,-0.402225878906,10.0652237793,1.0,0.0,0.0,0.0,1.0,0.0,0.0,0.0,1.0
1464117347986372598,184,1464117347984175572,,-4.72750425339,112.853179932,-111.930747986,0.00525900023058,1.0,0.0,0.0,0.0,1.0,0.0,0.0,0.0,1.0,-1.46341466904,-1.58536589146,-1.58536589146,1.0,0.0,0.0,0.0,1.0,0.0,0.0,0.0,1.0,-0.737414111328,-0.330399829102,10.0029745361,1.0,0.0,0.0,0.0,1.0,0.0,0.0,0.0,1.0
1464117348007192643,185,1464117348004826660,,-4.58682107925,111.722358704,-111.871635437,0.00182899995707,1.0,0.0,0.0,0.0,1.0,0.0,0.0,0.0,1.0,0.0609756112099,-8.29268264771,-5.85365867615,1.0,0.0,0.0,0.0,1.0,0.0,0.0,0.0,1.0,-0.392649072266,-0.972045874023,10.1131078125,1.0,0.0,0.0,0.0,1.0,0.0,0.0,0.0,1.0
1464117348030828202,186,1464117348025673425,,-4.47717094421,110.615364075,-111.807884216,0.000986999948509,1.0,0.0,0.0,0.0,1.0,0.0,0.0,0.0,1.0,-0.426829278469,-3.71951246262,-5.67073154449,1.0,0.0,0.0,0.0,1.0,0.0,0.0,0.0,1.0,0.181959326172,-0.344765039063,9.97424411621,1.0,0.0,0.0,0.0,1.0,0.0,0.0,0.0,1.0
1464117348049993670,187,1464117348046887220,,-4.51013422012,109.48197937,-111.649665833,0.00176000001375,1.0,0.0,0.0,0.0,1.0,0.0,0.0,0.0,1.0,-1.15853655338,2.56097555161,0.975609779358,1.0,0.0,0.0,0.0,1.0,0.0,0.0,0.0,1.0,0.167594116211,-0.493205541992,10.3094323486,1.0,0.0,0.0,0.0,1.0,0.0,0.0,0.0,1.0
1464117348070249863,188,1464117348067290340,,-4.63831996918,108.366271973,-111.419212341,0.00151299999561,1.0,0.0,0.0,0.0,1.0,0.0,0.0,0.0,1.0,-0.914634168148,7.19512224197,1.2195122242,1.0,0.0,0.0,0.0,1.0,0.0,0.0,0.0,1.0,-0.225054956055,-0.651222851562,10.2615483154,1.0,0.0,0.0,0.0,1.0,0.0,0.0,0.0,1.0
1464117348092312093,189,1464117348087927418,,-4.71768665314,107.242347717,-111.187782288,0.00127699994482,1.0,0.0,0.0,0.0,1.0,0.0,0.0,0.0,1.0,-0.487804889679,5.97560977936,1.76829278469,1.0,0.0,0.0,0.0,1.0,0.0,0.0,0.0,1.0,0.0335188255255,-0.732625708008,9.96466730957,1.0,0.0,0.0,0.0,1.0,0.0,0.0,0.0,1.0
1464117348114253386,190,1464117348108967202,,-4.82677936554,106.108520508,-110.928573608,0.00148700003047,1.0,0.0,0.0,0.0,1.0,0.0,0.0,0.0,1.0,-1.09756100178,8.10975551605,2.86585378647,1.0,0.0,0.0,0.0,1.0,0.0,0.0,0.0,1.0,-0.335188232422,-0.837970581055,10.1753570557,1.0,0.0,0.0,0.0,1.0,0.0,0.0,0.0,1.0
1464117348135574211,191,1464117348129624749,,-4.91290473938,104.907241821,-110.664855957,0.00104600004852,1.0,0.0,0.0,0.0,1.0,0.0,0.0,0.0,1.0,-1.64634156227,6.82926845551,2.68292689323,1.0,0.0,0.0,0.0,1.0,0.0,0.0,0.0,1.0,-0.790086547852,-0.531512805087,10.3333743652,1.0,0.0,0.0,0.0,1.0,0.0,0.0,0.0,1.0
1464117348153757390,192,1464117348150976252,,-4.94613838196,103.714401245,-110.440620422,0.00101200002246,1.0,0.0,0.0,0.0,1.0,0.0,0.0,0.0,1.0,-0.914634168148,3.65853667259,1.95121955872,1.0,0.0,0.0,0.0,1.0,0.0,0.0,0.0,1.0,-0.981622680664,-0.450109912109,10.2328178955,1.0,0.0,0.0,0.0,1.0,0.0,0.0,0.0,1.0
1464117348174562696,193,1464117348172187755,,-4.93306159973,102.522941589,-110.252548218,0.00106599996798,1.0,0.0,0.0,0.0,1.0,0.0,0.0,0.0,1.0,-0.365853667259,0.0609756112099,0.853658556938,1.0,0.0,0.0,0.0,1.0,0.0,0.0,0.0,1.0,-0.976834277344,-0.61770402832,10.3477395752,1.0,0.0,0.0,0.0,1.0,0.0,0.0,0.0,1.0
1464117348195521752,194,1464117348193142071,,-4.89410734177,101.351989746,-110.14050293,0.00101200002246,1.0,0.0,0.0,0.0,1.0,0.0,0.0,0.0,1.0,0.487804889679,-2.92682933807,-2.68292689323,1.0,0.0,0.0,0.0,1.0,0.0,0.0,0.0,1.0,-0.574608398438,-0.785298144531,10.0556469727,1.0,0.0,0.0,0.0,1.0,0.0,0.0,0.0,1.0
1464117348217362941,195,1464117348213953054,,-4.76976251602,100.196922302,-110.106178284,0.00113900005817,1.0,0.0,0.0,0.0,1.0,0.0,0.0,0.0,1.0,-0.670731723309,-7.62195110321,-6.40243911743,1.0,0.0,0.0,0.0,1.0,0.0,0.0,0.0,1.0,0.0143652099609,-0.0526724365234,10.3477395752,1.0,0.0,0.0,0.0,1.0,0.0,0.0,0.0,1.0
1464117348236833772,196,1464117348234954871,,-4.78452777863,99.004989624,-109.98589325,0.000958000018727,1.0,0.0,0.0,0.0,1.0,0.0,0.0,0.0,1.0,1.03658533096,2.56097555161,-1.40243899822,1.0,0.0,0.0,0.0,1.0,0.0,0.0,0.0,1.0,0.60812722168,0.646434448242,11.3245738525,1.0,0.0,0.0,0.0,1.0,0.0,0.0,0.0,1.0
1464117348258417045,197,1464117348255297157,,-4.93833351135,97.8293075562,-109.690658569,0.000962999998592,1.0,0.0,0.0,0.0,1.0,0.0,0.0,0.0,1.0,1.58536589146,9.5731716156,7.74390268326,1.0,0.0,0.0,0.0,1.0,0.0,0.0,0.0,1.0,-0.134075302102,-0.550666381836,10.2232410889,1.0,0.0,0.0,0.0,1.0,0.0,0.0,0.0,1.0
1464117348278893602,198,1464117348276069756,,-5.08399772644,96.6141815186,-109.345405579,0.000962999998592,1.0,0.0,0.0,0.0,1.0,0.0,0.0,0.0,1.0,0.0,7.43902492523,5.18292713165,1.0,0.0,0.0,0.0,1.0,0.0,0.0,0.0,1.0,-0.670376464844,-0.512359155273,10.0939541992,1.0,0.0,0.0,0.0,1.0,0.0,0.0,0.0,1.0
1464117348301664059,199,1464117348297091311,,-5.0922794342,95.3945236206,-109.135223389,0.000962999998592,1.0,0.0,0.0,0.0,1.0,0.0,0.0,0.0,1.0,0.426829278469,0.487804889679,1.09756100178,1.0,0.0,0.0,0.0,1.0,0.0,0.0,0.0,1.0,-0.0861912597656,-0.253785375977,10.2328178955,1.0,0.0,0.0,0.0,1.0,0.0,0.0,0.0,1.0
1464117348320262028,200,1464117348318547345,,-5.05553388596,94.1652832031,-108.959770203,0.00097499997355,1.0,0.0,0.0,0.0,1.0,0.0,0.0,0.0,1.0,0.792682945728,-0.426829278469,-0.18292683363,1.0,0.0,0.0,0.0,1.0,0.0,0.0,0.0,1.0,-0.268150604204,-0.598550451572,10.2902787354,1.0,0.0,0.0,0.0,1.0,0.0,0.0,0.0,1.0
1464117348341805874,201,1464117348339398745,,-5.05755662918,92.9832763672,-108.820579529,0.00106999999844,1.0,0.0,0.0,0.0,1.0,0.0,0.0,0.0,1.0,-0.0609756112099,1.34146344662,-0.12195122242,1.0,0.0,0.0,0.0,1.0,0.0,0.0,0.0,1.0,-0.316034619141,-0.478840332031,9.98860932617,1.0,0.0,0.0,0.0,1.0,0.0,0.0,0.0,1.0
1464117348362058577,202,1464117348359833063,,-5.03761196136,91.7834777832,-108.657951355,0.00137099996209,1.0,0.0,0.0,0.0,1.0,0.0,0.0,0.0,1.0,-0.365853667259,0.365853667259,0.731707334518,1.0,0.0,0.0,0.0,1.0,0.0,0.0,0.0,1.0,-0.565031591797,-0.383072265625,9.95987890625,1.0,0.0,0.0,0.0,1.0,0.0,0.0,0.0,1.0
1464117348383421903,203,1464117348381292117,,-5.04486465454,90.5340957642,-108.491157532,0.00115899997763,1.0,0.0,0.0,0.0,1.0,0.0,0.0,0.0,1.0,-0.12195122242,0.853658556938,0.609756112099,1.0,0.0,0.0,0.0,1.0,0.0,0.0,0.0,1.0,-0.114921679688,-0.440533105469,10.2711251221,1.0,0.0,0.0,0.0,1.0,0.0,0.0,0.0,1.0
1464117348405880069,204,1464117348402959088,,-5.0517783165,89.285697937,-108.312080383,0.0013569999719,1.0,0.0,0.0,0.0,1.0,0.0,0.0,0.0,1.0,-0.487804889679,0.731707334518,1.40243899822,1.0,0.0,0.0,0.0,1.0,0.0,0.0,0.0,1.0,-0.0383072265625,-0.483628735352,10.3668931885,1.0,0.0,0.0,0.0,1.0,0.0,0.0,0.0,1.0
1464117348428434694,205,1464117348424810433,,-5.0407781601,88.0050964355,-108.125099182,0.00159899995197,1.0,0.0,0.0,0.0,1.0,0.0,0.0,0.0,1.0,-0.18292683363,-0.243902444839,0.0609756112099,1.0,0.0,0.0,0.0,1.0,0.0,0.0,0.0,1.0,-0.45489831543,-0.60812722168,10.4482960449,1.0,0.0,0.0,0.0,1.0,0.0,0.0,0.0,1.0
1464117348447795733,206,1464117348445884801,,-4.92763328552,86.8020553589,-108.047523499,0.00132299994584,1.0,0.0,0.0,0.0,1.0,0.0,0.0,0.0,1.0,-1.70731711388,-7.01219511032,-5.60975599289,1.0,0.0,0.0,0.0,1.0,0.0,0.0,0.0,1.0,-0.584185168546,-0.488417138672,9.86411083984,1.0,0.0,0.0,0.0,1.0,0.0,0.0,0.0,1.0
1464117348468643279,207,1464117348466235994,,-4.78488206863,85.6237945557,-108.038299561,0.00106100004632,1.0,0.0,0.0,0.0,1.0,0.0,0.0,0.0,1.0,0.0,-2.62195134163,-5.60975599289,1.0,0.0,0.0,0.0,1.0,0.0,0.0,0.0,1.0,-0.143652099609,-0.632069238281,10.4243540283,1.0,0.0,0.0,0.0,1.0,0.0,0.0,0.0,1.0
1464117348489224159,208,1464117348486777135,,-4.77743196487,84.4162521362,-107.842819214,0.0010529999854,1.0,0.0,0.0,0.0,1.0,0.0,0.0,0.0,1.0,-0.304878056049,6.52439069748,5.36585378647,1.0,0.0,0.0,0.0,1.0,0.0,0.0,0.0,1.0,0.416591088867,-0.857124194336,10.6829278076,1.0,0.0,0.0,0.0,1.0,0.0,0.0,0.0,1.0
1464117348510591860,209,1464117348508565199,,-4.87945795059,83.1576004028,-107.480674744,0.000974000024144,1.0,0.0,0.0,0.0,1.0,0.0,0.0,0.0,1.0,-1.2804877758,7.92682981491,6.95121955872,1.0,0.0,0.0,0.0,1.0,0.0,0.0,0.0,1.0,-0.905008227539,-0.46447512207,9.95987890625,1.0,0.0,0.0,0.0,1.0,0.0,0.0,0.0,1.0
1464117348531718415,210,1464117348529454203,,-4.80624675751,81.9283447266,-107.284057617,0.00118400005158,1.0,0.0,0.0,0.0,1.0,0.0,0.0,0.0,1.0,-0.487804889679,-2.92682933807,-6.46341466904,1.0,0.0,0.0,0.0,1.0,0.0,0.0,0.0,1.0,-0.368707055664,-0.45489831543,9.89284125977,1.0,0.0,0.0,0.0,1.0,0.0,0.0,0.0,1.0
1464117348551981640,211,1464117348549998781,,-4.63338279724,80.7478027344,-107.231002808,0.00110800005496,1.0,0.0,0.0,0.0,1.0,0.0,0.0,0.0,1.0,-2.13414645195,0.365853667259,-7.01219511032,1.0,0.0,0.0,0.0,1.0,0.0,0.0,0.0,1.0,0.234631762695,-0.421379492187,10.3237975586,1.0,0.0,0.0,0.0,1.0,0.0,0.0,0.0,1.0
1464117348573245747,212,1464117348570954295,,-4.63681221008,79.5310668945,-106.971549988,0.00101100001484,1.0,0.0,0.0,0.0,1.0,0.0,0.0,0.0,1.0,0.487804889679,13.5975618362,6.70731735229,1.0,0.0,0.0,0.0,1.0,0.0,0.0,0.0,1.0,-0.268150604204,-0.593762048251,10.2280294922,1.0,0.0,0.0,0.0,1.0,0.0,0.0,0.0,1.0
1464117348593385326,213,1464117348591457623,,-4.68111085892,78.3185653687,-106.543243408,0.000977999996394,1.0,0.0,0.0,0.0,1.0,0.0,0.0,0.0,1.0,1.15853655338,9.81707286835,5.36585378647,1.0,0.0,0.0,0.0,1.0,0.0,0.0,0.0,1.0,-0.727837304687,-0.119710083008,9.74918916016,1.0,0.0,0.0,0.0,1.0,0.0,0.0,0.0,1.0
1464117348613868498,214,1464117348611945795,,-4.51833534241,77.1498260498,-106.36706543,0.000998000032268,1.0,0.0,0.0,0.0,1.0,0.0,0.0,0.0,1.0,0.853658556938,-2.5,-8.71951198578,1.0,0.0,0.0,0.0,1.0,0.0,0.0,0.0,1.0,-0.584185168546,0.0526724365234,9.62469125835,1.0,0.0,0.0,0.0,1.0,0.0,0.0,0.0,1.0
1464117348635103959,215,1464117348633105059,,-4.30967712402,75.9463424683,-106.338134766,0.000964000006206,1.0,0.0,0.0,0.0,1.0,0.0,0.0,0.0,1.0,-1.58536589146,-1.34146344662,-7.25609779358,1.0,0.0,0.0,0.0,1.0,0.0,0.0,0.0,1.0,0.181959326172,-0.751779321289,10.5823713379,1.0,0.0,0.0,0.0,1.0,0.0,0.0,0.0,1.0
1464117348656027338,216,1464117348653835053,,-4.23165464401,74.7678527832,-106.167510986,0.000960999983363,1.0,0.0,0.0,0.0,1.0,0.0,0.0,0.0,1.0,-0.548780500889,7.07317113876,-0.426829278469,1.0,0.0,0.0,0.0,1.0,0.0,0.0,0.0,1.0,0.277727392578,-0.694318481445,10.2902787354,1.0,0.0,0.0,0.0,1.0,0.0,0.0,0.0,1.0
1464117348677423320,217,1464117348675173430,,-4.15033388138,73.5401916504,-105.84236908,0.000981000019237,1.0,0.0,0.0,0.0,1.0,0.0,0.0,0.0,1.0,-0.792682945728,8.90243911743,0.975609779358,1.0,0.0,0.0,0.0,1.0,0.0,0.0,0.0,1.0,-0.335188232422,-0.497993945312,10.2423947021,1.0,0.0,0.0,0.0,1.0,0.0,0.0,0.0,1.0
1464117348699839038,218,1464117348696533579,,-4.02155256271,72.3226776123,-105.561912537,0.000980000011623,1.0,0.0,0.0,0.0,1.0,0.0,0.0,0.0,1.0,-0.548780500889,6.40243911743,-1.76829278469,1.0,0.0,0.0,0.0,1.0,0.0,0.0,0.0,1.0,-0.426167895508,-0.450109912109,10.060435376,1.0,0.0,0.0,0.0,1.0,0.0,0.0,0.0,1.0
1464117348719521327,219,1464117348717140553,,-3.9074511528,71.1529541016,-105.293899536,0.000966000021435,1.0,0.0,0.0,0.0,1.0,0.0,0.0,0.0,1.0,-0.426829278469,9.26829242706,2.01219511032,1.0,0.0,0.0,0.0,1.0,0.0,0.0,0.0,1.0,0.129286889648,-0.737414111328,10.4913916748,1.0,0.0,0.0,0.0,1.0,0.0,0.0,0.0,1.0
1464117348743155532,220,1464117348738474347,,-3.82020545006,69.9475326538,-104.917869568,0.000987999956124,1.0,0.0,0.0,0.0,1.0,0.0,0.0,0.0,1.0,-0.731707334518,9.08536529541,6.82926845551,1.0,0.0,0.0,0.0,1.0,0.0,0.0,0.0,1.0,-0.885854614258,-0.560243188477,10.2040874756,1.0,0.0,0.0,0.0,1.0,0.0,0.0,0.0,1.0
1464117348762585686,221,1464117348760037568,,-3.63224244118,68.7633590698,-104.729034424,0.00118599995039,1.0,0.0,0.0,0.0,1.0,0.0,0.0,0.0,1.0,0.365853667259,-3.7804877758,-4.45121955872,1.0,0.0,0.0,0.0,1.0,0.0,0.0,0.0,1.0,-1.49877023926,-0.373495458984,9.73961235352,1.0,0.0,0.0,0.0,1.0,0.0,0.0,0.0,1.0
1464117348783717866,222,1464117348780553136,,-3.45773029327,67.6672592163,-104.829559326,0.00161299994215,1.0,0.0,0.0,0.0,1.0,0.0,0.0,0.0,1.0,-0.243902444839,-7.86585378647,-6.40243911743,1.0,0.0,0.0,0.0,1.0,0.0,0.0,0.0,1.0,0.110133276367,-0.354341845703,10.3812583984,1.0,0.0,0.0,0.0,1.0,0.0,0.0,0.0,1.0
1464117348805261816,223,1464117348802008023,,-3.36666226387,66.5092773438,-104.796188354,0.00118400005158,1.0,0.0,0.0,0.0,1.0,0.0,0.0,0.0,1.0,0.975609779358,0.975609779358,-1.15853655338,1.0,0.0,0.0,0.0,1.0,0.0,0.0,0.0,1.0,-0.15801730957,-0.603338854892,10.3908352051,1.0,0.0,0.0,0.0,1.0,0.0,0.0,0.0,1.0
1464117348826650663,224,1464117348822396300,,-3.30518889427,65.3942718506,-104.640632629,0.00118200003635,1.0,0.0,0.0,0.0,1.0,0.0,0.0,0.0,1.0,-0.304878056049,2.43902444839,2.37804889679,1.0,0.0,0.0,0.0,1.0,0.0,0.0,0.0,1.0,0.0287304199219,-0.531512805087,10.2759135254,1.0,0.0,0.0,0.0,1.0,0.0,0.0,0.0,1.0
1464117348849701067,225,1464117348843324054,,-3.21137666702,64.2620849609,-104.46346283,0.00117399997544,1.0,0.0,0.0,0.0,1.0,0.0,0.0,0.0,1.0,-0.914634168148,1.64634156227,-0.670731723309,1.0,0.0,0.0,0.0,1.0,0.0,0.0,0.0,1.0,-0.579396801758,-0.517147558594,9.84495722656,1.0,0.0,0.0,0.0,1.0,0.0,0.0,0.0,1.0
1464117348869534657,226,1464117348864048319,,-3.12610626221,63.1631698608,-104.346557617,0.00120199995581,1.0,0.0,0.0,0.0,1.0,0.0,0.0,0.0,1.0,-0.243902444839,2.01219511032,-0.670731723309,1.0,0.0,0.0,0.0,1.0,0.0,0.0,0.0,1.0,-0.0239420166016,-0.426167895508,10.3190091553,1.0,0.0,0.0,0.0,1.0,0.0,0.0,0.0,1.0
1464117348887126691,227,1464117348884537376,,-3.02039003372,62.0753097534,-104.199203491,0.00108399998862,1.0,0.0,0.0,0.0,1.0,0.0,0.0,0.0,1.0,-0.243902444839,2.01219511032,0.670731723309,1.0,0.0,0.0,0.0,1.0,0.0,0.0,0.0,1.0,-0.339976635742,-0.435744702148,10.4818148682,1.0,0.0,0.0,0.0,1.0,0.0,0.0,0.0,1.0
1464117348907346479,228,1464117348905045079,,-2.939193964,60.9939079285,-104.045928955,0.00105500000063,1.0,0.0,0.0,0.0,1.0,0.0,0.0,0.0,1.0,-0.426829278469,3.65853667259,-0.243902444839,1.0,0.0,0.0,0.0,1.0,0.0,0.0,0.0,1.0,0.0239420166016,-0.909796630859,10.0317049561,1.0,0.0,0.0,0.0,1.0,0.0,0.0,0.0,1.0
1464117348929407511,229,1464117348926324030,,-2.87594532967,59.8766136169,-103.783737183,0.00112399994396,1.0,0.0,0.0,0.0,1.0,0.0,0.0,0.0,1.0,0.12195122242,9.63414573669,6.46341466904,1.0,0.0,0.0,0.0,1.0,0.0,0.0,0.0,1.0,0.239420166016,-0.426167895508,10.2615483154,1.0,0.0,0.0,0.0,1.0,0.0,0.0,0.0,1.0
1464117348949738131,230,1464117348947098711,,-2.76959490776,58.7971916199,-103.469848633,0.000973000016529,1.0,0.0,0.0,0.0,1.0,0.0,0.0,0.0,1.0,-0.548780500889,3.53658556938,3.84146332741,1.0,0.0,0.0,0.0,1.0,0.0,0.0,0.0,1.0,-1.24498486328,-1.22104284668,10.1466266357,1.0,0.0,0.0,0.0,1.0,0.0,0.0,0.0,1.0
1464117348977930604,231,1464117348968002298,,-2.60816836357,57.7564163208,-103.493789673,0.00257900008,1.0,0.0,0.0,0.0,1.0,0.0,0.0,0.0,1.0,1.09756100178,-8.5365858078,-7.13414621353,1.0,0.0,0.0,0.0,1.0,0.0,0.0,0.0,1.0,-0.679953271484,-0.694318481445,10.0412817627,1.0,0.0,0.0,0.0,1.0,0.0,0.0,0.0,1.0
1464117348992284262,232,1464117348989472186,,-2.53665757179,56.7382965088,-103.5570755,0.00118000002112,1.0,0.0,0.0,0.0,1.0,0.0,0.0,0.0,1.0,-0.487804889679,-0.731707334518,-4.57317066193,1.0,0.0,0.0,0.0,1.0,0.0,0.0,0.0,1.0,0.205901342773,-0.488417138672,9.86889924316,1.0,0.0,0.0,0.0,1.0,0.0,0.0,0.0,1.0
1464117349012134779,233,1464117349009825775,,-2.47279906273,55.7046051025,-103.31060791,0.00106499996036,1.0,0.0,0.0,0.0,1.0,0.0,0.0,0.0,1.0,-0.12195122242,10.8536586761,8.17073154449,1.0,0.0,0.0,0.0,1.0,0.0,0.0,0.0,1.0,-0.0814028564453,-0.794874951172,9.94551369629,1.0,0.0,0.0,0.0,1.0,0.0,0.0,0.0,1.0
1464117349032145504,234,1464117349030111864,,-2.36286330223,54.6694602966,-103.004562378,0.00106200005393,1.0,0.0,0.0,0.0,1.0,0.0,0.0,0.0,1.0,-0.914634168148,4.39024400711,4.2682929039,1.0,0.0,0.0,0.0,1.0,0.0,0.0,0.0,1.0,-0.387860668945,0.31124621582,10.3621047852,1.0,0.0,0.0,0.0,1.0,0.0,0.0,0.0,1.0
1464117349053075550,235,1464117349051421388,,-2.20362234116,53.6481170654,-103.033996582,0.000975999981165,1.0,0.0,0.0,0.0,1.0,0.0,0.0,0.0,1.0,-0.426829278469,-6.64634132385,-7.25609779358,1.0,0.0,0.0,0.0,1.0,0.0,0.0,0.0,1.0,-0.45489831543,-0.225054956055,9.70130512695,1.0,0.0,0.0,0.0,1.0,0.0,0.0,0.0,1.0
1464117349074565907,236,1464117349072483517,,-2.12156748772,52.6686706543,-103.086624146,0.00101600005291,1.0,0.0,0.0,0.0,1.0,0.0,0.0,0.0,1.0,-1.2195122242,-0.365853667259,-3.35365867615,1.0,0.0,0.0,0.0,1.0,0.0,0.0,0.0,1.0,0.0814028564453,-0.641646044922,10.419565625,1.0,0.0,0.0,0.0,1.0,0.0,0.0,0.0,1.0
1464117349095989232,237,1464117349093655384,,-2.0541343689,51.6505355835,-102.914627075,0.000959999975748,1.0,0.0,0.0,0.0,1.0,0.0,0.0,0.0,1.0,-0.365853667259,4.69512224197,4.08536577225,1.0,0.0,0.0,0.0,1.0,0.0,0.0,0.0,1.0,-0.225054956055,-0.703895288086,10.3668931885,1.0,0.0,0.0,0.0,1.0,0.0,0.0,0.0,1.0
1464117349117038704,238,1464117349114530638,,-1.90868389606,50.6460151672,-102.7578125,0.000983000034466,1.0,0.0,0.0,0.0,1.0,0.0,0.0,0.0,1.0,1.15853655338,0.731707334518,-0.548780500889,1.0,0.0,0.0,0.0,1.0,0.0,0.0,0.0,1.0,-0.603338854892,-0.732625708008,10.7451770508,1.0,0.0,0.0,0.0,1.0,0.0,0.0,0.0,1.0
1464117349138027031,239,1464117349135625736,,-1.80180370808,49.6639862061,-102.791221619,0.000968999986071,1.0,0.0,0.0,0.0,1.0,0.0,0.0,0.0,1.0,-0.853658556938,-2.56097555161,-4.57317066193,1.0,0.0,0.0,0.0,1.0,0.0,0.0,0.0,1.0,-0.0909796630859,-0.3064578125,10.1226846191,1.0,0.0,0.0,0.0,1.0,0.0,0.0,0.0,1.0
1464117349160316396,240,1464117349156642135,,-1.73330879211,48.7043571472,-102.726127625,0.00096700002905,1.0,0.0,0.0,0.0,1.0,0.0,0.0,0.0,1.0,-0.18292683363,5.30487823486,-0.365853667259,1.0,0.0,0.0,0.0,1.0,0.0,0.0,0.0,1.0,0.15801730957,-0.569819995117,10.4530844482,1.0,0.0,0.0,0.0,1.0,0.0,0.0,0.0,1.0
1464117349182725448,241,1464117349180820140,,-1.57944905758,47.7533187866,-102.525512695,0.000966000021435,1.0,0.0,0.0,0.0,1.0,0.0,0.0,0.0,1.0,-0.548780500889,7.62195110321,0.426829278469,1.0,0.0,0.0,0.0,1.0,0.0,0.0,0.0,1.0,-0.541089611728,-0.699106884766,9.80186159668,1.0,0.0,0.0,0.0,1.0,0.0,0.0,0.0,1.0
1464117349203762212,242,1464117349201704613,,-1.406291008,46.787147522,-102.348365784,0.00105600000825,1.0,0.0,0.0,0.0,1.0,0.0,0.0,0.0,1.0,-1.03658533096,9.93902492523,0.670731723309,1.0,0.0,0.0,0.0,1.0,0.0,0.0,0.0,1.0,-0.15322890625,-0.469263525391,10.6541973877,1.0,0.0,0.0,0.0,1.0,0.0,0.0,0.0,1.0
1464117349226599908,243,1464117349222983512,,-1.1650800705,45.7971153259,-102.042869568,0.00207099993713,1.0,0.0,0.0,0.0,1.0,0.0,0.0,0.0,1.0,-0.731707334518,9.45121955872,5.54878091812,1.0,0.0,0.0,0.0,1.0,0.0,0.0,0.0,1.0,-1.24498486328,-0.521935925381,10.2088758789,1.0,0.0,0.0,0.0,1.0,0.0,0.0,0.0,1.0
1464117349250391092,244,1464117349245079752,,-0.92554795742,44.7752838135,-101.97744751,0.005379000213,1.0,0.0,0.0,0.0,1.0,0.0,0.0,0.0,1.0,0.548780500889,-3.84146332741,-6.52439069748,1.0,0.0,0.0,0.0,1.0,0.0,0.0,0.0,1.0,-1.16837033709,-0.46447512207,9.98860932617,1.0,0.0,0.0,0.0,1.0,0.0,0.0,0.0,1.0
1464117349267756928,245,1464117349265547716,,-0.858557879925,43.919380188,-102.103019714,0.00679099978879,1.0,0.0,0.0,0.0,1.0,0.0,0.0,0.0,1.0,0.304878056049,-3.47560977936,-4.08536577225,1.0,0.0,0.0,0.0,1.0,0.0,0.0,0.0,1.0,0.239420166016,-0.488417138672,10.314220752,1.0,0.0,0.0,0.0,1.0,0.0,0.0,0.0,1.0
1464117349289959470,246,1464117349287156926,,-0.753478646278,43.0132865906,-102.050666809,0.00195099995472,1.0,0.0,0.0,0.0,1.0,0.0,0.0,0.0,1.0,-0.426829278469,3.29268312454,1.34146344662,1.0,0.0,0.0,0.0,1.0,0.0,0.0,0.0,1.0,-0.373495458984,-0.727837304687,10.2184526855,1.0,0.0,0.0,0.0,1.0,0.0,0.0,0.0,1.0
1464117349310955505,247,1464117349308464835,,-0.649525642395,42.1264457703,-101.936325073,0.00104200001806,1.0,0.0,0.0,0.0,1.0,0.0,0.0,0.0,1.0,-0.670731723309,3.96341490746,-0.487804889679,1.0,0.0,0.0,0.0,1.0,0.0,0.0,0.0,1.0,-0.330399829102,-0.521935925381,10.1945106689,1.0,0.0,0.0,0.0,1.0,0.0,0.0,0.0,1.0
1464117349331420396,248,1464117349328815612,,-0.527045309544,41.294467926,-101.885421753,0.00121100002434,1.0,0.0,0.0,0.0,1.0,0.0,0.0,0.0,1.0,-0.670731723309,0.853658556938,0.0609756112099,1.0,0.0,0.0,0.0,1.0,0.0,0.0,0.0,1.0,-0.258573779297,-0.545877978516,10.2088758789,1.0,0.0,0.0,0.0,1.0,0.0,0.0,0.0,1.0
1464117349351563777,249,1464117349349580918,,-0.423982739449,40.4538421631,-101.792373657,0.00120900000911,1.0,0.0,0.0,0.0,1.0,0.0,0.0,0.0,1.0,-0.18292683363,4.69512224197,0.792682945728,1.0,0.0,0.0,0.0,1.0,0.0,0.0,0.0,1.0,-0.397437475586,-0.588973571866,10.2950671387,1.0,0.0,0.0,0.0,1.0,0.0,0.0,0.0,1.0
1464117349373440851,250,1464117349370728099,,-0.292239457369,39.604675293,-101.703445435,0.000960999983363,1.0,0.0,0.0,0.0,1.0,0.0,0.0,0.0,1.0,-0.243902444839,2.37804889679,-0.18292683363,1.0,0.0,0.0,0.0,1.0,0.0,0.0,0.0,1.0,-0.31124621582,-0.502782348633,10.2423947021,1.0,0.0,0.0,0.0,1.0,0.0,0.0,0.0,1.0
1464117349394344699,251,1464117349391388666,,-0.15812420845,38.7961578369,-101.641334534,0.000969999993686,1.0,0.0,0.0,0.0,1.0,0.0,0.0,0.0,1.0,-0.609756112099,3.04878044128,-0.243902444839,1.0,0.0,0.0,0.0,1.0,0.0,0.0,0.0,1.0,-0.46447512207,-1.27850368652,10.285490332,1.0,0.0,0.0,0.0,1.0,0.0,0.0,0.0,1.0
1464117349415358130,252,1464117349412315847,,-0.0255090501159,37.9971580505,-101.567184448,0.000988999963738,1.0,0.0,0.0,0.0,1.0,0.0,0.0,0.0,1.0,1.76829278469,1.64634156227,-0.609756112099,1.0,0.0,0.0,0.0,1.0,0.0,0.0,0.0,1.0,-0.00478840332031,-0.646434448242,11.152191333,1.0,0.0,0.0,0.0,1.0,0.0,0.0,0.0,1.0
1464117349435072658,253,1464117349433324382,,0.113861039281,37.2070350647,-101.494026184,0.00109200004954,1.0,0.0,0.0,0.0,1.0,0.0,0.0,0.0,1.0,-6.28048801422,6.58536624908,1.58536589146,1.0,0.0,0.0,0.0,1.0,0.0,0.0,0.0,1.0,-0.45968671875,-1.1875240965,10.2711251221,1.0,0.0,0.0,0.0,1.0,0.0,0.0,0.0,1.0
1464117349456309109,254,1464117349453822293,,0.253604054451,36.4530487061,-101.289001465,0.00108399998862,1.0,0.0,0.0,0.0,1.0,0.0,0.0,0.0,1.0,-4.87804889679,9.14634132385,7.43902492523,1.0,0.0,0.0,0.0,1.0,0.0,0.0,0.0,1.0,-0.972045874023,-0.866701000977,10.2471831055,1.0,0.0,0.0,0.0,1.0,0.0,0.0,0.0,1.0
1464117349477968580,255,1464117349474779995,,0.380104511976,35.7244300842,-101.10710907,0.000975999981165,1.0,0.0,0.0,0.0,1.0,0.0,0.0,0.0,1.0,-2.68292689323,0.426829278469,3.96341490746,1.0,0.0,0.0,0.0,1.0,0.0,0.0,0.0,1.0,-1.26892687988,-0.976834277344,11.3054202393,1.0,0.0,0.0,0.0,1.0,0.0,0.0,0.0,1.0
1464117349498640084,256,1464117349496038738,,0.449651330709,34.9416313171,-101.114631653,0.0010229999898,1.0,0.0,0.0,0.0,1.0,0.0,0.0,0.0,1.0,5.36585378647,-6.15853643417,-1.15853655338,1.0,0.0,0.0,0.0,1.0,0.0,0.0,0.0,1.0,-0.483628735352,-0.61770402832,9.43794235981,1.0,0.0,0.0,0.0,1.0,0.0,0.0,0.0,1.0
1464117349520137785,257,1464117349517594406,,0.398725748062,34.1917190552,-101.199813843,0.00110300001688,1.0,0.0,0.0,0.0,1.0,0.0,0.0,0.0,1.0,-1.70731711388,-7.56097555161,-2.74390244484,1.0,0.0,0.0,0.0,1.0,0.0,0.0,0.0,1.0,-0.76135612793,-0.105344873047,9.95509050293,1.0,0.0,0.0,0.0,1.0,0.0,0.0,0.0,1.0
1464117349542684909,258,1464117349538601275,,0.324502319098,33.4744606018,-101.345718384,0.00105500000063,1.0,0.0,0.0,0.0,1.0,0.0,0.0,0.0,1.0,-1.58536589146,-7.31707334518,-4.02439022064,1.0,0.0,0.0,0.0,1.0,0.0,0.0,0.0,1.0,0.363918652344,-0.61770402832,10.0508585693,1.0,0.0,0.0,0.0,1.0,0.0,0.0,0.0,1.0
1464117349566748904,259,1464117349559630851,,0.316399872303,32.7907485962,-101.349502563,0.00137700000778,1.0,0.0,0.0,0.0,1.0,0.0,0.0,0.0,1.0,-4.32926845551,6.28048801422,2.19512200356,1.0,0.0,0.0,0.0,1.0,0.0,0.0,0.0,1.0,-0.0430956298828,-1.00556469727,10.1178962158,1.0,0.0,0.0,0.0,1.0,0.0,0.0,0.0,1.0
1464117349586081819,260,1464117349582811516,,0.45544692874,32.1027488708,-101.099250793,0.00121699995361,1.0,0.0,0.0,0.0,1.0,0.0,0.0,0.0,1.0,0.487804889679,9.14634132385,7.80487823486,1.0,0.0,0.0,0.0,1.0,0.0,0.0,0.0,1.0,-0.584185168546,-0.0239420166016,9.65821008159,1.0,0.0,0.0,0.0,1.0,0.0,0.0,0.0,1.0
1464117349614861061,261,1464117349603823592,,0.586921572685,31.4091091156,-100.998313904,0.00119700003415,1.0,0.0,0.0,0.0,1.0,0.0,0.0,0.0,1.0,-1.58536589146,-3.84146332741,-3.84146332741,1.0,0.0,0.0,0.0,1.0,0.0,0.0,0.0,1.0,-0.77093293457,-0.526724328702,10.8361567139,1.0,0.0,0.0,0.0,1.0,0.0,0.0,0.0,1.0
1464117349625666552,262,1464117349623419110,,0.567371726036,30.6772136688,-101.216896057,0.00217500003055,1.0,0.0,0.0,0.0,1.0,0.0,0.0,0.0,1.0,1.46341466904,-7.68292665482,-8.29268264771,1.0,0.0,0.0,0.0,1.0,0.0,0.0,0.0,1.0,-0.0814028564453,-0.660799658203,9.46667277974,1.0,0.0,0.0,0.0,1.0,0.0,0.0,0.0,1.0
1464117349647402637,263,1464117349644695457,,0.520298540592,29.9797019958,-101.277107239,0.00149599998258,1.0,0.0,0.0,0.0,1.0,0.0,0.0,0.0,1.0,1.03658533096,2.74390244484,-2.01219511032,1.0,0.0,0.0,0.0,1.0,0.0,0.0,0.0,1.0,0.565031591797,-0.507570751953,11.03248125,1.0,0.0,0.0,0.0,1.0,0.0,0.0,0.0,1.0
1464117349667665497,264,1464117349665613680,,0.66018396616,29.2658996582,-101.140258789,0.000995000009425,1.0,0.0,0.0,0.0,1.0,0.0,0.0,0.0,1.0,1.8902438879,7.37804937363,2.98780488968,1.0,0.0,0.0,0.0,1.0,0.0,0.0,0.0,1.0,0.00957680664062,-0.383072265625,10.1466266357,1.0,0.0,0.0,0.0,1.0,0.0,0.0,0.0,1.0
1464117349688706896,265,1464117349686649298,,0.821646153927,28.5672626495,-101.045516968,0.00120299996343,1.0,0.0,0.0,0.0,1.0,0.0,0.0,0.0,1.0,-1.76829278469,5.36585378647,-0.426829278469,1.0,0.0,0.0,0.0,1.0,0.0,0.0,0.0,1.0,-0.268150604204,-0.550666381836,9.81622680664,1.0,0.0,0.0,0.0,1.0,0.0,0.0,0.0,1.0
1464117349709822358,266,1464117349707390229,,0.945762038231,27.943813324,-101.001121521,0.00101200002246,1.0,0.0,0.0,0.0,1.0,0.0,0.0,0.0,1.0,1.46341466904,6.82926845551,-1.2195122242,1.0,0.0,0.0,0.0,1.0,0.0,0.0,0.0,1.0,0.220266552734,-0.421379492187,10.8505219238,1.0,0.0,0.0,0.0,1.0,0.0,0.0,0.0,1.0
1464117349730244853,267,1464117349728326942,,1.13924813271,27.2822971344,-100.840110779,0.000954999995884,1.0,0.0,0.0,0.0,1.0,0.0,0.0,0.0,1.0,0.0609756112099,13.841463089,4.63414621353,1.0,0.0,0.0,0.0,1.0,0.0,0.0,0.0,1.0,-0.134075302102,-0.895431420898,10.060435376,1.0,0.0,0.0,0.0,1.0,0.0,0.0,0.0,1.0
1464117349751730418,268,1464117349749436778,,1.38494634628,26.6430606842,-100.578445435,0.00100100005511,1.0,0.0,0.0,0.0,1.0,0.0,0.0,0.0,1.0,0.609756112099,13.3536586761,5.18292713165,1.0,0.0,0.0,0.0,1.0,0.0,0.0,0.0,1.0,-0.976834277344,-0.699106884766,10.4099888184,1.0,0.0,0.0,0.0,1.0,0.0,0.0,0.0,1.0
1464117349772762338,269,1464117349770412657,,1.64507818222,26.0547485352,-100.454826355,0.001007999992,1.0,0.0,0.0,0.0,1.0,0.0,0.0,0.0,1.0,-2.31707310677,7.07317113876,-1.58536589146,1.0,0.0,0.0,0.0,1.0,0.0,0.0,0.0,1.0,-1.75255561523,-0.162805712891,9.52892319194,1.0,0.0,0.0,0.0,1.0,0.0,0.0,0.0,1.0
1464117349794153580,270,1464117349791893535,,1.80760037899,25.5072040558,-100.462287903,0.00099400000181,1.0,0.0,0.0,0.0,1.0,0.0,0.0,0.0,1.0,0.853658556938,0.609756112099,-0.243902444839,1.0,0.0,0.0,0.0,1.0,0.0,0.0,0.0,1.0,-0.938527050781,-0.751779321289,10.405200415,1.0,0.0,0.0,0.0,1.0,0.0,0.0,0.0,1.0
1464117349814654096,271,1464117349812187280,,1.94350171089,24.9243965149,-100.432853699,0.00101799995173,1.0,0.0,0.0,0.0,1.0,0.0,0.0,0.0,1.0,-1.15853655338,0.0609756112099,1.2804877758,1.0,0.0,0.0,0.0,1.0,0.0,0.0,0.0,1.0,-1.03429511719,-1.06302561017,10.0412817627,1.0,0.0,0.0,0.0,1.0,0.0,0.0,0.0,1.0
1464117349835484975,272,1464117349833197586,,1.98338186741,24.3416576385,-100.451599121,0.000979000004008,1.0,0.0,0.0,0.0,1.0,0.0,0.0,0.0,1.0,2.56097555161,-6.09756088257,-2.74390244484,1.0,0.0,0.0,0.0,1.0,0.0,0.0,0.0,1.0,-0.253785375977,-1.30723410645,10.912771167,1.0,0.0,0.0,0.0,1.0,0.0,0.0,0.0,1.0
1464117349856460958,273,1464117349854169454,,1.87409925461,23.7791957855,-100.635177612,0.000982000026852,1.0,0.0,0.0,0.0,1.0,0.0,0.0,0.0,1.0,-2.37804889679,-11.2804880142,-6.64634132385,1.0,0.0,0.0,0.0,1.0,0.0,0.0,0.0,1.0,0.0239420166016,-0.268150604204,10.2902787354,1.0,0.0,0.0,0.0,1.0,0.0,0.0,0.0,1.0
1464117349876841370,274,1464117349874818198,,1.78628051281,23.2772636414,-100.807563782,0.000959999975748,1.0,0.0,0.0,0.0,1.0,0.0,0.0,0.0,1.0,-1.95121955872,-4.75609779358,-3.10975623131,1.0,0.0,0.0,0.0,1.0,0.0,0.0,0.0,1.0,0.138863696289,-0.790086547852,10.2280294922,1.0,0.0,0.0,0.0,1.0,0.0,0.0,0.0,1.0
1464117349898046623,275,1464117349895918348,,1.76967000961,22.7742862701,-100.822319031,0.0010000000475,1.0,0.0,0.0,0.0,1.0,0.0,0.0,0.0,1.0,-1.52439022064,0.365853667259,1.8292683363,1.0,0.0,0.0,0.0,1.0,0.0,0.0,0.0,1.0,-0.100556469727,-0.660799658203,10.7451770508,1.0,0.0,0.0,0.0,1.0,0.0,0.0,0.0,1.0
1464117349919917031,276,1464117349916758446,,1.79512822628,22.2642765045,-100.751441956,0.00100599997677,1.0,0.0,0.0,0.0,1.0,0.0,0.0,0.0,1.0,-0.18292683363,9.02439117432,1.8902438879,1.0,0.0,0.0,0.0,1.0,0.0,0.0,0.0,1.0,0.0814028564453,0.0430956298828,9.41878874653,1.0,0.0,0.0,0.0,1.0,0.0,0.0,0.0,1.0
1464117349944900346,277,1464117349940560202,,1.93809854984,21.6894359589,-100.525428772,0.00243099988438,1.0,0.0,0.0,0.0,1.0,0.0,0.0,0.0,1.0,-1.03658533096,9.14634132385,8.71951198578,1.0,0.0,0.0,0.0,1.0,0.0,0.0,0.0,1.0,-0.225054956055,-0.239420166016,10.0700121826,1.0,0.0,0.0,0.0,1.0,0.0,0.0,0.0,1.0
1464117349972445373,278,1464117349963551856,,2.09559106827,21.1772212982,-100.446975708,0.00390900019556,1.0,0.0,0.0,0.0,1.0,0.0,0.0,0.0,1.0,-0.304878056049,-2.86585378647,-4.75609779358,1.0,0.0,0.0,0.0,1.0,0.0,0.0,0.0,1.0,-0.646434448242,-0.416591088867,10.5488525146,1.0,0.0,0.0,0.0,1.0,0.0,0.0,0.0,1.0
1464117349990537354,279,1464117349984377371,,2.06334590912,20.6488418579,-100.67578125,0.00365999992937,1.0,0.0,0.0,0.0,1.0,0.0,0.0,0.0,1.0,1.70731711388,-5.42682933807,-10.3658542633,1.0,0.0,0.0,0.0,1.0,0.0,0.0,0.0,1.0,-0.105344873047,-0.45489831543,10.6446205811,1.0,0.0,0.0,0.0,1.0,0.0,0.0,0.0,1.0
1464117350008748969,280,1464117350004916845,,2.10088205338,20.1408042908,-100.689620972,0.00333199999295,1.0,0.0,0.0,0.0,1.0,0.0,0.0,0.0,1.0,2.43902444839,8.04878044128,4.57317066193,1.0,0.0,0.0,0.0,1.0,0.0,0.0,0.0,1.0,0.828393774414,-0.588973571866,10.4147772217,1.0,0.0,0.0,0.0,1.0,0.0,0.0,0.0,1.0
1464117350028343862,281,1464117350026080952,,2.36365890503,19.6603336334,-100.420768738,0.00144000002183,1.0,0.0,0.0,0.0,1.0,0.0,0.0,0.0,1.0,-1.70731711388,13.3536586761,7.86585378647,1.0,0.0,0.0,0.0,1.0,0.0,0.0,0.0,1.0,-0.268150604204,-0.258573779297,10.2711251221,1.0,0.0,0.0,0.0,1.0,0.0,0.0,0.0,1.0
1464117350050681769,282,1464117350047549382,,2.59145545959,19.1602935791,-100.238319397,0.0017640000442,1.0,0.0,0.0,0.0,1.0,0.0,0.0,0.0,1.0,-3.17073178291,6.7682929039,2.92682933807,1.0,0.0,0.0,0.0,1.0,0.0,0.0,0.0,1.0,-0.225054956055,-0.450109912109,10.1705686523,1.0,0.0,0.0,0.0,1.0,0.0,0.0,0.0,1.0
1464117350071250357,283,1464117350069056926,,2.7483086586,18.6977138519,-100.265151978,0.00136700004805,1.0,0.0,0.0,0.0,1.0,0.0,0.0,0.0,1.0,-0.792682945728,-2.01219511032,-3.47560977936,1.0,0.0,0.0,0.0,1.0,0.0,0.0,0.0,1.0,-0.531512805087,-0.651222851562,10.165780249,1.0,0.0,0.0,0.0,1.0,0.0,0.0,0.0,1.0
1464117350092220194,284,1464117350090169575,,2.75319623947,18.2353534698,-100.34752655,0.00127600005362,1.0,0.0,0.0,0.0,1.0,0.0,0.0,0.0,1.0,-0.304878056049,-2.37804889679,-3.96341490746,1.0,0.0,0.0,0.0,1.0,0.0,0.0,0.0,1.0,0.440533105469,-0.833182177734,10.778695874,1.0,0.0,0.0,0.0,1.0,0.0,0.0,0.0,1.0
1464117350113463885,285,1464117350111193318,,2.80863809586,17.7811126709,-100.370880127,0.00126199994702,1.0,0.0,0.0,0.0,1.0,0.0,0.0,0.0,1.0,0.18292683363,4.81707286835,2.5,1.0,0.0,0.0,0.0,1.0,0.0,0.0,0.0,1.0,-0.560243188477,-0.866701000977,9.58159562847,1.0,0.0,0.0,0.0,1.0,0.0,0.0,0.0,1.0
1464117350138013087,286,1464117350131951333,,2.95400691032,17.360502243,-100.202087402,0.00112100003753,1.0,0.0,0.0,0.0,1.0,0.0,0.0,0.0,1.0,-1.03658533096,9.39024448395,6.52439069748,1.0,0.0,0.0,0.0,1.0,0.0,0.0,0.0,1.0,-0.794874951172,-0.3064578125,10.3477395752,1.0,0.0,0.0,0.0,1.0,0.0,0.0,0.0,1.0
1464117350156358765,287,1464117350152914451,,3.12266325951,16.9433574677,-100.118537903,0.00122700002976,1.0,0.0,0.0,0.0,1.0,0.0,0.0,0.0,1.0,-0.12195122242,-2.13414645195,-0.12195122242,1.0,0.0,0.0,0.0,1.0,0.0,0.0,0.0,1.0,-0.76614453125,-0.349553442383,10.2376062988,1.0,0.0,0.0,0.0,1.0,0.0,0.0,0.0,1.0
1464117350176419490,288,1464117350173424759,,3.12152051926,16.5383529663,-100.186935425,0.00155499996617,1.0,0.0,0.0,0.0,1.0,0.0,0.0,0.0,1.0,-0.304878056049,-2.86585378647,-1.46341466904,1.0,0.0,0.0,0.0,1.0,0.0,0.0,0.0,1.0,-0.181959326172,-0.541089611728,10.1466266357,1.0,0.0,0.0,0.0,1.0,0.0,0.0,0.0,1.0
1464117350201539732,289,1464117350194933084,,3.13058114052,16.1112575531,-100.169364929,0.00103100005072,1.0,0.0,0.0,0.0,1.0,0.0,0.0,0.0,1.0,0.304878056049,1.70731711388,0.975609779358,1.0,0.0,0.0,0.0,1.0,0.0,0.0,0.0,1.0,-0.196324536133,-0.603338854892,10.4818148682,1.0,0.0,0.0,0.0,1.0,0.0,0.0,0.0,1.0
1464117350220603481,290,1464117350216349847,,3.1645629406,15.7060575485,-100.164886475,0.0012150000548,1.0,0.0,0.0,0.0,1.0,0.0,0.0,0.0,1.0,-0.304878056049,-1.8292683363,-0.243902444839,1.0,0.0,0.0,0.0,1.0,0.0,0.0,0.0,1.0,-0.488417138672,-0.316034619141,10.1705686523,1.0,0.0,0.0,0.0,1.0,0.0,0.0,0.0,1.0
1464117350241378787,291,1464117350236653800,,3.13200521469,15.3387975693,-100.217674255,0.000975999981165,1.0,0.0,0.0,0.0,1.0,0.0,0.0,0.0,1.0,0.914634168148,-5.06097555161,-2.01219511032,1.0,0.0,0.0,0.0,1.0,0.0,0.0,0.0,1.0,-0.210689746094,-0.110133276367,9.79228479004,1.0,0.0,0.0,0.0,1.0,0.0,0.0,0.0,1.0
1464117350260903055,292,1464117350257909887,,3.00875639915,14.9488973618,-100.350250244,0.00100299995393,1.0,0.0,0.0,0.0,1.0,0.0,0.0,0.0,1.0,0.731707334518,-6.0365858078,-6.0365858078,1.0,0.0,0.0,0.0,1.0,0.0,0.0,0.0,1.0,0.162805712891,0.0478840332031,10.5344873047,1.0,0.0,0.0,0.0,1.0,0.0,0.0,0.0,1.0
1464117350285422154,293,1464117350281280551,,2.93088316917,14.5690069199,-100.489151001,0.0010890000267,1.0,0.0,0.0,0.0,1.0,0.0,0.0,0.0,1.0,-0.365853667259,-0.792682945728,-2.92682933807,1.0,0.0,0.0,0.0,1.0,0.0,0.0,0.0,1.0,0.0957680664062,-0.507570751953,10.2471831055,1.0,0.0,0.0,0.0,1.0,0.0,0.0,0.0,1.0
1464117350303907362,294,1464117350300106071,,2.93364524841,14.1965436935,-100.522369385,0.0012529999949,1.0,0.0,0.0,0.0,1.0,0.0,0.0,0.0,1.0,-0.426829278469,3.90243911743,0.487804889679,1.0,0.0,0.0,0.0,1.0,0.0,0.0,0.0,1.0,0.0239420166016,-0.512359155273,10.0891657959,1.0,0.0,0.0,0.0,1.0,0.0,0.0,0.0,1.0
1464117350326630528,295,1464117350321451376,,3.0537917614,13.8146009445,-100.450935364,0.00132999999914,1.0,0.0,0.0,0.0,1.0,0.0,0.0,0.0,1.0,-0.487804889679,9.81707286835,3.90243911743,1.0,0.0,0.0,0.0,1.0,0.0,0.0,0.0,1.0,-0.00957680664062,-0.368707055664,10.6685625977,1.0,0.0,0.0,0.0,1.0,0.0,0.0,0.0,1.0
1464117350346669430,296,1464117350344132041,,3.2737891674,13.4283943176,-100.233795166,0.00386300007813,1.0,0.0,0.0,0.0,1.0,0.0,0.0,0.0,1.0,-0.914634168148,13.2926826477,6.64634132385,1.0,0.0,0.0,0.0,1.0,0.0,0.0,0.0,1.0,-0.0143652099609,-0.526724328702,10.2376062988,1.0,0.0,0.0,0.0,1.0,0.0,0.0,0.0,1.0
1464117350370557072,297,1464117350364528963,,3.5157725811,13.0855398178,-100.096038818,0.00629799999297,1.0,0.0,0.0,0.0,1.0,0.0,0.0,0.0,1.0,-0.18292683363,6.70731735229,1.40243899822,1.0,0.0,0.0,0.0,1.0,0.0,0.0,0.0,1.0,-0.46447512207,-0.45489831543,10.1992990723,1.0,0.0,0.0,0.0,1.0,0.0,0.0,0.0,1.0
1464117350389235092,298,1464117350386373069,,3.65243840218,12.7542076111,-100.080032349,0.0012450000504,1.0,0.0,0.0,0.0,1.0,0.0,0.0,0.0,1.0,-0.487804889679,1.03658533096,-2.80487799644,1.0,0.0,0.0,0.0,1.0,0.0,0.0,0.0,1.0,-0.61770402832,-0.435744702148,10.285490332,1.0,0.0,0.0,0.0,1.0,0.0,0.0,0.0,1.0
1464117350410298262,299,1464117350407199625,,3.67279982567,12.4195079803,-100.20967865,0.00114099995699,1.0,0.0,0.0,0.0,1.0,0.0,0.0,0.0,1.0,0.487804889679,-6.82926845551,-7.86585378647,1.0,0.0,0.0,0.0,1.0,0.0,0.0,0.0,1.0,-0.258573779297,-0.651222851562,10.2232410889,1.0,0.0,0.0,0.0,1.0,0.0,0.0,0.0,1.0
1464117350431622942,300,1464117350428656440,,3.59201264381,12.0865163803,-100.408508301,0.00106999999844,1.0,0.0,0.0,0.0,1.0,0.0,0.0,0.0,1.0,-0.426829278469,0.853658556938,-6.82926845551,1.0,0.0,0.0,0.0,1.0,0.0,0.0,0.0,1.0,0.110133276367,-0.253785375977,10.1992990723,1.0,0.0,0.0,0.0,1.0,0.0,0.0,0.0,1.0
1464117350452142520,301,1464117350449793777,,3.68814253807,11.7540216446,-100.362976074,0.00131700001657,1.0,0.0,0.0,0.0,1.0,0.0,0.0,0.0,1.0,-1.8292683363,12.1951217651,7.74390268326,1.0,0.0,0.0,0.0,1.0,0.0,0.0,0.0,1.0,-0.339976635742,-0.502782348633,10.1514150391,1.0,0.0,0.0,0.0,1.0,0.0,0.0,0.0,1.0
1464117350474296156,302,1464117350470783197,,3.91435551643,11.4247188568,-100.195732117,0.00109399994835,1.0,0.0,0.0,0.0,1.0,0.0,0.0,0.0,1.0,-1.03658533096,5.0,0.792682945728,1.0,0.0,0.0,0.0,1.0,0.0,0.0,0.0,1.0,-1.06781401349,0.335188232422,10.8840407471,1.0,0.0,0.0,0.0,1.0,0.0,0.0,0.0,1.0
1464117350493553602,303,1464117350491493660,,3.9650080204,11.1201524734,-100.292358398,0.001111999969,1.0,0.0,0.0,0.0,1.0,0.0,0.0,0.0,1.0,1.95121955872,-5.60975599289,-8.17073154449,1.0,0.0,0.0,0.0,1.0,0.0,0.0,0.0,1.0,-0.134075302102,-0.555454785156,9.77791958008,1.0,0.0,0.0,0.0,1.0,0.0,0.0,0.0,1.0
1464117350515487239,304,1464117350512336102,,3.89656329155,10.8306112289,-100.446426392,0.000959999975748,1.0,0.0,0.0,0.0,1.0,0.0,0.0,0.0,1.0,-1.2804877758,2.86585378647,-4.14634132385,1.0,0.0,0.0,0.0,1.0,0.0,0.0,0.0,1.0,0.244208569336,-0.177170922852,10.4530844482,1.0,0.0,0.0,0.0,1.0,0.0,0.0,0.0,1.0
1464117350535721401,305,1464117350533096513,,4.03604459763,10.5237913132,-100.356872559,0.00128700002097,1.0,0.0,0.0,0.0,1.0,0.0,0.0,0.0,1.0,-2.86585378647,11.5243911743,7.25609779358,1.0,0.0,0.0,0.0,1.0,0.0,0.0,0.0,1.0,-0.790086547852,-0.517147558594,10.3860468018,1.0,0.0,0.0,0.0,1.0,0.0,0.0,0.0,1.0
1464117350556545926,306,1464117350554157339,,4.28975820541,10.2279682159,-100.198410034,0.00102700002026,1.0,0.0,0.0,0.0,1.0,0.0,0.0,0.0,1.0,-0.670731723309,6.46341466904,5.54878091812,1.0,0.0,0.0,0.0,1.0,0.0,0.0,0.0,1.0,-1.04866025408,-0.392649072266,9.98860932617,1.0,0.0,0.0,0.0,1.0,0.0,0.0,0.0,1.0
1464117350577789356,307,1464117350575253842,,4.40827465057,9.95297336578,-100.179008484,0.00132100004703,1.0,0.0,0.0,0.0,1.0,0.0,0.0,0.0,1.0,0.0609756112099,-1.46341466904,-1.58536589146,1.0,0.0,0.0,0.0,1.0,0.0,0.0,0.0,1.0,-0.814028564453,-0.507570751953,10.2615483154,1.0,0.0,0.0,0.0,1.0,0.0,0.0,0.0,1.0
1464117350600259502,308,1464117350596050243,,4.39392805099,9.66277980804,-100.213340759,0.000969999993686,1.0,0.0,0.0,0.0,1.0,0.0,0.0,0.0,1.0,0.792682945728,-0.365853667259,-0.365853667259,1.0,0.0,0.0,0.0,1.0,0.0,0.0,0.0,1.0,-0.225054956055,-0.857124194336,10.2567599121,1.0,0.0,0.0,0.0,1.0,0.0,0.0,0.0,1.0
1464117350625038078,309,1464117350616620237,,4.40421724319,9.39032363892,-100.194023132,0.00114099995699,1.0,0.0,0.0,0.0,1.0,0.0,0.0,0.0,1.0,1.2195122242,0.670731723309,0.426829278469,1.0,0.0,0.0,0.0,1.0,0.0,0.0,0.0,1.0,-0.272938989258,-0.301669427446,10.0891657959,1.0,0.0,0.0,0.0,1.0,0.0,0.0,0.0,1.0
1464117350643966723,310,1464117350637282419,,4.3976984024,9.15093421936,-100.19908905,0.00103499996476,1.0,0.0,0.0,0.0,1.0,0.0,0.0,0.0,1.0,-0.304878056049,-1.70731711388,-0.0609756112099,1.0,0.0,0.0,0.0,1.0,0.0,0.0,0.0,1.0,-0.244208569336,-0.191536132812,10.2040874756,1.0,0.0,0.0,0.0,1.0,0.0,0.0,0.0,1.0
1464117350661600476,311,1464117350658055798,,4.35800981522,8.90279865265,-100.208061218,0.00103199994192,1.0,0.0,0.0,0.0,1.0,0.0,0.0,0.0,1.0,-0.365853667259,-0.975609779358,0.670731723309,1.0,0.0,0.0,0.0,1.0,0.0,0.0,0.0,1.0,-0.397437475586,-0.248996972656,10.165780249,1.0,0.0,0.0,0.0,1.0,0.0,0.0,0.0,1.0
1464117350682348074,312,1464117350679784956,,4.31892824173,8.64754676819,-100.205528259,0.00125900004059,1.0,0.0,0.0,0.0,1.0,0.0,0.0,0.0,1.0,-0.243902444839,-1.34146344662,0.304878056049,1.0,0.0,0.0,0.0,1.0,0.0,0.0,0.0,1.0,-0.201112939453,-0.483628735352,10.1753570557,1.0,0.0,0.0,0.0,1.0,0.0,0.0,0.0,1.0
1464117350704721241,313,1464117350701006459,,4.27647399902,8.38827323914,-100.213821411,0.00204799999483,1.0,0.0,0.0,0.0,1.0,0.0,0.0,0.0,1.0,-0.18292683363,-1.8292683363,-0.243902444839,1.0,0.0,0.0,0.0,1.0,0.0,0.0,0.0,1.0,-0.129286889648,-0.45489831543,10.299855542,1.0,0.0,0.0,0.0,1.0,0.0,0.0,0.0,1.0
1464117350726294253,314,1464117350722154161,,4.21231508255,8.13762569427,-100.248321533,0.0012009999482,1.0,0.0,0.0,0.0,1.0,0.0,0.0,0.0,1.0,0.0,-2.37804889679,-1.76829278469,1.0,0.0,0.0,0.0,1.0,0.0,0.0,0.0,1.0,-0.272938989258,-0.91458503418,10.553640918,1.0,0.0,0.0,0.0,1.0,0.0,0.0,0.0,1.0
1464117350746629040,315,1464117350743405247,,4.11993789673,7.88229656219,-100.362930298,0.00118899997324,1.0,0.0,0.0,0.0,1.0,0.0,0.0,0.0,1.0,2.19512200356,-3.29268312454,-4.45121955872,1.0,0.0,0.0,0.0,1.0,0.0,0.0,0.0,1.0,-0.248996972656,-0.574608398438,10.1897222656,1.0,0.0,0.0,0.0,1.0,0.0,0.0,0.0,1.0
1464117350767184035,316,1464117350764841645,,4.03687477112,7.63944005966,-100.471321106,0.00152000004891,1.0,0.0,0.0,0.0,1.0,0.0,0.0,0.0,1.0,0.0,0.853658556938,-1.76829278469,1.0,0.0,0.0,0.0,1.0,0.0,0.0,0.0,1.0,0.253785375977,-0.593762048251,10.2184526855,1.0,0.0,0.0,0.0,1.0,0.0,0.0,0.0,1.0
1464117350788525173,317,1464117350785988565,,4.08323335648,7.40827894211,-100.463493347,0.00117199996021,1.0,0.0,0.0,0.0,1.0,0.0,0.0,0.0,1.0,-0.914634168148,6.40243911743,1.58536589146,1.0,0.0,0.0,0.0,1.0,0.0,0.0,0.0,1.0,0.114921679688,-0.560243188477,10.285490332,1.0,0.0,0.0,0.0,1.0,0.0,0.0,0.0,1.0
1464117350809778915,318,1464117350806709809,,4.20374536514,7.18747663498,-100.428207397,0.00109200004954,1.0,0.0,0.0,0.0,1.0,0.0,0.0,0.0,1.0,-0.18292683363,6.89024400711,-0.426829278469,1.0,0.0,0.0,0.0,1.0,0.0,0.0,0.0,1.0,-0.0191536132812,-0.593762048251,10.2807019287,1.0,0.0,0.0,0.0,1.0,0.0,0.0,0.0,1.0
1464117350829672037,319,1464117350827114752,,4.3190536499,6.96202468872,-100.440429688,0.00110100000165,1.0,0.0,0.0,0.0,1.0,0.0,0.0,0.0,1.0,-0.548780500889,7.80487823486,-1.8292683363,1.0,0.0,0.0,0.0,1.0,0.0,0.0,0.0,1.0,-0.114921679688,-0.541089611728,10.2950671387,1.0,0.0,0.0,0.0,1.0,0.0,0.0,0.0,1.0
1464117350851669736,320,1464117350849276774,,4.52030277252,6.72174358368,-100.38533783,0.00731999985874,1.0,0.0,0.0,0.0,1.0,0.0,0.0,0.0,1.0,-0.670731723309,13.4756097794,5.0,1.0,0.0,0.0,0.0,1.0,0.0,0.0,0.0,1.0,-0.3064578125,-0.895431420898,10.6206785645,1.0,0.0,0.0,0.0,1.0,0.0,0.0,0.0,1.0
1464117350872491604,321,1464117350869161093,,4.81392049789,6.51069927216,-100.264801025,0.00116099999286,1.0,0.0,0.0,0.0,1.0,0.0,0.0,0.0,1.0,-0.670731723309,7.74390268326,1.40243899822,1.0,0.0,0.0,0.0,1.0,0.0,0.0,0.0,1.0,-0.995987890625,-0.373495458984,9.58159562847,1.0,0.0,0.0,0.0,1.0,0.0,0.0,0.0,1.0
1464117350892678892,322,1464117350889951399,,4.89992618561,6.33503293991,-100.336639404,0.00106899999082,1.0,0.0,0.0,0.0,1.0,0.0,0.0,0.0,1.0,0.975609779358,-2.98780488968,-8.47560977936,1.0,0.0,0.0,0.0,1.0,0.0,0.0,0.0,1.0,-0.45489831543,-0.46447512207,10.4770264648,1.0,0.0,0.0,0.0,1.0,0.0,0.0,0.0,1.0
1464117350913674875,323,1464117350910592175,,4.81152296066,6.13468456268,-100.490562439,0.000997000024654,1.0,0.0,0.0,0.0,1.0,0.0,0.0,0.0,1.0,0.18292683363,-1.8292683363,-5.54878091812,1.0,0.0,0.0,0.0,1.0,0.0,0.0,0.0,1.0,0.392649072266,-0.31124621582,10.2040874756,1.0,0.0,0.0,0.0,1.0,0.0,0.0,0.0,1.0
1464117350934597524,324,1464117350932172844,,4.84382104874,5.90389966965,-100.575019836,0.00143499998376,1.0,0.0,0.0,0.0,1.0,0.0,0.0,0.0,1.0,-1.34146344662,4.63414621353,-1.64634156227,1.0,0.0,0.0,0.0,1.0,0.0,0.0,0.0,1.0,-0.316034619141,-0.828393774414,10.3333743652,1.0,0.0,0.0,0.0,1.0,0.0,0.0,0.0,1.0
1464117350961621043,325,1464117350952676380,,4.93223428726,5.69314146042,-100.561256409,0.00101200002246,1.0,0.0,0.0,0.0,1.0,0.0,0.0,0.0,1.0,-0.975609779358,7.80487823486,-0.365853667259,1.0,0.0,0.0,0.0,1.0,0.0,0.0,0.0,1.0,-0.316034619141,-0.502782348633,10.3716815918,1.0,0.0,0.0,0.0,1.0,0.0,0.0,0.0,1.0
1464117350983296503,326,1464117350973154916,,5.06049442291,5.51772022247,-100.561767578,0.000973000016529,1.0,0.0,0.0,0.0,1.0,0.0,0.0,0.0,1.0,-0.609756112099,3.10975623131,-0.0609756112099,1.0,0.0,0.0,0.0,1.0,0.0,0.0,0.0,1.0,-0.632069238281,-0.502782348633,10.0508585693,1.0,0.0,0.0,0.0,1.0,0.0,0.0,0.0,1.0
1464117351001416504,327,1464117350994177149,,5.11421585083,5.33142471313,-100.569999695,0.000968999986071,1.0,0.0,0.0,0.0,1.0,0.0,0.0,0.0,1.0,-0.975609779358,5.48780488968,-0.853658556938,1.0,0.0,0.0,0.0,1.0,0.0,0.0,0.0,1.0,-0.225054956055,-0.732625708008,9.54807680523,1.0,0.0,0.0,0.0,1.0,0.0,0.0,0.0,1.0
1464117351018237238,328,1464117351014700894,,5.2518248558,5.15592670441,-100.489212036,0.00114599999506,1.0,0.0,0.0,0.0,1.0,0.0,0.0,0.0,1.0,-1.40243899822,6.46341466904,4.45121955872,1.0,0.0,0.0,0.0,1.0,0.0,0.0,0.0,1.0,-0.550666381836,-0.488417138672,10.419565625,1.0,0.0,0.0,0.0,1.0,0.0,0.0,0.0,1.0
1464117351040006031,329,1464117351035665887,,5.40571165085,5.00295066833,-100.395240784,0.000966000021435,1.0,0.0,0.0,0.0,1.0,0.0,0.0,0.0,1.0,-0.731707334518,2.19512200356,2.13414645195,1.0,0.0,0.0,0.0,1.0,0.0,0.0,0.0,1.0,-0.885854614258,-0.416591088867,10.1466266357,1.0,0.0,0.0,0.0,1.0,0.0,0.0,0.0,1.0
1464117351060247121,330,1464117351056410777,,5.3979845047,4.84093379974,-100.394935608,0.000990999978967,1.0,0.0,0.0,0.0,1.0,0.0,0.0,0.0,1.0,0.365853667259,-4.75609779358,-0.426829278469,1.0,0.0,0.0,0.0,1.0,0.0,0.0,0.0,1.0,-0.885854614258,-0.229843359375,10.1370498291,1.0,0.0,0.0,0.0,1.0,0.0,0.0,0.0,1.0
1464117351079705087,331,1464117351077447385,,5.27529001236,4.65828800201,-100.443359375,0.000965000013821,1.0,0.0,0.0,0.0,1.0,0.0,0.0,0.0,1.0,0.609756112099,-6.0365858078,0.12195122242,1.0,0.0,0.0,0.0,1.0,0.0,0.0,0.0,1.0,-0.598550451572,-0.316034619141,10.3190091553,1.0,0.0,0.0,0.0,1.0,0.0,0.0,0.0,1.0
1464117351104112779,332,1464117351101588255,,5.12883758545,4.4832406044,-100.447738647,0.00111599999946,1.0,0.0,0.0,0.0,1.0,0.0,0.0,0.0,1.0,-0.426829278469,-1.52439022064,0.12195122242,1.0,0.0,0.0,0.0,1.0,0.0,0.0,0.0,1.0,0.167594116211,-0.981622680664,10.3908352051,1.0,0.0,0.0,0.0,1.0,0.0,0.0,0.0,1.0
1464117351126018343,333,1464117351123909911,,5.09076929092,4.3178486824,-100.393432617,0.00407300004736,1.0,0.0,0.0,0.0,1.0,0.0,0.0,0.0,1.0,0.243902444839,3.59756112099,6.40243911743,1.0,0.0,0.0,0.0,1.0,0.0,0.0,0.0,1.0,0.0335188255255,-0.588973571866,10.5919481445,1.0,0.0,0.0,0.0,1.0,0.0,0.0,0.0,1.0
1464117351146715368,334,1464117351145125164,,5.18928050995,4.15798282623,-100.232154846,0.00305199995637,1.0,0.0,0.0,0.0,1.0,0.0,0.0,0.0,1.0,-0.0609756112099,2.74390244484,5.48780488968,1.0,0.0,0.0,0.0,1.0,0.0,0.0,0.0,1.0,-1.04387185076,-0.497993945312,9.95030209961,1.0,0.0,0.0,0.0,1.0,0.0,0.0,0.0,1.0
1464117351167272342,335,1464117351165669378,,5.11197376251,4.03800201416,-100.288276672,0.000984000042081,1.0,0.0,0.0,0.0,1.0,0.0,0.0,0.0,1.0,-0.487804889679,-10.0,-5.60975599289,1.0,0.0,0.0,0.0,1.0,0.0,0.0,0.0,1.0,-0.646434448242,-0.3064578125,9.67257470703,1.0,0.0,0.0,0.0,1.0,0.0,0.0,0.0,1.0
1464117351188332231,336,1464117351186524580,,4.85272359848,3.87512922287,-100.474868774,0.00100899999961,1.0,0.0,0.0,0.0,1.0,0.0,0.0,0.0,1.0,-2.74390244484,-7.68292665482,-5.79268312454,1.0,0.0,0.0,0.0,1.0,0.0,0.0,0.0,1.0,0.962469067383,-0.632069238281,10.8361567139,1.0,0.0,0.0,0.0,1.0,0.0,0.0,0.0,1.0
1464117351210156910,337,1464117351207589938,,4.78553533554,3.71350717545,-100.468933105,0.0011269999668,1.0,0.0,0.0,0.0,1.0,0.0,0.0,0.0,1.0,-0.609756112099,9.51219558716,5.18292713165,1.0,0.0,0.0,0.0,1.0,0.0,0.0,0.0,1.0,0.0814028564453,-0.603338854892,10.5488525146,1.0,0.0,0.0,0.0,1.0,0.0,0.0,0.0,1.0
1464117351230814508,338,1464117351228439931,,4.90588617325,3.55726408958,-100.292503357,0.00103100005072,1.0,0.0,0.0,0.0,1.0,0.0,0.0,0.0,1.0,1.58536589146,6.64634132385,6.34146356583,1.0,0.0,0.0,0.0,1.0,0.0,0.0,0.0,1.0,0.0287304199219,-1.06302561017,10.7547538574,1.0,0.0,0.0,0.0,1.0,0.0,0.0,0.0,1.0
1464117351251934084,339,1464117351249302685,,4.95757293701,3.3991959095,-100.322990417,0.00101300003007,1.0,0.0,0.0,0.0,1.0,0.0,0.0,0.0,1.0,1.76829278469,-3.04878044128,-5.91463422775,1.0,0.0,0.0,0.0,1.0,0.0,0.0,0.0,1.0,-0.430956298828,-0.708683691406,9.77791958008,1.0,0.0,0.0,0.0,1.0,0.0,0.0,0.0,1.0
1464117351272055903,340,1464117351269356848,,4.83435440063,3.27271986008,-100.496459961,0.00154099997599,1.0,0.0,0.0,0.0,1.0,0.0,0.0,0.0,1.0,-1.46341466904,-2.19512200356,-7.13414621353,1.0,0.0,0.0,0.0,1.0,0.0,0.0,0.0,1.0,0.497993945312,-0.526724328702,10.5632177246,1.0,0.0,0.0,0.0,1.0,0.0,0.0,0.0,1.0
1464117351292584491,341,1464117351290167311,,4.83626842499,3.13632249832,-100.484489441,0.00121000001673,1.0,0.0,0.0,0.0,1.0,0.0,0.0,0.0,1.0,-0.243902444839,13.048781395,6.21951246262,1.0,0.0,0.0,0.0,1.0,0.0,0.0,0.0,1.0,0.253785375977,-0.440533105469,10.0891657959,1.0,0.0,0.0,0.0,1.0,0.0,0.0,0.0,1.0
1464117351313105424,342,1464117351310756836,,5.1318025589,3.01228737831,-100.314834595,0.00115999998525,1.0,0.0,0.0,0.0,1.0,0.0,0.0,0.0,1.0,-1.64634156227,14.0853662491,7.31707334518,1.0,0.0,0.0,0.0,1.0,0.0,0.0,0.0,1.0,-1.11090957031,-0.339976635742,10.2088758789,1.0,0.0,0.0,0.0,1.0,0.0,0.0,0.0,1.0
1464117351333999844,343,1464117351331676309,,5.35458421707,2.87276291847,-100.239425659,0.00116500002332,1.0,0.0,0.0,0.0,1.0,0.0,0.0,0.0,1.0,-1.95121955872,6.89024400711,0.304878056049,1.0,0.0,0.0,0.0,1.0,0.0,0.0,0.0,1.0,-0.986411083984,-0.430956298828,10.0125513428,1.0,0.0,0.0,0.0,1.0,0.0,0.0,0.0,1.0
1464117351355250931,344,1464117351352868021,,5.45444059372,2.73846960068,-100.262947083,0.00101400003769,1.0,0.0,0.0,0.0,1.0,0.0,0.0,0.0,1.0,-0.731707334518,3.10975623131,-1.03658533096,1.0,0.0,0.0,0.0,1.0,0.0,0.0,0.0,1.0,-0.823605371094,-0.469263525391,10.4770264648,1.0,0.0,0.0,0.0,1.0,0.0,0.0,0.0,1.0
1464117351376278945,345,1464117351373927128,,5.51419258118,2.59183478355,-100.275535583,0.000988999963738,1.0,0.0,0.0,0.0,1.0,0.0,0.0,0.0,1.0,0.18292683363,3.41463422775,-0.426829278469,1.0,0.0,0.0,0.0,1.0,0.0,0.0,0.0,1.0,-0.167594116211,-0.785298144531,10.5105452881,1.0,0.0,0.0,0.0,1.0,0.0,0.0,0.0,1.0
1464117351396882689,346,1464117351394604518,,5.56588077545,2.46185183525,-100.299156189,0.000985000049695,1.0,0.0,0.0,0.0,1.0,0.0,0.0,0.0,1.0,0.548780500889,-2.37804889679,-2.56097555161,1.0,0.0,0.0,0.0,1.0,0.0,0.0,0.0,1.0,-1.07739082014,-0.77093293457,9.66778688823,1.0,0.0,0.0,0.0,1.0,0.0,0.0,0.0,1.0
1464117351417805703,347,1464117351415182794,,5.44446468353,2.34723901749,-100.425819397,0.00100299995393,1.0,0.0,0.0,0.0,1.0,0.0,0.0,0.0,1.0,-1.40243899822,-8.47560977936,-7.43902492523,1.0,0.0,0.0,0.0,1.0,0.0,0.0,0.0,1.0,0.00478840332031,0.119710083008,10.2136642822,1.0,0.0,0.0,0.0,1.0,0.0,0.0,0.0,1.0
1464117351440110016,348,1464117351436337735,,5.26759052277,2.23017716408,-100.575164795,0.00108099996578,1.0,0.0,0.0,0.0,1.0,0.0,0.0,0.0,1.0,-1.95121955872,-2.19512200356,-4.87804889679,1.0,0.0,0.0,0.0,1.0,0.0,0.0,0.0,1.0,-0.067037651051,-0.718260498047,10.3190091553,1.0,0.0,0.0,0.0,1.0,0.0,0.0,0.0,1.0
1464117351462834327,349,1464117351457702467,,5.22392559052,2.09922719002,-100.620162964,0.00103599997237,1.0,0.0,0.0,0.0,1.0,0.0,0.0,0.0,1.0,-0.975609779358,4.32926845551,0.0,1.0,0.0,0.0,0.0,1.0,0.0,0.0,0.0,1.0,0.0909796630859,-0.957680664062,10.4866032715,1.0,0.0,0.0,0.0,1.0,0.0,0.0,0.0,1.0
1464117351483105156,350,1464117351480932871,,5.30338001251,1.95887351036,-100.597084045,0.00217500003055,1.0,0.0,0.0,0.0,1.0,0.0,0.0,0.0,1.0,-0.609756112099,6.70731735229,1.2195122242,1.0,0.0,0.0,0.0,1.0,0.0,0.0,0.0,1.0,-0.225054956055,-0.641646044922,10.3237975586,1.0,0.0,0.0,0.0,1.0,0.0,0.0,0.0,1.0
1464117351509013469,351,1464117351502527341,,5.39330863953,1.84872877598,-100.59437561,0.00149299995974,1.0,0.0,0.0,0.0,1.0,0.0,0.0,0.0,1.0,-0.792682945728,5.06097555161,-1.09756100178,1.0,0.0,0.0,0.0,1.0,0.0,0.0,0.0,1.0,-0.162805712891,-0.517147558594,10.0843773926,1.0,0.0,0.0,0.0,1.0,0.0,0.0,0.0,1.0
1464117351526668680,352,1464117351524117229,,5.48188591003,1.73267412186,-100.611709595,0.00417499989271,1.0,0.0,0.0,0.0,1.0,0.0,0.0,0.0,1.0,-0.731707334518,5.85365867615,-0.243902444839,1.0,0.0,0.0,0.0,1.0,0.0,0.0,0.0,1.0,-0.277727392578,-0.636857641602,10.2807019287,1.0,0.0,0.0,0.0,1.0,0.0,0.0,0.0,1.0
1464117351546961280,353,1464117351544032434,,5.5895318985,1.60582149029,-100.616699219,0.00122199999169,1.0,0.0,0.0,0.0,1.0,0.0,0.0,0.0,1.0,-0.304878056049,6.46341466904,-0.18292683363,1.0,0.0,0.0,0.0,1.0,0.0,0.0,0.0,1.0,-0.560243188477,-0.526724328702,10.1514150391,1.0,0.0,0.0,0.0,1.0,0.0,0.0,0.0,1.0
1464117351572046209,354,1464117351565531853,,5.69030714035,1.49603772163,-100.625450134,0.00158200005535,1.0,0.0,0.0,0.0,1.0,0.0,0.0,0.0,1.0,-0.18292683363,3.96341490746,-0.975609779358,1.0,0.0,0.0,0.0,1.0,0.0,0.0,0.0,1.0,-0.502782348633,-0.316034619141,10.0843773926,1.0,0.0,0.0,0.0,1.0,0.0,0.0,0.0,1.0
1464117351593295108,355,1464117351586379763,,5.7494301796,1.38924407959,-100.644935608,0.000997000024654,1.0,0.0,0.0,0.0,1.0,0.0,0.0,0.0,1.0,-0.365853667259,3.17073178291,-0.548780500889,1.0,0.0,0.0,0.0,1.0,0.0,0.0,0.0,1.0,-0.110133276367,-0.220266552734,10.1753570557,1.0,0.0,0.0,0.0,1.0,0.0,0.0,0.0,1.0
1464117351610493289,356,1464117351607675953,,5.84125518799,1.2641261816,-100.611244202,0.000965000013821,1.0,0.0,0.0,0.0,1.0,0.0,0.0,0.0,1.0,0.304878056049,7.01219511032,4.08536577225,1.0,0.0,0.0,0.0,1.0,0.0,0.0,0.0,1.0,-0.363918652344,-0.866701000977,10.3573163818,1.0,0.0,0.0,0.0,1.0,0.0,0.0,0.0,1.0
1464117351632171562,357,1464117351629113706,,5.96782159805,1.15947437286,-100.5364151,0.00104300002567,1.0,0.0,0.0,0.0,1.0,0.0,0.0,0.0,1.0,0.426829278469,-1.03658533096,0.914634168148,1.0,0.0,0.0,0.0,1.0,0.0,0.0,0.0,1.0,-0.584185168546,-0.220266552734,9.58159562847,1.0,0.0,0.0,0.0,1.0,0.0,0.0,0.0,1.0
1464117351653318951,358,1464117351650002033,,5.84803247452,1.0813395977,-100.627540588,0.00120699999388,1.0,0.0,0.0,0.0,1.0,0.0,0.0,0.0,1.0,1.2804877758,-10.3658542633,-6.46341466904,1.0,0.0,0.0,0.0,1.0,0.0,0.0,0.0,1.0,-0.00478840332031,-0.517147558594,10.0939541992,1.0,0.0,0.0,0.0,1.0,0.0,0.0,0.0,1.0
1464117351673416707,359,1464117351670771454,,5.6353764534,0.986854672432,-100.716758728,0.00116300000809,1.0,0.0,0.0,0.0,1.0,0.0,0.0,0.0,1.0,-0.792682945728,1.34146344662,-0.914634168148,1.0,0.0,0.0,0.0,1.0,0.0,0.0,0.0,1.0,0.0335188255255,-0.670376464844,10.0843773926,1.0,0.0,0.0,0.0,1.0,0.0,0.0,0.0,1.0
1464117351694323107,360,1464117351691544989,,5.6757850647,0.878999590874,-100.635993958,0.00113099999726,1.0,0.0,0.0,0.0,1.0,0.0,0.0,0.0,1.0,-1.40243899822,8.5365858078,8.23170757294,1.0,0.0,0.0,0.0,1.0,0.0,0.0,0.0,1.0,-0.497993945312,-0.703895288086,10.405200415,1.0,0.0,0.0,0.0,1.0,0.0,0.0,0.0,1.0
1464117351715814088,361,1464117351712466754,,5.85660028458,0.788854181767,-100.493850708,0.00101100001484,1.0,0.0,0.0,0.0,1.0,0.0,0.0,0.0,1.0,-0.731707334518,5.60975599289,5.79268312454,1.0,0.0,0.0,0.0,1.0,0.0,0.0,0.0,1.0,-1.14921679688,-0.359130249023,9.88805285645,1.0,0.0,0.0,0.0,1.0,0.0,0.0,0.0,1.0
1464117351737788714,362,1464117351733784975,,5.89747285843,0.720134556293,-100.443458557,0.000966000021435,1.0,0.0,0.0,0.0,1.0,0.0,0.0,0.0,1.0,0.304878056049,-2.31707310677,1.03658533096,1.0,0.0,0.0,0.0,1.0,0.0,0.0,0.0,1.0,-0.818816967773,-0.31124621582,10.1705686523,1.0,0.0,0.0,0.0,1.0,0.0,0.0,0.0,1.0
1464117351758279021,363,1464117351754948875,,5.78251266479,0.638758480549,-100.483558655,0.000982000026852,1.0,0.0,0.0,0.0,1.0,0.0,0.0,0.0,1.0,0.975609779358,-6.40243911743,-3.04878044128,1.0,0.0,0.0,0.0,1.0,0.0,0.0,0.0,1.0,-0.727837304687,-0.612915625,9.79707319336,1.0,0.0,0.0,0.0,1.0,0.0,0.0,0.0,1.0
1464117351780283856,364,1464117351775732410,,5.56578731537,0.544854044914,-100.586418152,0.00101100001484,1.0,0.0,0.0,0.0,1.0,0.0,0.0,0.0,1.0,-0.792682945728,-7.01219511032,-5.85365867615,1.0,0.0,0.0,0.0,1.0,0.0,0.0,0.0,1.0,-0.114921679688,-0.330399829102,10.2471831055,1.0,0.0,0.0,0.0,1.0,0.0,0.0,0.0,1.0
1464117351799023022,365,1464117351796312925,,5.38327026367,0.454112589359,-100.695793152,0.00107999995816,1.0,0.0,0.0,0.0,1.0,0.0,0.0,0.0,1.0,-1.64634156227,-1.8902438879,-1.95121955872,1.0,0.0,0.0,0.0,1.0,0.0,0.0,0.0,1.0,0.244208569336,-0.603338854892,10.2423947021,1.0,0.0,0.0,0.0,1.0,0.0,0.0,0.0,1.0
1464117351822116655,366,1464117351816751514,,5.33133745193,0.378615230322,-100.688156128,0.000999000039883,1.0,0.0,0.0,0.0,1.0,0.0,0.0,0.0,1.0,-0.670731723309,6.0365858078,1.64634156227,1.0,0.0,0.0,0.0,1.0,0.0,0.0,0.0,1.0,0.248996972656,-0.612915625,10.539275708,1.0,0.0,0.0,0.0,1.0,0.0,0.0,0.0,1.0
1464117351843032170,367,1464117351837595727,,5.41019248962,0.300442159176,-100.665374756,0.000981000019237,1.0,0.0,0.0,0.0,1.0,0.0,0.0,0.0,1.0,0.0609756112099,5.24390268326,-0.426829278469,1.0,0.0,0.0,0.0,1.0,0.0,0.0,0.0,1.0,-0.220266552734,-0.584185168546,10.1897222656,1.0,0.0,0.0,0.0,1.0,0.0,0.0,0.0,1.0
1464117351861980606,368,1464117351858710668,,5.46185159683,0.205767318606,-100.699356079,0.00101799995173,1.0,0.0,0.0,0.0,1.0,0.0,0.0,0.0,1.0,-0.792682945728,6.15853643417,-0.487804889679,1.0,0.0,0.0,0.0,1.0,0.0,0.0,0.0,1.0,0.0143652099609,-0.45489831543,10.0556469727,1.0,0.0,0.0,0.0,1.0,0.0,0.0,0.0,1.0
1464117351883769816,369,1464117351880371596,,5.58295917511,0.108804196119,-100.683021545,0.00122199999169,1.0,0.0,0.0,0.0,1.0,0.0,0.0,0.0,1.0,-0.670731723309,13.1097564697,3.7804877758,1.0,0.0,0.0,0.0,1.0,0.0,0.0,0.0,1.0,0.201112939453,-1.02950671387,10.5440641113,1.0,0.0,0.0,0.0,1.0,0.0,0.0,0.0,1.0
1464117351905480120,370,1464117351901597162,,5.90108156204,0.0288287699223,-100.554023743,0.00168700003996,1.0,0.0,0.0,0.0,1.0,0.0,0.0,0.0,1.0,-0.731707334518,12.2560977936,4.93902444839,1.0,0.0,0.0,0.0,1.0,0.0,0.0,0.0,1.0,-1.74776721191,-0.574608398438,10.2759135254,1.0,0.0,0.0,0.0,1.0,0.0,0.0,0.0,1.0
1464117351925214231,371,1464117351922806061,,6.04219150543,-0.0364857763052,-100.579681396,0.00204399996437,1.0,0.0,0.0,0.0,1.0,0.0,0.0,0.0,1.0,-0.18292683363,-3.10975623131,-6.64634132385,1.0,0.0,0.0,0.0,1.0,0.0,0.0,0.0,1.0,-1.1875240965,-0.397437475586,10.4147772217,1.0,0.0,0.0,0.0,1.0,0.0,0.0,0.0,1.0
1464117351950024318,372,1464117351944723656,,5.87925338745,-0.112791262567,-100.758583069,0.00119099998847,1.0,0.0,0.0,0.0,1.0,0.0,0.0,0.0,1.0,1.03658533096,-4.32926845551,-5.91463422775,1.0,0.0,0.0,0.0,1.0,0.0,0.0,0.0,1.0,-0.110133276367,-0.421379492187,10.165780249,1.0,0.0,0.0,0.0,1.0,0.0,0.0,0.0,1.0
1464117351970460094,373,1464117351965180890,,5.80267810822,-0.19307911396,-100.859077454,0.00152599997818,1.0,0.0,0.0,0.0,1.0,0.0,0.0,0.0,1.0,0.426829278469,3.47560977936,-2.5,1.0,0.0,0.0,0.0,1.0,0.0,0.0,0.0,1.0,-0.272938989258,-0.885854614258,10.060435376,1.0,0.0,0.0,0.0,1.0,0.0,0.0,0.0,1.0
1464117351987673380,374,1464117351985942864,,5.82983207703,-0.287868559361,-100.865753174,0.00112000002991,1.0,0.0,0.0,0.0,1.0,0.0,0.0,0.0,1.0,-0.853658556938,7.92682981491,0.792682945728,1.0,0.0,0.0,0.0,1.0,0.0,0.0,0.0,1.0,0.124498486328,-1.12527478027,10.2136642822,1.0,0.0,0.0,0.0,1.0,0.0,0.0,0.0,1.0
1464117352009143840,375,1464117352006351661,,6.03074216843,-0.362473636866,-100.812782288,0.00117900001351,1.0,0.0,0.0,0.0,1.0,0.0,0.0,0.0,1.0,-0.731707334518,11.8902444839,6.09756088257,1.0,0.0,0.0,0.0,1.0,0.0,0.0,0.0,1.0,-0.507570751953,-0.397437475586,10.4482960449,1.0,0.0,0.0,0.0,1.0,0.0,0.0,0.0,1.0
1464117352030718207,376,1464117352027591497,,6.2756652832,-0.427953094244,-100.690879822,0.00132000003941,1.0,0.0,0.0,0.0,1.0,0.0,0.0,0.0,1.0,-0.304878056049,7.92682981491,4.02439022064,1.0,0.0,0.0,0.0,1.0,0.0,0.0,0.0,1.0,-1.07260241682,-0.363918652344,10.2136642822,1.0,0.0,0.0,0.0,1.0,0.0,0.0,0.0,1.0
1464117352052231272,377,1464117352049312947,,6.36932373047,-0.492044121027,-100.690536499,0.00101100001484,1.0,0.0,0.0,0.0,1.0,0.0,0.0,0.0,1.0,-0.792682945728,-3.04878044128,-1.34146344662,1.0,0.0,0.0,0.0,1.0,0.0,0.0,0.0,1.0,-1.19710090314,-0.301669427446,10.1514150391,1.0,0.0,0.0,0.0,1.0,0.0,0.0,0.0,1.0
1464117352072254705,378,1464117352069431380,,6.28177499771,-0.55068475008,-100.711967468,0.00109899998643,1.0,0.0,0.0,0.0,1.0,0.0,0.0,0.0,1.0,-0.304878056049,-1.15853655338,1.34146344662,1.0,0.0,0.0,0.0,1.0,0.0,0.0,0.0,1.0,-0.746990917969,-0.660799658203,10.3716815918,1.0,0.0,0.0,0.0,1.0,0.0,0.0,0.0,1.0
1464117352093744072,379,1464117352090649602,,6.23444128036,-0.618573844433,-100.674415588,0.00100299995393,1.0,0.0,0.0,0.0,1.0,0.0,0.0,0.0,1.0,0.243902444839,-2.43902444839,2.19512200356,1.0,0.0,0.0,0.0,1.0,0.0,0.0,0.0,1.0,-0.828393774414,-0.622492431641,10.1322614258,1.0,0.0,0.0,0.0,1.0,0.0,0.0,0.0,1.0
1464117352113986412,380,1464117352111608241,,6.11405658722,-0.663256287575,-100.673538208,0.00112999998964,1.0,0.0,0.0,0.0,1.0,0.0,0.0,0.0,1.0,0.548780500889,-6.28048801422,-2.43902444839,1.0,0.0,0.0,0.0,1.0,0.0,0.0,0.0,1.0,-0.15801730957,-0.665588061523,9.99818613281,1.0,0.0,0.0,0.0,1.0,0.0,0.0,0.0,1.0
1464117352135254373,381,1464117352132458964,,5.89833784103,-0.717973589897,-100.737098694,0.0011269999668,1.0,0.0,0.0,0.0,1.0,0.0,0.0,0.0,1.0,0.853658556938,-7.31707334518,-4.57317066193,1.0,0.0,0.0,0.0,1.0,0.0,0.0,0.0,1.0,0.272938989258,-0.301669427446,10.4387192383,1.0,0.0,0.0,0.0,1.0,0.0,0.0,0.0,1.0
1464117352156436397,382,1464117352153695050,,5.68780708313,-0.785642802715,-100.814201355,0.00107400002889,1.0,0.0,0.0,0.0,1.0,0.0,0.0,0.0,1.0,0.670731723309,-1.58536589146,0.365853667259,1.0,0.0,0.0,0.0,1.0,0.0,0.0,0.0,1.0,0.847547387695,-0.440533105469,10.165780249,1.0,0.0,0.0,0.0,1.0,0.0,0.0,0.0,1.0
1464117352177698889,383,1464117352174902491,,5.71151828766,-0.83065789938,-100.713150024,0.000968999986071,1.0,0.0,0.0,0.0,1.0,0.0,0.0,0.0,1.0,0.975609779358,10.6097564697,8.23170757294,1.0,0.0,0.0,0.0,1.0,0.0,0.0,0.0,1.0,-0.407014282227,-0.785298144531,10.2376062988,1.0,0.0,0.0,0.0,1.0,0.0,0.0,0.0,1.0
1464117352201380282,384,1464117352195569256,,5.83017015457,-0.88152050972,-100.599502563,0.00101600005291,1.0,0.0,0.0,0.0,1.0,0.0,0.0,0.0,1.0,0.18292683363,0.670731723309,1.46341466904,1.0,0.0,0.0,0.0,1.0,0.0,0.0,0.0,1.0,0.191536132812,0.0478840332031,9.84016882324,1.0,0.0,0.0,0.0,1.0,0.0,0.0,0.0,1.0
1464117352221326163,385,1464117352216794665,,5.75885915756,-0.937294065952,-100.701248169,0.000991999986582,1.0,0.0,0.0,0.0,1.0,0.0,0.0,0.0,1.0,-2.07317066193,-2.74390244484,-7.56097555161,1.0,0.0,0.0,0.0,1.0,0.0,0.0,0.0,1.0,0.205901342773,-1.06302561017,9.98860932617,1.0,0.0,0.0,0.0,1.0,0.0,0.0,0.0,1.0
1464117352242813968,386,1464117352237758982,,5.62852191925,-1.00910258293,-100.820373535,0.00100499996915,1.0,0.0,0.0,0.0,1.0,0.0,0.0,0.0,1.0,-0.548780500889,5.30487823486,0.365853667259,1.0,0.0,0.0,0.0,1.0,0.0,0.0,0.0,1.0,0.92416184082,-1.0534486574,11.137826123,1.0,0.0,0.0,0.0,1.0,0.0,0.0,0.0,1.0
1464117352264439220,387,1464117352259148870,,5.79108858109,-1.06533074379,-100.725578308,0.00115999998525,1.0,0.0,0.0,0.0,1.0,0.0,0.0,0.0,1.0,-3.17073178291,15.6097564697,7.19512224197,1.0,0.0,0.0,0.0,1.0,0.0,0.0,0.0,1.0,-0.77093293457,-0.794874951172,10.2519715088,1.0,0.0,0.0,0.0,1.0,0.0,0.0,0.0,1.0
1464117352283295417,388,1464117352279798135,,6.04308891296,-1.11836147308,-100.583618164,0.00147000001743,1.0,0.0,0.0,0.0,1.0,0.0,0.0,0.0,1.0,-2.68292689323,11.0975618362,2.37804889679,1.0,0.0,0.0,0.0,1.0,0.0,0.0,0.0,1.0,-0.694318481445,-0.258573779297,10.3621047852,1.0,0.0,0.0,0.0,1.0,0.0,0.0,0.0,1.0
1464117352303497392,389,1464117352301222346,,6.21760177612,-1.15813171864,-100.586029053,0.00143699999899,1.0,0.0,0.0,0.0,1.0,0.0,0.0,0.0,1.0,-0.304878056049,2.80487799644,-1.8902438879,1.0,0.0,0.0,0.0,1.0,0.0,0.0,0.0,1.0,-0.799663354492,-0.114921679688,10.0317049561,1.0,0.0,0.0,0.0,1.0,0.0,0.0,0.0,1.0
1464117352325587121,390,1464117352323255774,,6.23809862137,-1.2129291296,-100.617980957,0.00137800001539,1.0,0.0,0.0,0.0,1.0,0.0,0.0,0.0,1.0,-1.03658533096,2.37804889679,-0.609756112099,1.0,0.0,0.0,0.0,1.0,0.0,0.0,0.0,1.0,-0.536301208408,-0.560243188477,10.1753570557,1.0,0.0,0.0,0.0,1.0,0.0,0.0,0.0,1.0
1464117352346861124,391,1464117352344509725,,6.28163433075,-1.27721607685,-100.612335205,0.00133100000676,1.0,0.0,0.0,0.0,1.0,0.0,0.0,0.0,1.0,-1.58536589146,0.243902444839,1.15853655338,1.0,0.0,0.0,0.0,1.0,0.0,0.0,0.0,1.0,-0.952892260742,-0.0718260498047,10.4004120117,1.0,0.0,0.0,0.0,1.0,0.0,0.0,0.0,1.0
1464117352367088151,392,1464117352364708887,,6.23179340363,-1.32531404495,-100.665809631,0.00123199995141,1.0,0.0,0.0,0.0,1.0,0.0,0.0,0.0,1.0,-0.853658556938,-6.28048801422,-4.93902444839,1.0,0.0,0.0,0.0,1.0,0.0,0.0,0.0,1.0,-0.876277807617,-0.512359155273,9.80186159668,1.0,0.0,0.0,0.0,1.0,0.0,0.0,0.0,1.0
1464117352387595958,393,1464117352385245652,,6.00415229797,-1.35826408863,-100.795692444,0.00116600003093,1.0,0.0,0.0,0.0,1.0,0.0,0.0,0.0,1.0,-1.03658533096,-3.84146332741,-5.73170757294,1.0,0.0,0.0,0.0,1.0,0.0,0.0,0.0,1.0,0.450109912109,-0.134075302102,10.5871597412,1.0,0.0,0.0,0.0,1.0,0.0,0.0,0.0,1.0
1464117352408502150,394,1464117352405736376,,5.9735212326,-1.40927100182,-100.80809021,0.00102199998219,1.0,0.0,0.0,0.0,1.0,0.0,0.0,0.0,1.0,-1.64634156227,9.63414573669,4.02439022064,1.0,0.0,0.0,0.0,1.0,0.0,0.0,0.0,1.0,0.215478149414,-0.368707055664,10.4626612549,1.0,0.0,0.0,0.0,1.0,0.0,0.0,0.0,1.0
1464117352430635994,395,1464117352427148035,,6.12918376923,-1.47659611702,-100.664787292,0.000998000032268,1.0,0.0,0.0,0.0,1.0,0.0,0.0,0.0,1.0,-0.12195122242,8.71951198578,4.32926845551,1.0,0.0,0.0,0.0,1.0,0.0,0.0,0.0,1.0,-0.584185168546,-0.191536132812,9.95987890625,1.0,0.0,0.0,0.0,1.0,0.0,0.0,0.0,1.0
1464117352451344374,396,1464117352448219747,,6.16403055191,-1.51294708252,-100.713478088,0.0010529999854,1.0,0.0,0.0,0.0,1.0,0.0,0.0,0.0,1.0,1.8292683363,-7.31707334518,-5.79268312454,1.0,0.0,0.0,0.0,1.0,0.0,0.0,0.0,1.0,-0.60812722168,-0.402225878906,9.73961235352,1.0,0.0,0.0,0.0,1.0,0.0,0.0,0.0,1.0
1464117352472224003,397,1464117352469283542,,5.96884059906,-1.52814602852,-100.8463974,0.00103499996476,1.0,0.0,0.0,0.0,1.0,0.0,0.0,0.0,1.0,-0.365853667259,-2.62195134163,-6.0365858078,1.0,0.0,0.0,0.0,1.0,0.0,0.0,0.0,1.0,0.344765039063,-0.359130249023,10.3285859619,1.0,0.0,0.0,0.0,1.0,0.0,0.0,0.0,1.0
1464117352493083684,398,1464117352490167911,,5.90709733963,-1.59133636951,-100.908302307,0.00106599996798,1.0,0.0,0.0,0.0,1.0,0.0,0.0,0.0,1.0,-1.2195122242,4.2682929039,-0.548780500889,1.0,0.0,0.0,0.0,1.0,0.0,0.0,0.0,1.0,0.119710083008,-0.713472094727,10.3716815918,1.0,0.0,0.0,0.0,1.0,0.0,0.0,0.0,1.0
1464117352513839980,399,1464117352511416966,,5.97108411789,-1.65431988239,-100.88419342,0.00110500003211,1.0,0.0,0.0,0.0,1.0,0.0,0.0,0.0,1.0,-1.03658533096,8.5365858078,1.58536589146,1.0,0.0,0.0,0.0,1.0,0.0,0.0,0.0,1.0,-0.172382519531,-0.497993945312,10.2519715088,1.0,0.0,0.0,0.0,1.0,0.0,0.0,0.0,1.0
1464117352535118827,400,1464117352532463209,,6.08581066132,-1.6931347847,-100.889930725,0.00109399994835,1.0,0.0,0.0,0.0,1.0,0.0,0.0,0.0,1.0,-0.975609779358,5.06097555161,-0.975609779358,1.0,0.0,0.0,0.0,1.0,0.0,0.0,0.0,1.0,-0.339976635742,-0.344765039063,10.1274730225,1.0,0.0,0.0,0.0,1.0,0.0,0.0,0.0,1.0
1464117352556291528,401,1464117352552948152,,6.16173267365,-1.74225878716,-100.924430847,0.00115999998525,1.0,0.0,0.0,0.0,1.0,0.0,0.0,0.0,1.0,-0.365853667259,10.0,0.18292683363,1.0,0.0,0.0,0.0,1.0,0.0,0.0,0.0,1.0,-0.656011254883,0.0191536132812,10.2376062988,1.0,0.0,0.0,0.0,1.0,0.0,0.0,0.0,1.0
1464117352576923710,402,1464117352574249238,,6.37198734283,-1.79676127434,-100.853645325,0.00101799995173,1.0,0.0,0.0,0.0,1.0,0.0,0.0,0.0,1.0,-1.70731711388,11.8902444839,5.60975599289,1.0,0.0,0.0,0.0,1.0,0.0,0.0,0.0,1.0,-0.756567724609,-0.900219824219,9.97424411621,1.0,0.0,0.0,0.0,1.0,0.0,0.0,0.0,1.0
1464117352597115476,403,1464117352594717045,,6.55326461792,-1.83017861843,-100.810279846,0.000959999975748,1.0,0.0,0.0,0.0,1.0,0.0,0.0,0.0,1.0,-1.40243899822,-0.365853667259,-2.01219511032,1.0,0.0,0.0,0.0,1.0,0.0,0.0,0.0,1.0,-1.64242233887,-0.205901342773,9.71567033691,1.0,0.0,0.0,0.0,1.0,0.0,0.0,0.0,1.0
1464117352620919576,404,1464117352615899382,,6.41021490097,-1.85817325115,-100.951766968,0.000982000026852,1.0,0.0,0.0,0.0,1.0,0.0,0.0,0.0,1.0,-1.03658533096,-9.5731716156,-8.17073154449,1.0,0.0,0.0,0.0,1.0,0.0,0.0,0.0,1.0,0.00957680664062,-0.531512805087,10.553640918,1.0,0.0,0.0,0.0,1.0,0.0,0.0,0.0,1.0
1464117352640495511,405,1464117352636721459,,6.22823619843,-1.89154052734,-101.040809631,0.00105600000825,1.0,0.0,0.0,0.0,1.0,0.0,0.0,0.0,1.0,-1.34146344662,3.7804877758,0.243902444839,1.0,0.0,0.0,0.0,1.0,0.0,0.0,0.0,1.0,0.210689746094,-0.632069238281,10.3956236084,1.0,0.0,0.0,0.0,1.0,0.0,0.0,0.0,1.0
1464117352663522165,406,1464117352657481349,,6.36818552017,-1.94602012634,-100.919082642,0.00152199994773,1.0,0.0,0.0,0.0,1.0,0.0,0.0,0.0,1.0,-3.41463422775,8.90243911743,8.5365858078,1.0,0.0,0.0,0.0,1.0,0.0,0.0,0.0,1.0,-0.402225878906,-0.775721337891,10.553640918,1.0,0.0,0.0,0.0,1.0,0.0,0.0,0.0,1.0
1464117352685263459,407,1464117352683680755,,6.47190093994,-1.95798993111,-100.888748169,0.00111599999946,1.0,0.0,0.0,0.0,1.0,0.0,0.0,0.0,1.0,1.8292683363,-5.36585378647,-4.93902444839,1.0,0.0,0.0,0.0,1.0,0.0,0.0,0.0,1.0,-1.16837033709,-0.708683691406,9.95030209961,1.0,0.0,0.0,0.0,1.0,0.0,0.0,0.0,1.0
1464117352704091114,408,1464117352702145859,,6.21869897842,-1.9595541954,-101.013473511,0.00328999990597,1.0,0.0,0.0,0.0,1.0,0.0,0.0,0.0,1.0,1.46341466904,-5.91463422775,-5.60975599289,1.0,0.0,0.0,0.0,1.0,0.0,0.0,0.0,1.0,0.119710083008,-0.416591088867,10.1131078125,1.0,0.0,0.0,0.0,1.0,0.0,0.0,0.0,1.0
1464117352727858496,409,1464117352724701005,,6.07431936264,-2.01861619949,-101.076942444,0.00130600004923,1.0,0.0,0.0,0.0,1.0,0.0,0.0,0.0,1.0,-1.40243899822,2.43902444839,-0.670731723309,1.0,0.0,0.0,0.0,1.0,0.0,0.0,0.0,1.0,-0.0430956298828,-0.699106884766,10.3908352051,1.0,0.0,0.0,0.0,1.0,0.0,0.0,0.0,1.0
1464117352745595582,410,1464117352742976735,,6.07960271835,-2.08566975594,-101.062988281,0.00455799978226,1.0,0.0,0.0,0.0,1.0,0.0,0.0,0.0,1.0,-0.670731723309,5.54878091812,1.46341466904,1.0,0.0,0.0,0.0,1.0,0.0,0.0,0.0,1.0,0.359130249023,-0.646434448242,10.4435076416,1.0,0.0,0.0,0.0,1.0,0.0,0.0,0.0,1.0
1464117352766177607,411,1464117352763583031,,6.19616651535,-2.11194038391,-101.010284424,0.00452800001949,1.0,0.0,0.0,0.0,1.0,0.0,0.0,0.0,1.0,0.243902444839,11.4634151459,5.97560977936,1.0,0.0,0.0,0.0,1.0,0.0,0.0,0.0,1.0,-0.239420166016,-0.493205541992,10.5440641113,1.0,0.0,0.0,0.0,1.0,0.0,0.0,0.0,1.0
1464117352786703487,412,1464117352783686100,,6.43808031082,-2.13709950447,-100.860801697,0.0015190000413,1.0,0.0,0.0,0.0,1.0,0.0,0.0,0.0,1.0,0.548780500889,6.70731735229,5.24390268326,1.0,0.0,0.0,0.0,1.0,0.0,0.0,0.0,1.0,-0.957680664062,-0.363918652344,9.79707319336,1.0,0.0,0.0,0.0,1.0,0.0,0.0,0.0,1.0
1464117352806382599,413,1464117352804671458,,6.41789913177,-2.17299723625,-100.944549561,0.00117800000589,1.0,0.0,0.0,0.0,1.0,0.0,0.0,0.0,1.0,0.18292683363,-7.80487823486,-7.43902492523,1.0,0.0,0.0,0.0,1.0,0.0,0.0,0.0,1.0,-0.91458503418,-0.373495458984,9.80186159668,1.0,0.0,0.0,0.0,1.0,0.0,0.0,0.0,1.0
1464117352828561339,414,1464117352825536868,,6.16835975647,-2.19562721252,-101.0965271,0.00125800003298,1.0,0.0,0.0,0.0,1.0,0.0,0.0,0.0,1.0,0.304878056049,-1.64634156227,-7.31707334518,1.0,0.0,0.0,0.0,1.0,0.0,0.0,0.0,1.0,0.713472094727,-0.598550451572,10.4147772217,1.0,0.0,0.0,0.0,1.0,0.0,0.0,0.0,1.0
1464117352852075336,415,1464117352849215239,,6.24639081955,-2.27491092682,-101.070549011,0.00911999959499,1.0,0.0,0.0,0.0,1.0,0.0,0.0,0.0,1.0,0.914634168148,12.6219520569,6.89024400711,1.0,0.0,0.0,0.0,1.0,0.0,0.0,0.0,1.0,-0.100556469727,-0.699106884766,10.3621047852,1.0,0.0,0.0,0.0,1.0,0.0,0.0,0.0,1.0
1464117352870292264,416,1464117352867204043,,6.48733139038,-2.31328105927,-100.922584534,0.000984000042081,1.0,0.0,0.0,0.0,1.0,0.0,0.0,0.0,1.0,1.52439022064,4.57317066193,3.53658556938,1.0,0.0,0.0,0.0,1.0,0.0,0.0,0.0,1.0,-0.737414111328,-0.488417138672,9.37090471333,1.0,0.0,0.0,0.0,1.0,0.0,0.0,0.0,1.0
1464117352891037518,417,1464117352887812111,,6.46394586563,-2.34893155098,-101.008712769,0.00096700002905,1.0,0.0,0.0,0.0,1.0,0.0,0.0,0.0,1.0,-0.914634168148,-7.92682981491,-6.40243911743,1.0,0.0,0.0,0.0,1.0,0.0,0.0,0.0,1.0,-0.751779321289,0.124498486328,9.70130512695,1.0,0.0,0.0,0.0,1.0,0.0,0.0,0.0,1.0
1464117352912061887,418,1464117352909372779,,6.20569038391,-2.37449836731,-101.144615173,0.00102700002026,1.0,0.0,0.0,0.0,1.0,0.0,0.0,0.0,1.0,-1.46341466904,-0.426829278469,-5.18292713165,1.0,0.0,0.0,0.0,1.0,0.0,0.0,0.0,1.0,0.215478149414,-0.756567724609,10.6685625977,1.0,0.0,0.0,0.0,1.0,0.0,0.0,0.0,1.0
1464117352933761045,419,1464117352929793295,,6.16782474518,-2.43175506592,-101.190376282,0.00132599996869,1.0,0.0,0.0,0.0,1.0,0.0,0.0,0.0,1.0,-0.243902444839,4.20731735229,-0.487804889679,1.0,0.0,0.0,0.0,1.0,0.0,0.0,0.0,1.0,-0.0957680664062,-0.938527050781,10.3860468018,1.0,0.0,0.0,0.0,1.0,0.0,0.0,0.0,1.0
1464117352952550367,420,1464117352950902819,,6.20572566986,-2.45700073242,-101.179656982,0.00129100005142,1.0,0.0,0.0,0.0,1.0,0.0,0.0,0.0,1.0,-0.487804889679,7.31707334518,0.18292683363,1.0,0.0,0.0,0.0,1.0,0.0,0.0,0.0,1.0,-0.110133276367,-0.296881024126,10.3429511719,1.0,0.0,0.0,0.0,1.0,0.0,0.0,0.0,1.0
1464117352974144890,421,1464117352972537655,,6.296895504,-2.4719016552,-101.192253113,0.00140700000338,1.0,0.0,0.0,0.0,1.0,0.0,0.0,0.0,1.0,-0.792682945728,4.02439022064,-0.304878056049,1.0,0.0,0.0,0.0,1.0,0.0,0.0,0.0,1.0,-0.335188232422,-0.316034619141,10.2615483154,1.0,0.0,0.0,0.0,1.0,0.0,0.0,0.0,1.0
1464117352996046547,422,1464117352993379524,,6.3387670517,-2.53392982483,-101.209770203,0.00106200005393,1.0,0.0,0.0,0.0,1.0,0.0,0.0,0.0,1.0,-1.09756100178,7.74390268326,1.8292683363,1.0,0.0,0.0,0.0,1.0,0.0,0.0,0.0,1.0,-0.339976635742,-0.407014282227,10.5057568848,1.0,0.0,0.0,0.0,1.0,0.0,0.0,0.0,1.0
1464117353017384821,423,1464117353014596756,,6.52324962616,-2.56865715981,-101.111442566,0.000959999975748,1.0,0.0,0.0,0.0,1.0,0.0,0.0,0.0,1.0,-1.76829278469,9.93902492523,6.95121955872,1.0,0.0,0.0,0.0,1.0,0.0,0.0,0.0,1.0,-0.900219824219,-0.588973571866,10.2711251221,1.0,0.0,0.0,0.0,1.0,0.0,0.0,0.0,1.0
1464117353037770910,424,1464117353035019042,,6.69918680191,-2.59106993675,-101.040275574,0.000988999963738,1.0,0.0,0.0,0.0,1.0,0.0,0.0,0.0,1.0,-1.03658533096,1.52439022064,1.52439022064,1.0,0.0,0.0,0.0,1.0,0.0,0.0,0.0,1.0,-1.07260241682,-0.588973571866,10.314220752,1.0,0.0,0.0,0.0,1.0,0.0,0.0,0.0,1.0
1464117353061999644,425,1464117353056453462,,6.6732378006,-2.61093258858,-101.0701828,0.00096700002905,1.0,0.0,0.0,0.0,1.0,0.0,0.0,0.0,1.0,1.03658533096,-4.14634132385,-1.40243899822,1.0,0.0,0.0,0.0,1.0,0.0,0.0,0.0,1.0,-0.9193734375,-0.483628735352,10.1418382324,1.0,0.0,0.0,0.0,1.0,0.0,0.0,0.0,1.0
1464117353079594491,426,1464117353077333403,,6.54111146927,-2.62077665329,-101.082504272,0.00099400000181,1.0,0.0,0.0,0.0,1.0,0.0,0.0,0.0,1.0,0.548780500889,-4.02439022064,0.365853667259,1.0,0.0,0.0,0.0,1.0,0.0,0.0,0.0,1.0,-0.679953271484,-0.435744702148,10.2328178955,1.0,0.0,0.0,0.0,1.0,0.0,0.0,0.0,1.0
1464117353100981931,427,1464117353098615062,,6.43650960922,-2.63598513603,-101.062210083,0.000987999956124,1.0,0.0,0.0,0.0,1.0,0.0,0.0,0.0,1.0,-0.426829278469,-3.04878044128,0.792682945728,1.0,0.0,0.0,0.0,1.0,0.0,0.0,0.0,1.0,-0.067037651051,-0.507570751953,10.5488525146,1.0,0.0,0.0,0.0,1.0,0.0,0.0,0.0,1.0
1464117353124360459,428,1464117353120171304,,6.30956840515,-2.66102027893,-101.068450928,0.0013340000296,1.0,0.0,0.0,0.0,1.0,0.0,0.0,0.0,1.0,-0.548780500889,-2.01219511032,-0.609756112099,1.0,0.0,0.0,0.0,1.0,0.0,0.0,0.0,1.0,-0.0239420166016,-0.483628735352,10.165780249,1.0,0.0,0.0,0.0,1.0,0.0,0.0,0.0,1.0
1464117353147769769,429,1464117353145544150,,6.21177911758,-2.67913126945,-101.084838867,0.00112000002991,1.0,0.0,0.0,0.0,1.0,0.0,0.0,0.0,1.0,0.792682945728,-0.243902444839,-0.609756112099,1.0,0.0,0.0,0.0,1.0,0.0,0.0,0.0,1.0,-0.0861912597656,-0.450109912109,10.2232410889,1.0,0.0,0.0,0.0,1.0,0.0,0.0,0.0,1.0
1464117353169734082,430,1464117353167655807,,6.14673900604,-2.69937229156,-101.092445374,0.00329699995928,1.0,0.0,0.0,0.0,1.0,0.0,0.0,0.0,1.0,-0.18292683363,1.40243899822,0.0,1.0,0.0,0.0,0.0,1.0,0.0,0.0,0.0,1.0,0.0718260498047,-0.512359155273,10.419565625,1.0,0.0,0.0,0.0,1.0,0.0,0.0,0.0,1.0
1464117353186417681,431,1464117353184220344,,6.13712358475,-2.70594763756,-101.093399048,0.00536700012162,1.0,0.0,0.0,0.0,1.0,0.0,0.0,0.0,1.0,0.243902444839,5.24390268326,0.0,1.0,0.0,0.0,0.0,1.0,0.0,0.0,0.0,1.0,-0.253785375977,0.105344873047,9.91678327637,1.0,0.0,0.0,0.0,1.0,0.0,0.0,0.0,1.0
1464117353210594593,432,1464117353204849869,,6.23158073425,-2.74389028549,-101.031303406,0.00101300003007,1.0,0.0,0.0,0.0,1.0,0.0,0.0,0.0,1.0,0.487804889679,11.1585359573,6.46341466904,1.0,0.0,0.0,0.0,1.0,0.0,0.0,0.0,1.0,0.416591088867,-0.790086547852,10.419565625,1.0,0.0,0.0,0.0,1.0,0.0,0.0,0.0,1.0
1464117353227881107,433,1464117353225697519,,6.45608901978,-2.75922751427,-100.919563293,0.00198099995032,1.0,0.0,0.0,0.0,1.0,0.0,0.0,0.0,1.0,1.46341466904,5.73170757294,1.95121955872,1.0,0.0,0.0,0.0,1.0,0.0,0.0,0.0,1.0,-1.19231249982,-0.325611425781,10.0029745361,1.0,0.0,0.0,0.0,1.0,0.0,0.0,0.0,1.0
1464117353249006152,434,1464117353245989754,,6.37459468842,-2.80144619942,-101.015914917,0.00108299998101,1.0,0.0,0.0,0.0,1.0,0.0,0.0,0.0,1.0,-0.853658556938,-7.07317113876,-7.25609779358,1.0,0.0,0.0,0.0,1.0,0.0,0.0,0.0,1.0,-0.0622492431641,0.134075302102,9.8545340332,1.0,0.0,0.0,0.0,1.0,0.0,0.0,0.0,1.0
1464117353269816719,435,1464117353267133132,,6.154109478,-2.83568453789,-101.176582336,0.00102500000503,1.0,0.0,0.0,0.0,1.0,0.0,0.0,0.0,1.0,-2.56097555161,0.914634168148,-6.52439069748,1.0,0.0,0.0,0.0,1.0,0.0,0.0,0.0,1.0,0.718260498047,-1.95366855469,10.6111017578,1.0,0.0,0.0,0.0,1.0,0.0,0.0,0.0,1.0
1464117353291096034,436,1464117353288422448,,6.22932529449,-2.87596821785,-101.157707214,0.00097499997355,1.0,0.0,0.0,0.0,1.0,0.0,0.0,0.0,1.0,0.548780500889,14.2682924271,6.7682929039,1.0,0.0,0.0,0.0,1.0,0.0,0.0,0.0,1.0,-0.387860668945,-0.890643017578,10.3237975586,1.0,0.0,0.0,0.0,1.0,0.0,0.0,0.0,1.0
1464117353319635642,437,1464117353309723326,,6.4944767952,-2.88487577438,-101.028251648,0.00105800002348,1.0,0.0,0.0,0.0,1.0,0.0,0.0,0.0,1.0,-0.0609756112099,10.3658542633,5.36585378647,1.0,0.0,0.0,0.0,1.0,0.0,0.0,0.0,1.0,-1.36469494629,-0.186747729492,9.73961235352,1.0,0.0,0.0,0.0,1.0,0.0,0.0,0.0,1.0
1464117353332998729,438,1464117353330607538,,6.61286687851,-2.90811467171,-101.047195435,0.00100199994631,1.0,0.0,0.0,0.0,1.0,0.0,0.0,0.0,1.0,-0.670731723309,0.304878056049,-1.15853655338,1.0,0.0,0.0,0.0,1.0,0.0,0.0,0.0,1.0,-1.41257897949,-0.201112939453,9.96466730957,1.0,0.0,0.0,0.0,1.0,0.0,0.0,0.0,1.0
1464117353353760390,439,1464117353351141439,,6.58240032196,-2.93059015274,-101.073875427,0.00112100003753,1.0,0.0,0.0,0.0,1.0,0.0,0.0,0.0,1.0,0.18292683363,0.0609756112099,0.243902444839,1.0,0.0,0.0,0.0,1.0,0.0,0.0,0.0,1.0,-0.694318481445,-0.909796630859,10.4674496582,1.0,0.0,0.0,0.0,1.0,0.0,0.0,0.0,1.0
1464117353374803144,440,1464117353372136120,,6.57651662827,-2.95255899429,-101.050346375,0.000965000013821,1.0,0.0,0.0,0.0,1.0,0.0,0.0,0.0,1.0,0.426829278469,-1.09756100178,1.34146344662,1.0,0.0,0.0,0.0,1.0,0.0,0.0,0.0,1.0,-0.61770402832,-0.584185168546,10.3237975586,1.0,0.0,0.0,0.0,1.0,0.0,0.0,0.0,1.0
1464117353396096313,441,1464117353393033041,,6.52331018448,-2.94378566742,-101.037002563,0.000965000013821,1.0,0.0,0.0,0.0,1.0,0.0,0.0,0.0,1.0,-0.12195122242,-3.7804877758,0.0,1.0,0.0,0.0,0.0,1.0,0.0,0.0,0.0,1.0,-0.373495458984,-0.478840332031,10.3333743652,1.0,0.0,0.0,0.0,1.0,0.0,0.0,0.0,1.0
1464117353416343392,442,1464117353414025899,,6.41114330292,-2.94989180565,-101.025230408,0.000958000018727,1.0,0.0,0.0,0.0,1.0,0.0,0.0,0.0,1.0,0.365853667259,-2.07317066193,0.792682945728,1.0,0.0,0.0,0.0,1.0,0.0,0.0,0.0,1.0,-0.076614453125,-0.603338854892,10.2376062988,1.0,0.0,0.0,0.0,1.0,0.0,0.0,0.0,1.0
1464117353437724478,443,1464117353434849121,,6.30644464493,-2.96057796478,-101.00705719,0.000952999980655,1.0,0.0,0.0,0.0,1.0,0.0,0.0,0.0,1.0,0.792682945728,-3.35365867615,-0.792682945728,1.0,0.0,0.0,0.0,1.0,0.0,0.0,0.0,1.0,-0.330399829102,-0.723048901367,9.63426806499,1.0,0.0,0.0,0.0,1.0,0.0,0.0,0.0,1.0
1464117353461168527,444,1464117353456175989,,6.13234233856,-2.96086859703,-101.072731018,0.000964000006206,1.0,0.0,0.0,0.0,1.0,0.0,0.0,0.0,1.0,0.609756112099,-3.96341490746,-5.12195110321,1.0,0.0,0.0,0.0,1.0,0.0,0.0,0.0,1.0,0.210689746094,-0.536301208408,10.1418382324,1.0,0.0,0.0,0.0,1.0,0.0,0.0,0.0,1.0
1464117353479571288,445,1464117353477079420,,6.00653028488,-2.98742079735,-101.13407135,0.000960999983363,1.0,0.0,0.0,0.0,1.0,0.0,0.0,0.0,1.0,-0.548780500889,5.06097555161,0.548780500889,1.0,0.0,0.0,0.0,1.0,0.0,0.0,0.0,1.0,0.497993945312,-1.35990654297,11.0803652832,1.0,0.0,0.0,0.0,1.0,0.0,0.0,0.0,1.0
1464117353501909663,446,1464117353497942122,,6.15336608887,-2.9978864193,-101.03842926,0.00101100001484,1.0,0.0,0.0,0.0,1.0,0.0,0.0,0.0,1.0,0.0609756112099,9.63414573669,6.7682929039,1.0,0.0,0.0,0.0,1.0,0.0,0.0,0.0,1.0,-0.723048901367,-1.04866025408,9.86411083984,1.0,0.0,0.0,0.0,1.0,0.0,0.0,0.0,1.0
1464117353521425077,447,1464117353518593210,,6.22472286224,-2.99982428551,-101.000274658,0.0010450000409,1.0,0.0,0.0,0.0,1.0,0.0,0.0,0.0,1.0,-0.548780500889,4.20731735229,-3.29268312454,1.0,0.0,0.0,0.0,1.0,0.0,0.0,0.0,1.0,-0.474051928711,-0.665588061523,9.60553764507,1.0,0.0,0.0,0.0,1.0,0.0,0.0,0.0,1.0
1464117353549411665,448,1464117353543482151,,6.12922716141,-3.00835084915,-101.089981079,0.00263300002553,1.0,0.0,0.0,0.0,1.0,0.0,0.0,0.0,1.0,-1.64634156227,3.41463422775,-4.08536577225,1.0,0.0,0.0,0.0,1.0,0.0,0.0,0.0,1.0,0.354341845703,-0.320823022461,10.4435076416,1.0,0.0,0.0,0.0,1.0,0.0,0.0,0.0,1.0
1464117353565226465,449,1464117353560897415,,6.16136884689,-3.05522680283,-101.174674988,0.00338299991563,1.0,0.0,0.0,0.0,1.0,0.0,0.0,0.0,1.0,-1.03658533096,8.47560977936,-2.5,1.0,0.0,0.0,0.0,1.0,0.0,0.0,0.0,1.0,-0.148440512063,-0.61770402832,10.046070166,1.0,0.0,0.0,0.0,1.0,0.0,0.0,0.0,1.0
1464117353586240052,450,1464117353583984537,,6.30719089508,-3.09574151039,-101.24042511,0.00443299999461,1.0,0.0,0.0,0.0,1.0,0.0,0.0,0.0,1.0,-1.40243899822,9.87804889679,-2.56097555161,1.0,0.0,0.0,0.0,1.0,0.0,0.0,0.0,1.0,-0.0191536132812,-0.579396801758,10.4722380615,1.0,0.0,0.0,0.0,1.0,0.0,0.0,0.0,1.0
1464117353608714520,451,1464117353604464168,,6.54328536987,-3.10076260567,-101.230155945,0.00133500003722,1.0,0.0,0.0,0.0,1.0,0.0,0.0,0.0,1.0,0.548780500889,12.5,3.96341490746,1.0,0.0,0.0,0.0,1.0,0.0,0.0,0.0,1.0,-0.727837304687,-0.948103857422,10.8313683105,1.0,0.0,0.0,0.0,1.0,0.0,0.0,0.0,1.0
1464117353627688478,452,1464117353625023016,,6.80766201019,-3.12274241447,-101.14540863,0.00142800004687,1.0,0.0,0.0,0.0,1.0,0.0,0.0,0.0,1.0,1.8292683363,5.60975599289,2.56097555161,1.0,0.0,0.0,0.0,1.0,0.0,0.0,0.0,1.0,-1.15879360352,-0.430956298828,10.1753570557,1.0,0.0,0.0,0.0,1.0,0.0,0.0,0.0,1.0
1464117353647647641,453,1464117353645354574,,6.83500909805,-3.15764522552,-101.238983154,0.00121899996884,1.0,0.0,0.0,0.0,1.0,0.0,0.0,0.0,1.0,1.15853655338,-9.81707286835,-8.10975551605,1.0,0.0,0.0,0.0,1.0,0.0,0.0,0.0,1.0,-1.11569797363,-0.603338854892,9.46188437642,1.0,0.0,0.0,0.0,1.0,0.0,0.0,0.0,1.0
1464117353669228257,454,1464117353666708577,,6.58188867569,-3.14893293381,-101.424179077,0.00115100003313,1.0,0.0,0.0,0.0,1.0,0.0,0.0,0.0,1.0,-1.2195122242,-14.5731706619,-9.26829242706,1.0,0.0,0.0,0.0,1.0,0.0,0.0,0.0,1.0,-0.560243188477,-0.665588061523,10.5775829346,1.0,0.0,0.0,0.0,1.0,0.0,0.0,0.0,1.0
1464117353693497773,455,1464117353687945965,,6.33466291428,-3.16181850433,-101.532211304,0.00103699997999,1.0,0.0,0.0,0.0,1.0,0.0,0.0,0.0,1.0,-0.487804889679,-5.30487823486,-1.2195122242,1.0,0.0,0.0,0.0,1.0,0.0,0.0,0.0,1.0,-0.584185168546,-0.526724328702,10.4291424316,1.0,0.0,0.0,0.0,1.0,0.0,0.0,0.0,1.0
1464117353714536360,456,1464117353709349239,,6.20802116394,-3.16943001747,-101.458526611,0.0011930000037,1.0,0.0,0.0,0.0,1.0,0.0,0.0,0.0,1.0,1.8292683363,0.670731723309,5.73170757294,1.0,0.0,0.0,0.0,1.0,0.0,0.0,0.0,1.0,0.45489831543,-0.536301208408,10.2519715088,1.0,0.0,0.0,0.0,1.0,0.0,0.0,0.0,1.0
1464117353737619837,457,1464117353730793345,,6.25839614868,-3.11810207367,-101.239822388,0.0010969999712,1.0,0.0,0.0,0.0,1.0,0.0,0.0,0.0,1.0,1.40243899822,9.39024448395,13.658536911,1.0,0.0,0.0,0.0,1.0,0.0,0.0,0.0,1.0,-0.656011254883,-0.339976635742,9.86411083984,1.0,0.0,0.0,0.0,1.0,0.0,0.0,0.0,1.0
1464117353757103376,458,1464117353751924224,,6.26327180862,-3.02057242393,-101.019454956,0.00110500003211,1.0,0.0,0.0,0.0,1.0,0.0,0.0,0.0,1.0,1.58536589146,-0.731707334518,1.95121955872,1.0,0.0,0.0,0.0,1.0,0.0,0.0,0.0,1.0,0.565031591797,-0.679953271484,10.3190091553,1.0,0.0,0.0,0.0,1.0,0.0,0.0,0.0,1.0
1464117353777298840,459,1464117353772787186,,6.05454063416,-3.04331493378,-101.142532349,0.00104999996256,1.0,0.0,0.0,0.0,1.0,0.0,0.0,0.0,1.0,0.243902444839,-8.29268264771,-10.1829271317,1.0,0.0,0.0,0.0,1.0,0.0,0.0,0.0,1.0,0.387860668945,-1.20667770978,10.0269165527,1.0,0.0,0.0,0.0,1.0,0.0,0.0,0.0,1.0
1464117353795523373,460,1464117353793308170,,5.7639966011,-3.09388422966,-101.333274841,0.00112100003753,1.0,0.0,0.0,0.0,1.0,0.0,0.0,0.0,1.0,1.70731711388,-4.20731735229,-7.43902492523,1.0,0.0,0.0,0.0,1.0,0.0,0.0,0.0,1.0,0.866701000977,-0.967257470703,11.0707884766,1.0,0.0,0.0,0.0,1.0,0.0,0.0,0.0,1.0
1464117353816017690,461,1464117353813905144,,5.71035289764,-3.12161850929,-101.417518616,0.00104000000283,1.0,0.0,0.0,0.0,1.0,0.0,0.0,0.0,1.0,-0.365853667259,9.93902492523,2.07317066193,1.0,0.0,0.0,0.0,1.0,0.0,0.0,0.0,1.0,0.0,-0.416591088867,10.4674496582,1.0,0.0,0.0,0.0,1.0,0.0,0.0,0.0,1.0
1464117353837664869,462,1464117353834887012,,5.97946453094,-3.07264089584,-101.343635559,0.00107600004412,1.0,0.0,0.0,0.0,1.0,0.0,0.0,0.0,1.0,-1.52439022064,13.1707324982,4.69512224197,1.0,0.0,0.0,0.0,1.0,0.0,0.0,0.0,1.0,-0.876277807617,0.3064578125,10.060435376,1.0,0.0,0.0,0.0,1.0,0.0,0.0,0.0,1.0
1464117353859100330,463,1464117353856301588,,6.28219842911,-3.01449608803,-101.183364868,0.00100899999961,1.0,0.0,0.0,0.0,1.0,0.0,0.0,0.0,1.0,-1.64634156227,4.14634132385,7.31707334518,1.0,0.0,0.0,0.0,1.0,0.0,0.0,0.0,1.0,-1.21146604004,-0.339976635742,10.0556469727,1.0,0.0,0.0,0.0,1.0,0.0,0.0,0.0,1.0
1464117353883336773,464,1464117353876978978,,6.26436042786,-3.00790834427,-101.108901978,0.00104799994733,1.0,0.0,0.0,0.0,1.0,0.0,0.0,0.0,1.0,1.03658533096,-0.914634168148,1.2804877758,1.0,0.0,0.0,0.0,1.0,0.0,0.0,0.0,1.0,0.277727392578,-0.732625708008,10.7068698242,1.0,0.0,0.0,0.0,1.0,0.0,0.0,0.0,1.0
1464117353902169480,465,1464117353897888242,,6.17083358765,-3.00917506218,-101.102088928,0.00101699994411,1.0,0.0,0.0,0.0,1.0,0.0,0.0,0.0,1.0,0.426829278469,3.53658556938,0.853658556938,1.0,0.0,0.0,0.0,1.0,0.0,0.0,0.0,1.0,0.00478840332031,-0.708683691406,9.65342167827,1.0,0.0,0.0,0.0,1.0,0.0,0.0,0.0,1.0
1464117353924699209,466,1464117353918550060,,6.15237092972,-3.00457715988,-101.113830566,0.00104799994733,1.0,0.0,0.0,0.0,1.0,0.0,0.0,0.0,1.0,1.8902438879,1.46341466904,-3.47560977936,1.0,0.0,0.0,0.0,1.0,0.0,0.0,0.0,1.0,-0.61770402832,-0.857124194336,9.66778688823,1.0,0.0,0.0,0.0,1.0,0.0,0.0,0.0,1.0
1464117353942110983,467,1464117353939747084,,6.05492925644,-2.9735019207,-101.2134552,0.00110600003973,1.0,0.0,0.0,0.0,1.0,0.0,0.0,0.0,1.0,4.14634132385,-2.68292689323,-5.12195110321,1.0,0.0,0.0,0.0,1.0,0.0,0.0,0.0,1.0,0.0861912597656,-0.277727392578,10.539275708,1.0,0.0,0.0,0.0,1.0,0.0,0.0,0.0,1.0
1464117353969626427,468,1464117353966414040,,6.11323356628,-2.95151233673,-101.173202515,0.00675699999556,1.0,0.0,0.0,0.0,1.0,0.0,0.0,0.0,1.0,0.975609779358,11.4634151459,9.32926845551,1.0,0.0,0.0,0.0,1.0,0.0,0.0,0.0,1.0,0.0143652099609,-0.76135612793,10.9079827637,1.0,0.0,0.0,0.0,1.0,0.0,0.0,0.0,1.0
1464117353990347359,469,1464117353987545700,,6.43342351913,-2.91289806366,-100.934677124,0.00112599995919,1.0,0.0,0.0,0.0,1.0,0.0,0.0,0.0,1.0,1.2804877758,12.4390249252,12.1341466904,1.0,0.0,0.0,0.0,1.0,0.0,0.0,0.0,1.0,-0.775721337891,-0.497993945312,10.0125513428,1.0,0.0,0.0,0.0,1.0,0.0,0.0,0.0,1.0
1464117354011536518,470,1464117354009263399,,6.62839221954,-2.77813744545,-100.748023987,0.001111999969,1.0,0.0,0.0,0.0,1.0,0.0,0.0,0.0,1.0,4.39024400711,10.6097564697,6.95121955872,1.0,0.0,0.0,0.0,1.0,0.0,0.0,0.0,1.0,-0.162805712891,-0.521935925381,10.3046439453,1.0,0.0,0.0,0.0,1.0,0.0,0.0,0.0,1.0
1464117354032069377,471,1464117354029650269,,6.75886249542,-2.66153097153,-100.675552368,0.00126399996225,1.0,0.0,0.0,0.0,1.0,0.0,0.0,0.0,1.0,2.25609779358,4.69512224197,-1.46341466904,1.0,0.0,0.0,0.0,1.0,0.0,0.0,0.0,1.0,-0.521935925381,-0.320823022461,10.7116582275,1.0,0.0,0.0,0.0,1.0,0.0,0.0,0.0,1.0
1464117354052527914,472,1464117354050197504,,6.73339223862,-2.61845111847,-100.761856079,0.00129000004381,1.0,0.0,0.0,0.0,1.0,0.0,0.0,0.0,1.0,0.0609756112099,-6.0365858078,-5.24390268326,1.0,0.0,0.0,0.0,1.0,0.0,0.0,0.0,1.0,-0.526724328702,-0.162805712891,10.3764699951,1.0,0.0,0.0,0.0,1.0,0.0,0.0,0.0,1.0
1464117354073553428,473,1464117354071204372,,6.64361619949,-2.57713270187,-100.812690735,0.00101899995934,1.0,0.0,0.0,0.0,1.0,0.0,0.0,0.0,1.0,0.365853667259,-0.792682945728,0.914634168148,1.0,0.0,0.0,0.0,1.0,0.0,0.0,0.0,1.0,-0.895431420898,0.248996972656,10.6446205811,1.0,0.0,0.0,0.0,1.0,0.0,0.0,0.0,1.0
1464117354094678785,474,1464117354092192334,,6.67003107071,-2.58463835716,-100.753128052,0.00106200005393,1.0,0.0,0.0,0.0,1.0,0.0,0.0,0.0,1.0,0.304878056049,-3.59756112099,4.57317066193,1.0,0.0,0.0,0.0,1.0,0.0,0.0,0.0,1.0,-1.24498486328,-0.344765039063,10.1322614258,1.0,0.0,0.0,0.0,1.0,0.0,0.0,0.0,1.0
1464117354118227938,475,1464117354113070817,,6.66256332397,-2.53546333313,-100.651489258,0.00107799994294,1.0,0.0,0.0,0.0,1.0,0.0,0.0,0.0,1.0,0.304878056049,-7.07317113876,4.93902444839,1.0,0.0,0.0,0.0,1.0,0.0,0.0,0.0,1.0,-1.35990654297,-0.282515795898,10.3094323486,1.0,0.0,0.0,0.0,1.0,0.0,0.0,0.0,1.0
1464117354139627410,476,1464117354134389299,,6.3990316391,-2.48340034485,-100.507492065,0.000974000024144,1.0,0.0,0.0,0.0,1.0,0.0,0.0,0.0,1.0,1.58536589146,-11.5853662491,8.23170757294,1.0,0.0,0.0,0.0,1.0,0.0,0.0,0.0,1.0,0.737414111328,0.0143652099609,10.0843773926,1.0,0.0,0.0,0.0,1.0,0.0,0.0,0.0,1.0
1464117354159520114,477,1464117354155259814,,6.0257563591,-2.41760611534,-100.342636108,0.00100899999961,1.0,0.0,0.0,0.0,1.0,0.0,0.0,0.0,1.0,0.426829278469,-1.2804877758,7.56097555161,1.0,0.0,0.0,0.0,1.0,0.0,0.0,0.0,1.0,1.67594116211,-0.0622492431641,10.4913916748,1.0,0.0,0.0,0.0,1.0,0.0,0.0,0.0,1.0
1464117354182568644,478,1464117354175896058,,5.88016939163,-2.38522481918,-100.227371216,0.000996000017039,1.0,0.0,0.0,0.0,1.0,0.0,0.0,0.0,1.0,2.07317066193,7.07317113876,3.35365867615,1.0,0.0,0.0,0.0,1.0,0.0,0.0,0.0,1.0,1.07260241682,-0.335188232422,10.3764699951,1.0,0.0,0.0,0.0,1.0,0.0,0.0,0.0,1.0
1464117354201942860,479,1464117354196147668,,5.91617488861,-2.36440062523,-100.200248718,0.000954999995884,1.0,0.0,0.0,0.0,1.0,0.0,0.0,0.0,1.0,2.37804889679,12.5609760284,1.2804877758,1.0,0.0,0.0,0.0,1.0,0.0,0.0,0.0,1.0,0.517147558594,-0.670376464844,10.2136642822,1.0,0.0,0.0,0.0,1.0,0.0,0.0,0.0,1.0
1464117354220914891,480,1464117354217054328,,6.15776777267,-2.38696956635,-100.194633484,0.000976999988779,1.0,0.0,0.0,0.0,1.0,0.0,0.0,0.0,1.0,2.68292689323,13.841463089,0.18292683363,1.0,0.0,0.0,0.0,1.0,0.0,0.0,0.0,1.0,-0.972045874023,-0.450109912109,10.5967365479,1.0,0.0,0.0,0.0,1.0,0.0,0.0,0.0,1.0
1464117354245968102,481,1464117354238494373,,6.40955400467,-2.37186169624,-100.217559814,0.0010229999898,1.0,0.0,0.0,0.0,1.0,0.0,0.0,0.0,1.0,1.46341466904,6.95121955872,-1.40243899822,1.0,0.0,0.0,0.0,1.0,0.0,0.0,0.0,1.0,-1.59453830566,-0.268150604204,9.94072529297,1.0,0.0,0.0,0.0,1.0,0.0,0.0,0.0,1.0
1464117354265470183,482,1464117354259614053,,6.51896810532,-2.38998055458,-100.283065796,0.0012080000015,1.0,0.0,0.0,0.0,1.0,0.0,0.0,0.0,1.0,-0.304878056049,3.96341490746,-2.19512200356,1.0,0.0,0.0,0.0,1.0,0.0,0.0,0.0,1.0,-1.33596452637,-0.469263525391,10.1992990723,1.0,0.0,0.0,0.0,1.0,0.0,0.0,0.0,1.0
1464117354284684295,483,1464117354281210295,,6.67664527893,-2.41409468651,-100.212547302,0.00132899999153,1.0,0.0,0.0,0.0,1.0,0.0,0.0,0.0,1.0,-0.426829278469,4.02439022064,7.80487823486,1.0,0.0,0.0,0.0,1.0,0.0,0.0,0.0,1.0,-0.679953271484,-0.517147558594,10.3094323486,1.0,0.0,0.0,0.0,1.0,0.0,0.0,0.0,1.0
1464117354306297985,484,1464117354302408152,,6.81761312485,-2.3877146244,-99.992477417,0.00168400001712,1.0,0.0,0.0,0.0,1.0,0.0,0.0,0.0,1.0,-1.40243899822,5.36585378647,11.5243911743,1.0,0.0,0.0,0.0,1.0,0.0,0.0,0.0,1.0,-0.622492431641,0.0430956298828,10.0125513428,1.0,0.0,0.0,0.0,1.0,0.0,0.0,0.0,1.0
1464117354327154906,485,1464117354323946998,,6.88780975342,-2.32563328743,-99.7808380127,0.00125700002536,1.0,0.0,0.0,0.0,1.0,0.0,0.0,0.0,1.0,-0.487804889679,2.19512200356,7.74390268326,1.0,0.0,0.0,0.0,1.0,0.0,0.0,0.0,1.0,-0.387860668945,0.0430956298828,10.1274730225,1.0,0.0,0.0,0.0,1.0,0.0,0.0,0.0,1.0
1464117354347049694,486,1464117354344389753,,6.89487075806,-2.30289149284,-99.6720428467,0.00136500003282,1.0,0.0,0.0,0.0,1.0,0.0,0.0,0.0,1.0,-0.487804889679,-1.2195122242,4.39024400711,1.0,0.0,0.0,0.0,1.0,0.0,0.0,0.0,1.0,-1.23061965332,-0.253785375977,10.1514150391,1.0,0.0,0.0,0.0,1.0,0.0,0.0,0.0,1.0
1464117354369034424,487,1464117354366546358,,6.71594810486,-2.29405665398,-99.6460494995,0.0019490000559,1.0,0.0,0.0,0.0,1.0,0.0,0.0,0.0,1.0,0.548780500889,-10.548781395,-0.853658556938,1.0,0.0,0.0,0.0,1.0,0.0,0.0,0.0,1.0,-0.435744702148,-0.383072265625,10.1083194092,1.0,0.0,0.0,0.0,1.0,0.0,0.0,0.0,1.0
1464117354389583533,488,1464117354387069842,,6.43815326691,-2.26612114906,-99.6147766113,0.00112000002991,1.0,0.0,0.0,0.0,1.0,0.0,0.0,0.0,1.0,0.731707334518,-5.24390268326,2.62195134163,1.0,0.0,0.0,0.0,1.0,0.0,0.0,0.0,1.0,0.196324536133,-0.15801730957,10.285490332,1.0,0.0,0.0,0.0,1.0,0.0,0.0,0.0,1.0
1464117354410009882,489,1464117354407598431,,6.32931470871,-2.19879150391,-99.4765090942,0.001111999969,1.0,0.0,0.0,0.0,1.0,0.0,0.0,0.0,1.0,4.20731735229,9.26829242706,13.2926826477,1.0,0.0,0.0,0.0,1.0,0.0,0.0,0.0,1.0,-0.292092584273,0.852335791016,10.9079827637,1.0,0.0,0.0,0.0,1.0,0.0,0.0,0.0,1.0
1464117354432350393,490,1464117354429503682,,6.34544181824,-2.19149756432,-99.3182525635,0.00167300004978,1.0,0.0,0.0,0.0,1.0,0.0,0.0,0.0,1.0,0.914634168148,4.57317066193,4.08536577225,1.0,0.0,0.0,0.0,1.0,0.0,0.0,0.0,1.0,-0.258573779297,-0.344765039063,11.1617681396,1.0,0.0,0.0,0.0,1.0,0.0,0.0,0.0,1.0
1464117354453962051,491,1464117354451374662,,6.27431440353,-2.21335864067,-99.4016876221,0.00121899996884,1.0,0.0,0.0,0.0,1.0,0.0,0.0,0.0,1.0,0.731707334518,4.08536577225,-5.36585378647,1.0,0.0,0.0,0.0,1.0,0.0,0.0,0.0,1.0,0.167594116211,-0.555454785156,9.98382092285,1.0,0.0,0.0,0.0,1.0,0.0,0.0,0.0,1.0
1464117354474713243,492,1464117354472324656,,6.36811351776,-2.24605441093,-99.4964752197,0.00113099999726,1.0,0.0,0.0,0.0,1.0,0.0,0.0,0.0,1.0,2.13414645195,6.70731735229,-4.2682929039,1.0,0.0,0.0,0.0,1.0,0.0,0.0,0.0,1.0,-1.11090957031,0.186747729492,10.2040874756,1.0,0.0,0.0,0.0,1.0,0.0,0.0,0.0,1.0
1464117354495569122,493,1464117354493144962,,6.49977397919,-2.16448950768,-99.5608215332,0.000966000021435,1.0,0.0,0.0,0.0,1.0,0.0,0.0,0.0,1.0,3.41463422775,3.29268312454,1.58536589146,1.0,0.0,0.0,0.0,1.0,0.0,0.0,0.0,1.0,-1.16837033709,0.363918652344,8.92079538574,1.0,0.0,0.0,0.0,1.0,0.0,0.0,0.0,1.0
1464117354516684375,494,1464117354514338601,,6.52000904083,-2.15778064728,-99.4383468628,0.00105600000825,1.0,0.0,0.0,0.0,1.0,0.0,0.0,0.0,1.0,-3.84146332741,-0.487804889679,4.87804889679,1.0,0.0,0.0,0.0,1.0,0.0,0.0,0.0,1.0,-1.09175595703,-0.397437475586,10.2759135254,1.0,0.0,0.0,0.0,1.0,0.0,0.0,0.0,1.0
1464117354537845670,495,1464117354535196355,,6.51757049561,-2.15270328522,-99.364440918,0.00108099996578,1.0,0.0,0.0,0.0,1.0,0.0,0.0,0.0,1.0,-0.853658556938,-2.25609779358,4.14634132385,1.0,0.0,0.0,0.0,1.0,0.0,0.0,0.0,1.0,-0.632069238281,-0.694318481445,10.6781394043,1.0,0.0,0.0,0.0,1.0,0.0,0.0,0.0,1.0
1464117354562614872,496,1464117354556015828,,6.39711952209,-2.12972521782,-99.2906570435,0.00101699994411,1.0,0.0,0.0,0.0,1.0,0.0,0.0,0.0,1.0,1.76829278469,-3.71951246262,-1.09756100178,1.0,0.0,0.0,0.0,1.0,0.0,0.0,0.0,1.0,-0.483628735352,-0.0239420166016,10.4387192383,1.0,0.0,0.0,0.0,1.0,0.0,0.0,0.0,1.0
1464117354580694561,497,1464117354576967123,,6.21663951874,-2.17455196381,-99.3323440552,0.00107200001366,1.0,0.0,0.0,0.0,1.0,0.0,0.0,0.0,1.0,-3.17073178291,-4.57317066193,0.914634168148,1.0,0.0,0.0,0.0,1.0,0.0,0.0,0.0,1.0,0.0191536132812,-0.876277807617,10.2328178955,1.0,0.0,0.0,0.0,1.0,0.0,0.0,0.0,1.0
1464117354604134443,498,1464117354598763312,,6.17902088165,-2.21392631531,-99.2312011719,0.0010450000409,1.0,0.0,0.0,0.0,1.0,0.0,0.0,0.0,1.0,1.40243899822,6.34146356583,7.50000047684,1.0,0.0,0.0,0.0,1.0,0.0,0.0,0.0,1.0,-0.91458503418,-0.488417138672,10.539275708,1.0,0.0,0.0,0.0,1.0,0.0,0.0,0.0,1.0
1464117354624270741,499,1464117354619063360,,6.2838845253,-2.15899944305,-98.9752197266,0.00101699994411,1.0,0.0,0.0,0.0,1.0,0.0,0.0,0.0,1.0,-1.2195122242,2.25609779358,12.8658542633,1.0,0.0,0.0,0.0,1.0,0.0,0.0,0.0,1.0,-0.0814028564453,-0.0861912597656,9.98860932617,1.0,0.0,0.0,0.0,1.0,0.0,0.0,0.0,1.0
1464117354644081154,500,1464117354640645747,,6.20587921143,-2.15599393845,-98.7962722778,0.00130200001877,1.0,0.0,0.0,0.0,1.0,0.0,0.0,0.0,1.0,-0.243902444839,-2.19512200356,4.93902444839,1.0,0.0,0.0,0.0,1.0,0.0,0.0,0.0,1.0,0.15322890625,-0.660799658203,10.1466266357,1.0,0.0,0.0,0.0,1.0,0.0,0.0,0.0,1.0
1464117354663900161,501,1464117354661251523,,6.04082012177,-2.14464473724,-98.7393035889,0.00127999996766,1.0,0.0,0.0,0.0,1.0,0.0,0.0,0.0,1.0,0.18292683363,-5.06097555161,0.0609756112099,1.0,0.0,0.0,0.0,1.0,0.0,0.0,0.0,1.0,-0.067037651051,-0.0383072265625,10.0795889893,1.0,0.0,0.0,0.0,1.0,0.0,0.0,0.0,1.0
1464117354686480879,502,1464117354682180371,,5.88116168976,-2.13692784309,-98.7724151611,0.0014009999577,1.0,0.0,0.0,0.0,1.0,0.0,0.0,0.0,1.0,-0.975609779358,-4.81707286835,-1.52439022064,1.0,0.0,0.0,0.0,1.0,0.0,0.0,0.0,1.0,0.15801730957,-0.550666381836,10.0412817627,1.0,0.0,0.0,0.0,1.0,0.0,0.0,0.0,1.0
1464117354706727281,503,1464117354702775000,,5.74144220352,-2.16882348061,-98.7337646484,0.00150000001304,1.0,0.0,0.0,0.0,1.0,0.0,0.0,0.0,1.0,-1.8292683363,0.0609756112099,4.75609779358,1.0,0.0,0.0,0.0,1.0,0.0,0.0,0.0,1.0,0.373495458984,-0.526724328702,10.2376062988,1.0,0.0,0.0,0.0,1.0,0.0,0.0,0.0,1.0
1464117354726088841,504,1464117354723536765,,5.65370368958,-2.19128465652,-98.6468048096,0.00134499999695,1.0,0.0,0.0,0.0,1.0,0.0,0.0,0.0,1.0,-1.76829278469,8.35365867615,2.92682933807,1.0,0.0,0.0,0.0,1.0,0.0,0.0,0.0,1.0,0.45489831543,-0.134075302102,10.0077629395,1.0,0.0,0.0,0.0,1.0,0.0,0.0,0.0,1.0
1464117354746481128,505,1464117354744002593,,5.69647026062,-2.1695356369,-98.6458282471,0.00157099997159,1.0,0.0,0.0,0.0,1.0,0.0,0.0,0.0,1.0,-0.609756112099,11.8902444839,-0.487804889679,1.0,0.0,0.0,0.0,1.0,0.0,0.0,0.0,1.0,1.44609780273,0.0622492431641,10.4674496582,1.0,0.0,0.0,0.0,1.0,0.0,0.0,0.0,1.0
1464117354767692475,506,1464117354765028472,,5.98647212982,-2.19065570831,-98.5983963013,0.00129199994262,1.0,0.0,0.0,0.0,1.0,0.0,0.0,0.0,1.0,-0.853658556938,20.4878044128,2.68292689323,1.0,0.0,0.0,0.0,1.0,0.0,0.0,0.0,1.0,-0.349553442383,0.0143652099609,10.7451770508,1.0,0.0,0.0,0.0,1.0,0.0,0.0,0.0,1.0
1464117354788515490,507,1464117354785927059,,6.31899356842,-2.21614646912,-98.5864257812,0.00145800004248,1.0,0.0,0.0,0.0,1.0,0.0,0.0,0.0,1.0,-0.914634168148,12.5609760284,-0.18292683363,1.0,0.0,0.0,0.0,1.0,0.0,0.0,0.0,1.0,-0.440533105469,-0.172382519531,10.285490332,1.0,0.0,0.0,0.0,1.0,0.0,0.0,0.0,1.0
1464117354809359233,508,1464117354806475439,,6.5284075737,-2.20627713203,-98.6493988037,0.00106599996798,1.0,0.0,0.0,0.0,1.0,0.0,0.0,0.0,1.0,-0.12195122242,10.1219511032,-3.59756112099,1.0,0.0,0.0,0.0,1.0,0.0,0.0,0.0,1.0,-0.77093293457,-0.172382519531,10.2615483154,1.0,0.0,0.0,0.0,1.0,0.0,0.0,0.0,1.0
1464117354832907918,509,1464117354827462464,,6.73052310944,-2.20451617241,-98.7193145752,0.00114399997983,1.0,0.0,0.0,0.0,1.0,0.0,0.0,0.0,1.0,-1.15853655338,5.48780488968,-3.90243911743,1.0,0.0,0.0,0.0,1.0,0.0,0.0,0.0,1.0,-1.09654436035,-0.15322890625,10.1274730225,1.0,0.0,0.0,0.0,1.0,0.0,0.0,0.0,1.0
1464117354852831508,510,1464117354850421514,,6.72390937805,-2.22647213936,-98.8789520264,0.00477600004524,1.0,0.0,0.0,0.0,1.0,0.0,0.0,0.0,1.0,-1.2804877758,1.64634156227,-8.23170757294,1.0,0.0,0.0,0.0,1.0,0.0,0.0,0.0,1.0,0.0909796630859,-0.172382519531,10.2184526855,1.0,0.0,0.0,0.0,1.0,0.0,0.0,0.0,1.0
1464117354876445660,511,1464117354871475570,,6.73490762711,-2.24010229111,-99.0137481689,0.00122400000691,1.0,0.0,0.0,0.0,1.0,0.0,0.0,0.0,1.0,-1.2195122242,6.52439069748,-5.24390268326,1.0,0.0,0.0,0.0,1.0,0.0,0.0,0.0,1.0,0.0287304199219,-0.421379492187,10.553640918,1.0,0.0,0.0,0.0,1.0,0.0,0.0,0.0,1.0
1464117354896708781,512,1464117354892749000,,6.85862827301,-2.24214982986,-99.0845108032,0.00104200001806,1.0,0.0,0.0,0.0,1.0,0.0,0.0,0.0,1.0,-1.46341466904,12.3780488968,-2.31707310677,1.0,0.0,0.0,0.0,1.0,0.0,0.0,0.0,1.0,0.0957680664062,-0.263362164351,10.2759135254,1.0,0.0,0.0,0.0,1.0,0.0,0.0,0.0,1.0
1464117354916424767,513,1464117354913366130,,7.05003023148,-2.24696660042,-99.1370239258,0.00100599997677,1.0,0.0,0.0,0.0,1.0,0.0,0.0,0.0,1.0,-2.80487799644,14.9390249252,-1.34146344662,1.0,0.0,0.0,0.0,1.0,0.0,0.0,0.0,1.0,-0.134075302102,0.296881024126,10.1274730225,1.0,0.0,0.0,0.0,1.0,0.0,0.0,0.0,1.0
1464117354936663513,514,1464117354934330238,,7.34697675705,-2.27692437172,-99.1884460449,0.00115899997763,1.0,0.0,0.0,0.0,1.0,0.0,0.0,0.0,1.0,-2.07317066193,13.2317075729,-1.70731711388,1.0,0.0,0.0,0.0,1.0,0.0,0.0,0.0,1.0,-0.91458503418,-0.833182177734,10.0795889893,1.0,0.0,0.0,0.0,1.0,0.0,0.0,0.0,1.0
1464117354962320837,515,1464117354955389502,,7.50050926208,-2.29077935219,-99.2619400024,0.0009710000013,1.0,0.0,0.0,0.0,1.0,0.0,0.0,0.0,1.0,-0.914634168148,8.71951198578,-5.85365867615,1.0,0.0,0.0,0.0,1.0,0.0,0.0,0.0,1.0,0.239420166016,-0.191536132812,10.3285859619,1.0,0.0,0.0,0.0,1.0,0.0,0.0,0.0,1.0
1464117354980047975,516,1464117354976146788,,7.61370420456,-2.30514550209,-99.3976745605,0.000973000016529,1.0,0.0,0.0,0.0,1.0,0.0,0.0,0.0,1.0,-1.09756100178,10.6707315445,-6.7682929039,1.0,0.0,0.0,0.0,1.0,0.0,0.0,0.0,1.0,0.493205541992,-0.143652099609,10.3381627686,1.0,0.0,0.0,0.0,1.0,0.0,0.0,0.0,1.0
1464117355000127658,517,1464117354997169906,,7.73717308044,-2.33434224129,-99.6087265015,0.000973000016529,1.0,0.0,0.0,0.0,1.0,0.0,0.0,0.0,1.0,0.12195122242,13.048781395,-10.1219511032,1.0,0.0,0.0,0.0,1.0,0.0,0.0,0.0,1.0,-0.560243188477,-0.531512805087,10.405200415,1.0,0.0,0.0,0.0,1.0,0.0,0.0,0.0,1.0
1464117355025262379,518,1464117355022976031,,7.95542955399,-2.39231395721,-99.8351593018,0.00101400003769,1.0,0.0,0.0,0.0,1.0,0.0,0.0,0.0,1.0,0.609756112099,12.8658542633,-10.1219511032,1.0,0.0,0.0,0.0,1.0,0.0,0.0,0.0,1.0,-0.809240161133,-0.507570751953,10.2807019287,1.0,0.0,0.0,0.0,1.0,0.0,0.0,0.0,1.0
1464117355045320761,519,1464117355043313735,,8.27799797058,-2.44301652908,-100.047874451,0.00509400013834,1.0,0.0,0.0,0.0,1.0,0.0,0.0,0.0,1.0,-0.548780500889,16.158536911,-6.46341466904,1.0,0.0,0.0,0.0,1.0,0.0,0.0,0.0,1.0,-0.92416184082,-0.397437475586,10.2136642822,1.0,0.0,0.0,0.0,1.0,0.0,0.0,0.0,1.0
1464117355069469287,520,1464117355064537634,,8.60771369934,-2.47568821907,-100.188835144,0.00186700001359,1.0,0.0,0.0,0.0,1.0,0.0,0.0,0.0,1.0,-1.46341466904,15.1219511032,-6.15853643417,1.0,0.0,0.0,0.0,1.0,0.0,0.0,0.0,1.0,-1.17315874041,-0.383072265625,10.165780249,1.0,0.0,0.0,0.0,1.0,0.0,0.0,0.0,1.0
1464117355088721941,521,1464117355086432937,,8.91843700409,-2.51083707809,-100.343696594,0.00208600005135,1.0,0.0,0.0,0.0,1.0,0.0,0.0,0.0,1.0,0.243902444839,10.7926826477,-5.24390268326,1.0,0.0,0.0,0.0,1.0,0.0,0.0,0.0,1.0,-1.35990654297,-0.162805712891,10.0939541992,1.0,0.0,0.0,0.0,1.0,0.0,0.0,0.0,1.0
1464117355110902348,522,1464117355107309598,,9.12104606628,-2.52391338348,-100.455413818,0.00101999996696,1.0,0.0,0.0,0.0,1.0,0.0,0.0,0.0,1.0,-1.8902438879,6.7682929039,-4.45121955872,1.0,0.0,0.0,0.0,1.0,0.0,0.0,0.0,1.0,-1.44609780273,-0.397437475586,10.1466266357,1.0,0.0,0.0,0.0,1.0,0.0,0.0,0.0,1.0
1464117355130796198,523,1464117355128454486,,9.23350048065,-2.53689694405,-100.53691864,0.00112000002991,1.0,0.0,0.0,0.0,1.0,0.0,0.0,0.0,1.0,-2.68292689323,4.87804889679,-3.29268312454,1.0,0.0,0.0,0.0,1.0,0.0,0.0,0.0,1.0,-0.727837304687,-0.660799658203,10.4722380615,1.0,0.0,0.0,0.0,1.0,0.0,0.0,0.0,1.0
1464117355151080048,524,1464117355148695732,,9.28031730652,-2.5634496212,-100.596939087,0.0011569999624,1.0,0.0,0.0,0.0,1.0,0.0,0.0,0.0,1.0,-0.304878056049,6.89024400711,-1.8902438879,1.0,0.0,0.0,0.0,1.0,0.0,0.0,0.0,1.0,-0.718260498047,-0.60812722168,10.5057568848,1.0,0.0,0.0,0.0,1.0,0.0,0.0,0.0,1.0
1464117355171833375,525,1464117355169182862,,9.42662811279,-2.59090399742,-100.614692688,0.00113800005056,1.0,0.0,0.0,0.0,1.0,0.0,0.0,0.0,1.0,-0.670731723309,10.2439022064,1.2804877758,1.0,0.0,0.0,0.0,1.0,0.0,0.0,0.0,1.0,-1.26892687988,-0.402225878906,10.0317049561,1.0,0.0,0.0,0.0,1.0,0.0,0.0,0.0,1.0
1464117355192024985,526,1464117355189725252,,9.63043689728,-2.61864209175,-100.554428101,0.0011040000245,1.0,0.0,0.0,0.0,1.0,0.0,0.0,0.0,1.0,-0.365853667259,9.45121955872,3.65853667259,1.0,0.0,0.0,0.0,1.0,0.0,0.0,0.0,1.0,-0.0335188255255,-1.02950671387,10.1418382324,1.0,0.0,0.0,0.0,1.0,0.0,0.0,0.0,1.0
1464117355214592839,527,1464117355210898995,,9.73537635803,-2.61469960213,-100.52696991,0.0010300000431,1.0,0.0,0.0,0.0,1.0,0.0,0.0,0.0,1.0,1.03658533096,4.08536577225,0.487804889679,1.0,0.0,0.0,0.0,1.0,0.0,0.0,0.0,1.0,-1.17794714373,-0.272938989258,10.1562034424,1.0,0.0,0.0,0.0,1.0,0.0,0.0,0.0,1.0
1464117355236058039,528,1464117355232143207,,9.8234910965,-2.61799240112,-100.527320862,0.00107500003651,1.0,0.0,0.0,0.0,1.0,0.0,0.0,0.0,1.0,-0.18292683363,1.8902438879,1.2804877758,1.0,0.0,0.0,0.0,1.0,0.0,0.0,0.0,1.0,-0.756567724609,-0.134075302102,10.5775829346,1.0,0.0,0.0,0.0,1.0,0.0,0.0,0.0,1.0
1464117355255880796,529,1464117355253325283,,9.83361530304,-2.57671880722,-100.468254089,0.0010450000409,1.0,0.0,0.0,0.0,1.0,0.0,0.0,0.0,1.0,-0.853658556938,1.8292683363,1.09756100178,1.0,0.0,0.0,0.0,1.0,0.0,0.0,0.0,1.0,-0.512359155273,-0.143652099609,10.0364933594,1.0,0.0,0.0,0.0,1.0,0.0,0.0,0.0,1.0
1464117355276505739,530,1464117355274137985,,9.85149478912,-2.63996720314,-100.478752136,0.000995000009425,1.0,0.0,0.0,0.0,1.0,0.0,0.0,0.0,1.0,-2.80487799644,3.65853667259,2.37804889679,1.0,0.0,0.0,0.0,1.0,0.0,0.0,0.0,1.0,-1.65199914551,-1.58496149902,10.4147772217,1.0,0.0,0.0,0.0,1.0,0.0,0.0,0.0,1.0
1464117355299389945,531,1464117355294809385,,9.90713787079,-2.64787554741,-100.27961731,0.00101600005291,1.0,0.0,0.0,0.0,1.0,0.0,0.0,0.0,1.0,-3.10975623131,-0.304878056049,8.96341514587,1.0,0.0,0.0,0.0,1.0,0.0,0.0,0.0,1.0,-1.10133276367,-0.143652099609,10.2232410889,1.0,0.0,0.0,0.0,1.0,0.0,0.0,0.0,1.0
1464117355320091033,532,1464117355315664015,,9.56656169891,-2.56837558746,-100.199584961,0.000959999975748,1.0,0.0,0.0,0.0,1.0,0.0,0.0,0.0,1.0,-0.12195122242,-7.68292665482,-3.10975623131,1.0,0.0,0.0,0.0,1.0,0.0,0.0,0.0,1.0,0.526724328702,-0.114921679688,9.85932243652,1.0,0.0,0.0,0.0,1.0,0.0,0.0,0.0,1.0
1464117355339019314,533,1464117355336199634,,9.29691791534,-2.56433987617,-100.304710388,0.00100100005511,1.0,0.0,0.0,0.0,1.0,0.0,0.0,0.0,1.0,-0.0609756112099,1.64634156227,-6.46341466904,1.0,0.0,0.0,0.0,1.0,0.0,0.0,0.0,1.0,-0.148440512063,-0.339976635742,10.419565625,1.0,0.0,0.0,0.0,1.0,0.0,0.0,0.0,1.0
1464117355364887835,534,1464117355362928674,,9.37806606293,-2.54479455948,-100.412063599,0.000975999981165,1.0,0.0,0.0,0.0,1.0,0.0,0.0,0.0,1.0,-0.609756112099,7.98780536652,-5.67073154449,1.0,0.0,0.0,0.0,1.0,0.0,0.0,0.0,1.0,-0.679953271484,-0.426167895508,11.0516348633,1.0,0.0,0.0,0.0,1.0,0.0,0.0,0.0,1.0
1464117355385078768,535,1464117355378541130,,9.50868797302,-2.53088784218,-100.526878357,0.00099400000181,1.0,0.0,0.0,0.0,1.0,0.0,0.0,0.0,1.0,-0.975609779358,10.1829271317,-4.20731735229,1.0,0.0,0.0,0.0,1.0,0.0,0.0,0.0,1.0,-1.41257897949,-0.263362164351,10.1945106689,1.0,0.0,0.0,0.0,1.0,0.0,0.0,0.0,1.0
1464117355407577039,536,1464117355402822104,,9.69519424438,-2.5600335598,-100.591720581,0.00106599996798,1.0,0.0,0.0,0.0,1.0,0.0,0.0,0.0,1.0,0.243902444839,7.74390268326,-3.84146332741,1.0,0.0,0.0,0.0,1.0,0.0,0.0,0.0,1.0,-1.12527478027,-0.502782348633,10.1609918457,1.0,0.0,0.0,0.0,1.0,0.0,0.0,0.0,1.0
1464117355425061365,537,1464117355422963037,,9.73692321777,-2.58536410332,-100.671730042,0.00148600002285,1.0,0.0,0.0,0.0,1.0,0.0,0.0,0.0,1.0,1.15853655338,-1.46341466904,-6.70731735229,1.0,0.0,0.0,0.0,1.0,0.0,0.0,0.0,1.0,-1.20667770978,-0.383072265625,9.8545340332,1.0,0.0,0.0,0.0,1.0,0.0,0.0,0.0,1.0
1464117355444635997,538,1464117355440475696,,9.69689464569,-2.58956503868,-100.840293884,0.0010529999854,1.0,0.0,0.0,0.0,1.0,0.0,0.0,0.0,1.0,2.98780488968,-7.62195110321,-9.20731735229,1.0,0.0,0.0,0.0,1.0,0.0,0.0,0.0,1.0,-1.69030637207,-0.46447512207,9.94072529297,1.0,0.0,0.0,0.0,1.0,0.0,0.0,0.0,1.0
1464117355466074844,539,1464117355463651725,,9.47722816467,-2.59344172478,-101.067726135,0.00448400015011,1.0,0.0,0.0,0.0,1.0,0.0,0.0,0.0,1.0,5.30487823486,-10.7317075729,-9.32926845551,1.0,0.0,0.0,0.0,1.0,0.0,0.0,0.0,1.0,-1.03908344744,-1.20188930646,9.54807680523,1.0,0.0,0.0,0.0,1.0,0.0,0.0,0.0,1.0
1464117355486764838,540,1464117355484780468,,9.30451011658,-2.57334041595,-101.25831604,0.00292099989019,1.0,0.0,0.0,0.0,1.0,0.0,0.0,0.0,1.0,2.62195134163,-6.70731735229,-7.86585378647,1.0,0.0,0.0,0.0,1.0,0.0,0.0,0.0,1.0,-0.536301208408,-0.0909796630859,10.6781394043,1.0,0.0,0.0,0.0,1.0,0.0,0.0,0.0,1.0
1464117355507819883,541,1464117355505753691,,9.26365947723,-2.55843782425,-101.407279968,0.00305499997921,1.0,0.0,0.0,0.0,1.0,0.0,0.0,0.0,1.0,-1.46341466904,-0.853658556938,-4.02439022064,1.0,0.0,0.0,0.0,1.0,0.0,0.0,0.0,1.0,-1.32159931641,0.105344873047,10.1705686523,1.0,0.0,0.0,0.0,1.0,0.0,0.0,0.0,1.0
1464117355531705650,542,1464117355526697434,,9.24378204346,-2.58736920357,-101.470245361,0.00523700006306,1.0,0.0,0.0,0.0,1.0,0.0,0.0,0.0,1.0,-0.792682945728,-3.90243911743,-2.74390244484,1.0,0.0,0.0,0.0,1.0,0.0,0.0,0.0,1.0,-1.71903679199,-0.359130249023,9.7587659668,1.0,0.0,0.0,0.0,1.0,0.0,0.0,0.0,1.0
1464117355551161428,543,1464117355547652949,,9.1518535614,-2.63300824165,-101.550338745,0.00111599999946,1.0,0.0,0.0,0.0,1.0,0.0,0.0,0.0,1.0,-0.792682945728,-5.97560977936,-4.08536577225,1.0,0.0,0.0,0.0,1.0,0.0,0.0,0.0,1.0,-0.9193734375,-0.881066210937,10.5296989014,1.0,0.0,0.0,0.0,1.0,0.0,0.0,0.0,1.0
1464117355571681736,544,1464117355569079399,,8.97132015228,-2.62319207191,-101.525314331,0.00114800001029,1.0,0.0,0.0,0.0,1.0,0.0,0.0,0.0,1.0,-0.304878056049,-6.40243911743,4.20731735229,1.0,0.0,0.0,0.0,1.0,0.0,0.0,0.0,1.0,-0.196324536133,-0.31124621582,10.524910498,1.0,0.0,0.0,0.0,1.0,0.0,0.0,0.0,1.0
1464117355592710687,545,1464117355589796216,,8.76171398163,-2.62346410751,-101.461776733,0.00155899999663,1.0,0.0,0.0,0.0,1.0,0.0,0.0,0.0,1.0,-0.548780500889,-3.29268312454,3.7804877758,1.0,0.0,0.0,0.0,1.0,0.0,0.0,0.0,1.0,-0.579396801758,-0.632069238281,10.3381627686,1.0,0.0,0.0,0.0,1.0,0.0,0.0,0.0,1.0
1464117355613477660,546,1464117355611167615,,8.67116641998,-2.6369562149,-101.338981628,0.00109100004192,1.0,0.0,0.0,0.0,1.0,0.0,0.0,0.0,1.0,-0.304878056049,0.975609779358,7.50000047684,1.0,0.0,0.0,0.0,1.0,0.0,0.0,0.0,1.0,-0.857124194336,-0.550666381836,10.1945106689,1.0,0.0,0.0,0.0,1.0,0.0,0.0,0.0,1.0
1464117355634566612,547,1464117355631902973,,8.59568881989,-2.62884664536,-101.220832825,0.00139400002081,1.0,0.0,0.0,0.0,1.0,0.0,0.0,0.0,1.0,-0.18292683363,-8.10975551605,2.43902444839,1.0,0.0,0.0,0.0,1.0,0.0,0.0,0.0,1.0,-0.804451757813,-0.871489404297,9.95030209961,1.0,0.0,0.0,0.0,1.0,0.0,0.0,0.0,1.0
1464117355655554261,548,1464117355653207237,,8.28574752808,-2.65063595772,-101.198501587,0.00110700004734,1.0,0.0,0.0,0.0,1.0,0.0,0.0,0.0,1.0,0.548780500889,-13.5975618362,-0.731707334518,1.0,0.0,0.0,0.0,1.0,0.0,0.0,0.0,1.0,-0.76614453125,-0.612915625,10.0891657959,1.0,0.0,0.0,0.0,1.0,0.0,0.0,0.0,1.0
1464117355676625192,549,1464117355674269886,,7.93225860596,-2.60522866249,-101.221801758,0.00126599997748,1.0,0.0,0.0,0.0,1.0,0.0,0.0,0.0,1.0,2.31707310677,-13.5365858078,-5.97560977936,1.0,0.0,0.0,0.0,1.0,0.0,0.0,0.0,1.0,-0.220266552734,0.00957680664062,10.5153336914,1.0,0.0,0.0,0.0,1.0,0.0,0.0,0.0,1.0
1464117355700204970,550,1464117355695395348,,7.57358074188,-2.5369451046,-101.296310425,0.000967999978457,1.0,0.0,0.0,0.0,1.0,0.0,0.0,0.0,1.0,2.31707310677,-5.97560977936,-5.18292713165,1.0,0.0,0.0,0.0,1.0,0.0,0.0,0.0,1.0,1.04387185076,0.416591088867,10.1083194092,1.0,0.0,0.0,0.0,1.0,0.0,0.0,0.0,1.0
1464117355721221213,551,1464117355716693153,,7.31225442886,-2.51411128044,-101.438491821,0.001007999992,1.0,0.0,0.0,0.0,1.0,0.0,0.0,0.0,1.0,1.8292683363,-7.37804937363,-1.70731711388,1.0,0.0,0.0,0.0,1.0,0.0,0.0,0.0,1.0,-0.569819995117,-0.641646044922,9.85932243652,1.0,0.0,0.0,0.0,1.0,0.0,0.0,0.0,1.0
1464117355742445372,552,1464117355737738354,,7.10297727585,-2.48366928101,-101.501281738,0.00105199997779,1.0,0.0,0.0,0.0,1.0,0.0,0.0,0.0,1.0,1.70731711388,-7.86585378647,-7.56097555161,1.0,0.0,0.0,0.0,1.0,0.0,0.0,0.0,1.0,0.957680664062,-0.268150604204,11.8800286377,1.0,0.0,0.0,0.0,1.0,0.0,0.0,0.0,1.0
1464117355775036948,553,1464117355764142499,,6.9824514389,-2.37902665138,-101.629699707,0.00658100005239,1.0,0.0,0.0,0.0,1.0,0.0,0.0,0.0,1.0,3.7804877758,-2.80487799644,-6.89024400711,1.0,0.0,0.0,0.0,1.0,0.0,0.0,0.0,1.0,-0.521935925381,0.699106884766,9.86411083984,1.0,0.0,0.0,0.0,1.0,0.0,0.0,0.0,1.0
1464117355788210453,554,1464117355785493325,,6.91309404373,-2.27880859375,-101.796783447,0.00116500002332,1.0,0.0,0.0,0.0,1.0,0.0,0.0,0.0,1.0,3.47560977936,-0.975609779358,-8.35365867615,1.0,0.0,0.0,0.0,1.0,0.0,0.0,0.0,1.0,0.201112939453,0.292092584273,10.2232410889,1.0,0.0,0.0,0.0,1.0,0.0,0.0,0.0,1.0
1464117355808667479,555,1464117355805918684,,6.85071754456,-2.18067145348,-101.978607178,0.00131800002418,1.0,0.0,0.0,0.0,1.0,0.0,0.0,0.0,1.0,2.01219511032,-9.69512176514,-11.4634151459,1.0,0.0,0.0,0.0,1.0,0.0,0.0,0.0,1.0,-0.876277807617,0.0335188255255,9.7827079834,1.0,0.0,0.0,0.0,1.0,0.0,0.0,0.0,1.0
1464117355829009818,556,1464117355826397794,,6.65629529953,-2.09918069839,-102.235473633,0.00227400008589,1.0,0.0,0.0,0.0,1.0,0.0,0.0,0.0,1.0,4.81707286835,-3.90243911743,-15.0000009537,1.0,0.0,0.0,0.0,1.0,0.0,0.0,0.0,1.0,-0.277727392578,1.00077629395,9.88805285645,1.0,0.0,0.0,0.0,1.0,0.0,0.0,0.0,1.0
1464117355850659444,557,1464117355847462162,,6.58180189133,-1.95462608337,-102.38684082,0.00110500003211,1.0,0.0,0.0,0.0,1.0,0.0,0.0,0.0,1.0,10.1829271317,0.304878056049,-3.96341490746,1.0,0.0,0.0,0.0,1.0,0.0,0.0,0.0,1.0,1.04866025408,0.100556469727,10.8600987305,1.0,0.0,0.0,0.0,1.0,0.0,0.0,0.0,1.0
1464117355871924437,558,1464117355868608665,,6.53992509842,-1.82879006863,-102.39944458,0.0011190000223,1.0,0.0,0.0,0.0,1.0,0.0,0.0,0.0,1.0,7.25609779358,5.85365867615,1.95121955872,1.0,0.0,0.0,0.0,1.0,0.0,0.0,0.0,1.0,-8.24084211426,-2.39420180629,5.1858407959,1.0,0.0,0.0,0.0,1.0,0.0,0.0,0.0,1.0
1464117355892217609,559,1464117355889325690,,6.41240644455,-1.58687198162,-102.35521698,0.00106599996798,1.0,0.0,0.0,0.0,1.0,0.0,0.0,0.0,1.0,1.03658533096,-5.06097555161,-0.12195122242,1.0,0.0,0.0,0.0,1.0,0.0,0.0,0.0,1.0,-1.45567460937,-0.521935925381,10.9462899902,1.0,0.0,0.0,0.0,1.0,0.0,0.0,0.0,1.0
1464117355913297134,560,1464117355910285684,,6.31228399277,-1.52011466026,-102.222045898,0.0010379999876,1.0,0.0,0.0,0.0,1.0,0.0,0.0,0.0,1.0,1.2804877758,-5.0,6.95121955872,1.0,0.0,0.0,0.0,1.0,0.0,0.0,0.0,1.0,-0.732625708008,-0.488417138672,10.1466266357,1.0,0.0,0.0,0.0,1.0,0.0,0.0,0.0,1.0
1464117355934221763,561,1464117355931466250,,6.11074256897,-1.48215985298,-102.031044006,0.00115799997002,1.0,0.0,0.0,0.0,1.0,0.0,0.0,0.0,1.0,3.65853667259,-9.69512176514,8.17073154449,1.0,0.0,0.0,0.0,1.0,0.0,0.0,0.0,1.0,-0.0143652099609,-0.354341845703,10.3908352051,1.0,0.0,0.0,0.0,1.0,0.0,0.0,0.0,1.0
1464117355955127798,562,1464117355952334472,,5.87976169586,-1.45090091228,-101.832061768,0.00109899998643,1.0,0.0,0.0,0.0,1.0,0.0,0.0,0.0,1.0,1.8902438879,-6.95121955872,11.0975618362,1.0,0.0,0.0,0.0,1.0,0.0,0.0,0.0,1.0,-0.694318481445,-0.866701000977,10.7356002441,1.0,0.0,0.0,0.0,1.0,0.0,0.0,0.0,1.0
1464117355975583730,563,1464117355973214727,,5.81196260452,-1.38950574398,-101.464332581,0.00112000002991,1.0,0.0,0.0,0.0,1.0,0.0,0.0,0.0,1.0,-1.09756100178,-7.98780536652,16.4634151459,1.0,0.0,0.0,0.0,1.0,0.0,0.0,0.0,1.0,-0.679953271484,-0.354341845703,10.927136377,1.0,0.0,0.0,0.0,1.0,0.0,0.0,0.0,1.0
1464117355996558203,564,1464117355994263313,,5.59620046616,-1.27486646175,-101.115737915,0.00102199998219,1.0,0.0,0.0,0.0,1.0,0.0,0.0,0.0,1.0,-0.914634168148,-9.20731735229,14.5731706619,1.0,0.0,0.0,0.0,1.0,0.0,0.0,0.0,1.0,-0.478840332031,0.421379492187,10.4243540283,1.0,0.0,0.0,0.0,1.0,0.0,0.0,0.0,1.0
