%time,field.header.seq,field.header.stamp,field.header.frame_id,field.orientation.x,field.orientation.y,field.orientation.z,field.orientation.w,field.orientation_covariance0,field.orientation_covariance1,field.orientation_covariance2,field.orientation_covariance3,field.orientation_covariance4,field.orientation_covariance5,field.orientation_covariance6,field.orientation_covariance7,field.orientation_covariance8,field.angular_velocity.x,field.angular_velocity.y,field.angular_velocity.z,field.angular_velocity_covariance0,field.angular_velocity_covariance1,field.angular_velocity_covariance2,field.angular_velocity_covariance3,field.angular_velocity_covariance4,field.angular_velocity_covariance5,field.angular_velocity_covariance6,field.angular_velocity_covariance7,field.angular_velocity_covariance8,field.linear_acceleration.x,field.linear_acceleration.y,field.linear_acceleration.z,field.linear_acceleration_covariance0,field.linear_acceleration_covariance1,field.linear_acceleration_covariance2,field.linear_acceleration_covariance3,field.linear_acceleration_covariance4,field.linear_acceleration_covariance5,field.linear_acceleration_covariance6,field.linear_acceleration_covariance7,field.linear_acceleration_covariance8
1463510844317549341,468,1463510844304768472,,-7.2799744606,-2.33749461174,-90.3436279297,0.0104280002415,1.0,0.0,0.0,0.0,1.0,0.0,0.0,0.0,1.0,45.4878082275,-9.45121955872,-10.9146347046,1.0,0.0,0.0,0.0,1.0,0.0,0.0,0.0,1.0,-0.905008227539,3.01190568848,-9.30865547017,1.0,0.0,0.0,0.0,1.0,0.0,0.0,0.0,1.0
1463510844317586786,469,1463510844314022567,,-6.9304690361,-2.44834899902,-90.4633560181,0.00976299960166,1.0,0.0,0.0,0.0,1.0,0.0,0.0,0.0,1.0,45.0609779358,-8.47560977936,-12.4390249252,1.0,0.0,0.0,0.0,1.0,0.0,0.0,0.0,1.0,-0.967257470703,2.82036955566,-9.38048151997,1.0,0.0,0.0,0.0,1.0,0.0,0.0,0.0,1.0
1463510844333014897,470,1463510844324187287,,-6.5764799118,-2.54886698723,-90.5945968628,0.0101169999689,1.0,0.0,0.0,0.0,1.0,0.0,0.0,0.0,1.0,44.7560997009,-7.19512224197,-12.9878053665,1.0,0.0,0.0,0.0,1.0,0.0,0.0,0.0,1.0,-0.972045874023,2.88740720215,-9.47146118306,1.0,0.0,0.0,0.0,1.0,0.0,0.0,0.0,1.0
1463510844344492925,471,1463510844334296958,,-6.23641395569,-2.63896989822,-90.7203521729,0.0100889997557,1.0,0.0,0.0,0.0,1.0,0.0,0.0,0.0,1.0,44.1463432312,-6.7682929039,-12.4390249252,1.0,0.0,0.0,0.0,1.0,0.0,0.0,0.0,1.0,-0.895431420898,2.89219560547,-9.28950185688,1.0,0.0,0.0,0.0,1.0,0.0,0.0,0.0,1.0
1463510844346327298,472,1463510844344403972,,-5.89355039597,-2.71419072151,-90.8350753784,0.0101009998471,1.0,0.0,0.0,0.0,1.0,0.0,0.0,0.0,1.0,44.4512176514,-6.46341466904,-11.2804880142,1.0,0.0,0.0,0.0,1.0,0.0,0.0,0.0,1.0,-0.723048901367,2.77248552246,-9.08360109863,1.0,0.0,0.0,0.0,1.0,0.0,0.0,0.0,1.0
1463510844360744634,473,1463510844355626287,,-5.52376365662,-2.80159807205,-90.954460144,0.0111269997433,1.0,0.0,0.0,0.0,1.0,0.0,0.0,0.0,1.0,43.4146347046,-6.46341466904,-10.6097564697,1.0,0.0,0.0,0.0,1.0,0.0,0.0,0.0,1.0,-0.828393774414,2.66235224609,-9.11233151855,1.0,0.0,0.0,0.0,1.0,0.0,0.0,0.0,1.0
1463510844375870470,474,1463510844364738047,,-5.23232364655,-2.87763571739,-91.0433578491,0.00907300040126,1.0,0.0,0.0,0.0,1.0,0.0,0.0,0.0,1.0,43.2926864624,-6.95121955872,-9.75609779358,1.0,0.0,0.0,0.0,1.0,0.0,0.0,0.0,1.0,-0.900219824219,2.84909997559,-9.37090471333,1.0,0.0,0.0,0.0,1.0,0.0,0.0,0.0,1.0
1463510844376587876,475,1463510844374738193,,-4.88939380646,-2.96444153786,-91.1474304199,0.0101070003584,1.0,0.0,0.0,0.0,1.0,0.0,0.0,0.0,1.0,43.6585388184,-6.52439069748,-10.1219511032,1.0,0.0,0.0,0.0,1.0,0.0,0.0,0.0,1.0,-1.03908344744,2.58573779297,-9.53371159526,1.0,0.0,0.0,0.0,1.0,0.0,0.0,0.0,1.0
1463510844395782226,476,1463510844384930411,,-4.54220294952,-3.05883765221,-91.2609786987,0.0101129999384,1.0,0.0,0.0,0.0,1.0,0.0,0.0,0.0,1.0,42.9878044128,-6.46341466904,-10.9756097794,1.0,0.0,0.0,0.0,1.0,0.0,0.0,0.0,1.0,-1.23061965332,2.42293208008,-9.86411083984,1.0,0.0,0.0,0.0,1.0,0.0,0.0,0.0,1.0
1463510844397842470,477,1463510844395130232,,-4.19116830826,-3.14256334305,-91.3912887573,0.0101239997894,1.0,0.0,0.0,0.0,1.0,0.0,0.0,0.0,1.0,42.3780517578,-5.79268312454,-12.5,1.0,0.0,0.0,0.0,1.0,0.0,0.0,0.0,1.0,-1.15879360352,2.1930887207,-9.8305920166,1.0,0.0,0.0,0.0,1.0,0.0,0.0,0.0,1.0
1463510844408519191,478,1463510844405089912,,-3.86867260933,-3.22601914406,-91.5260467529,0.0100919995457,1.0,0.0,0.0,0.0,1.0,0.0,0.0,0.0,1.0,39.8780479431,-5.91463422775,-12.9878053665,1.0,0.0,0.0,0.0,1.0,0.0,0.0,0.0,1.0,-1.15879360352,2.17872351074,-9.8305920166,1.0,0.0,0.0,0.0,1.0,0.0,0.0,0.0,1.0
1463510844442802296,479,1463510844428909356,,-3.39625525475,-3.37216997147,-91.7732620239,0.0160230007023,1.0,0.0,0.0,0.0,1.0,0.0,0.0,0.0,1.0,37.4390220642,-7.13414621353,-15.1219511032,1.0,0.0,0.0,0.0,1.0,0.0,0.0,0.0,1.0,-1.12527478027,2.20266552734,-10.060435376,1.0,0.0,0.0,0.0,1.0,0.0,0.0,0.0,1.0
1463510844443056135,480,1463510844432970786,,-3.11267495155,-3.45805835724,-91.9262237549,0.00968000013381,1.0,0.0,0.0,0.0,1.0,0.0,0.0,0.0,1.0,36.0975646973,-7.37804937363,-15.4268302917,1.0,0.0,0.0,0.0,1.0,0.0,0.0,0.0,1.0,-1.08217922346,1.92493813477,-10.1466266357,1.0,0.0,0.0,0.0,1.0,0.0,0.0,0.0,1.0
1463510844443333098,481,1463510844436809885,,-2.97433567047,-3.50160884857,-92.0056152344,0.00496200006455,1.0,0.0,0.0,0.0,1.0,0.0,0.0,0.0,1.0,35.3048782349,-7.74390268326,-15.6707315445,1.0,0.0,0.0,0.0,1.0,0.0,0.0,0.0,1.0,-1.00556469727,1.96324536133,-9.98382092285,1.0,0.0,0.0,0.0,1.0,0.0,0.0,0.0,1.0
1463510844455206989,482,1463510844445548750,,-2.72256731987,-3.58725714684,-92.1625137329,0.00973199959844,1.0,0.0,0.0,0.0,1.0,0.0,0.0,0.0,1.0,33.2926826477,-8.04878044128,-15.7926826477,1.0,0.0,0.0,0.0,1.0,0.0,0.0,0.0,1.0,-0.972045874023,1.94409174805,-9.99339772949,1.0,0.0,0.0,0.0,1.0,0.0,0.0,0.0,1.0
1463510844458270821,483,1463510844455930697,,-2.4785823822,-3.68076133728,-92.3346176147,0.0100959995762,1.0,0.0,0.0,0.0,1.0,0.0,0.0,0.0,1.0,32.2560958862,-8.59756088257,-16.7682933807,1.0,0.0,0.0,0.0,1.0,0.0,0.0,0.0,1.0,-1.00077629395,2.08774370153,-10.2376062988,1.0,0.0,0.0,0.0,1.0,0.0,0.0,0.0,1.0
1463510844471939815,484,1463510844466315716,,-2.21126770973,-3.79446172714,-92.5328521729,0.0105269998312,1.0,0.0,0.0,0.0,1.0,0.0,0.0,0.0,1.0,32.4390220642,-10.3048782349,-18.5365848541,1.0,0.0,0.0,0.0,1.0,0.0,0.0,0.0,1.0,-0.986411083984,1.87226569824,-10.2423947021,1.0,0.0,0.0,0.0,1.0,0.0,0.0,0.0,1.0
1463510844491490706,485,1463510844476150559,,-1.99033248425,-3.91123151779,-92.7185058594,0.00967399962246,1.0,0.0,0.0,0.0,1.0,0.0,0.0,0.0,1.0,31.158536911,-12.0731716156,-19.0243911743,1.0,0.0,0.0,0.0,1.0,0.0,0.0,0.0,1.0,-0.948103857422,2.12126281703,-10.4626612549,1.0,0.0,0.0,0.0,1.0,0.0,0.0,0.0,1.0
1463510844515731844,486,1463510844486691559,,-1.72805583477,-4.05644130707,-92.9388275146,0.0110269999132,1.0,0.0,0.0,0.0,1.0,0.0,0.0,0.0,1.0,31.341463089,-12.8048782349,-19.7560977936,1.0,0.0,0.0,0.0,1.0,0.0,0.0,0.0,1.0,-1.05823706072,1.96803376465,-10.553640918,1.0,0.0,0.0,0.0,1.0,0.0,0.0,0.0,1.0
1463510844539491083,487,1463510844496087521,,-1.51601672173,-4.18950939178,-93.1273422241,0.00915999989957,1.0,0.0,0.0,0.0,1.0,0.0,0.0,0.0,1.0,30.6707305908,-14.0243902206,-20.3658542633,1.0,0.0,0.0,0.0,1.0,0.0,0.0,0.0,1.0,-1.14921679688,1.97282216797,-10.7834842773,1.0,0.0,0.0,0.0,1.0,0.0,0.0,0.0,1.0
1463510844539530091,488,1463510844506254272,,-1.29399001598,-4.33597517014,-93.3332824707,0.0100809996948,1.0,0.0,0.0,0.0,1.0,0.0,0.0,0.0,1.0,29.3292694092,-14.5731706619,-20.1829280853,1.0,0.0,0.0,0.0,1.0,0.0,0.0,0.0,1.0,-1.08696755371,1.90099611816,-10.8170031006,1.0,0.0,0.0,0.0,1.0,0.0,0.0,0.0,1.0
1463510844539567329,489,1463510844516179266,,-1.08894002438,-4.48868370056,-93.536277771,0.0101330000907,1.0,0.0,0.0,0.0,1.0,0.0,0.0,0.0,1.0,28.8414649963,-15.4268302917,-19.8780498505,1.0,0.0,0.0,0.0,1.0,0.0,0.0,0.0,1.0,-1.06781401349,2.11647412145,-10.778695874,1.0,0.0,0.0,0.0,1.0,0.0,0.0,0.0,1.0
1463510844539602587,490,1463510844526390597,,-0.873603105545,-4.65490961075,-93.7446365356,0.0100999996066,1.0,0.0,0.0,0.0,1.0,0.0,0.0,0.0,1.0,30.7926845551,-17.134147644,-20.5487823486,1.0,0.0,0.0,0.0,1.0,0.0,0.0,0.0,1.0,-1.04866025408,2.27449157715,-10.7882726807,1.0,0.0,0.0,0.0,1.0,0.0,0.0,0.0,1.0
1463510844539641804,491,1463510844536247314,,-0.642529726028,-4.84085416794,-93.9560012817,0.0100739998743,1.0,0.0,0.0,0.0,1.0,0.0,0.0,0.0,1.0,32.0121955872,-18.475610733,-20.8536586761,1.0,0.0,0.0,0.0,1.0,0.0,0.0,0.0,1.0,-1.23540805664,2.1930887207,-10.8840407471,1.0,0.0,0.0,0.0,1.0,0.0,0.0,0.0,1.0
1463510844556103604,492,1463510844546530933,,-0.41296979785,-5.03181219101,-94.1527023315,0.0101539995521,1.0,0.0,0.0,0.0,1.0,0.0,0.0,0.0,1.0,31.6463413239,-18.475610733,-19.2073173523,1.0,0.0,0.0,0.0,1.0,0.0,0.0,0.0,1.0,-1.35511813965,2.12126281703,-10.8457335205,1.0,0.0,0.0,0.0,1.0,0.0,0.0,0.0,1.0
1463510844570647235,493,1463510844557224841,,-0.147321909666,-5.22751092911,-94.3576278687,0.0108409998938,1.0,0.0,0.0,0.0,1.0,0.0,0.0,0.0,1.0,32.4390220642,-17.9268302917,-18.5975627899,1.0,0.0,0.0,0.0,1.0,0.0,0.0,0.0,1.0,-1.35990654297,1.84832368164,-10.793061084,1.0,0.0,0.0,0.0,1.0,0.0,0.0,0.0,1.0
1463510844570792591,494,1463510844566758243,,0.0859564989805,-5.40118598938,-94.5267486572,0.00934499967843,1.0,0.0,0.0,0.0,1.0,0.0,0.0,0.0,1.0,30.7926845551,-18.2317085266,-17.5609760284,1.0,0.0,0.0,0.0,1.0,0.0,0.0,0.0,1.0,-1.42215578613,1.34554133301,-10.5440641113,1.0,0.0,0.0,0.0,1.0,0.0,0.0,0.0,1.0
1463510844586104458,495,1463510844577614901,,0.282361924648,-5.5767288208,-94.6871948242,0.0100750001147,1.0,0.0,0.0,0.0,1.0,0.0,0.0,0.0,1.0,27.4390258789,-17.7439022064,-15.548781395,1.0,0.0,0.0,0.0,1.0,0.0,0.0,0.0,1.0,-1.31202250977,1.64721074219,-10.3285859619,1.0,0.0,0.0,0.0,1.0,0.0,0.0,0.0,1.0
1463510844667318003,496,1463510844586875142,,0.463933467865,-5.75583171844,-94.8312225342,0.0101319998503,1.0,0.0,0.0,0.0,1.0,0.0,0.0,0.0,1.0,25.5487804413,-17.8048782349,-13.7804880142,1.0,0.0,0.0,0.0,1.0,0.0,0.0,0.0,1.0,-1.40300217285,1.54665427246,-10.4435076416,1.0,0.0,0.0,0.0,1.0,0.0,0.0,0.0,1.0
1463510844670077894,497,1463510844596979657,,0.621603131294,-5.93999767303,-94.9505767822,0.0100889997557,1.0,0.0,0.0,0.0,1.0,0.0,0.0,0.0,1.0,22.3780498505,-17.9878044128,-11.2804880142,1.0,0.0,0.0,0.0,1.0,0.0,0.0,0.0,1.0,-1.52271225586,1.31681091309,-10.5057568848,1.0,0.0,0.0,0.0,1.0,0.0,0.0,0.0,1.0
1463510844670292360,498,1463510844608983540,,0.74160015583,-6.12239122391,-95.0545196533,0.0112159997225,1.0,0.0,0.0,0.0,1.0,0.0,0.0,0.0,1.0,18.7195110321,-17.1951217651,-8.84146404266,1.0,0.0,0.0,0.0,1.0,0.0,0.0,0.0,1.0,-1.34554133301,1.50355864258,-10.6350437744,1.0,0.0,0.0,0.0,1.0,0.0,0.0,0.0,1.0
1463510844670345638,499,1463510844617237590,,0.813543081284,-6.27724599838,-95.1174697876,0.00896099954844,1.0,0.0,0.0,0.0,1.0,0.0,0.0,0.0,1.0,17.134147644,-17.5000019073,-6.70731735229,1.0,0.0,0.0,0.0,1.0,0.0,0.0,0.0,1.0,-1.54665427246,1.69030637207,-10.8505219238,1.0,0.0,0.0,0.0,1.0,0.0,0.0,0.0,1.0
1463510844670654995,500,1463510844627630213,,0.87481367588,-6.4500169754,-95.1606445312,0.0101140001789,1.0,0.0,0.0,0.0,1.0,0.0,0.0,0.0,1.0,16.2804889679,-16.7682933807,-4.08536577225,1.0,0.0,0.0,0.0,1.0,0.0,0.0,0.0,1.0,-1.68072956543,1.85311208496,-10.8744639404,1.0,0.0,0.0,0.0,1.0,0.0,0.0,0.0,1.0
1463510844670761708,501,1463510844637296316,,0.93405020237,-6.62668180466,-95.1924057007,0.0101079996675,1.0,0.0,0.0,0.0,1.0,0.0,0.0,0.0,1.0,16.158536911,-16.158536911,-2.98780488968,1.0,0.0,0.0,0.0,1.0,0.0,0.0,0.0,1.0,-1.90099611816,1.82917006836,-10.8074262939,1.0,0.0,0.0,0.0,1.0,0.0,0.0,0.0,1.0
1463510844670809518,502,1463510844647544468,,0.99005407095,-6.78781652451,-95.1996765137,0.0100940000266,1.0,0.0,0.0,0.0,1.0,0.0,0.0,0.0,1.0,15.8536596298,-14.1463422775,-0.609756112099,1.0,0.0,0.0,0.0,1.0,0.0,0.0,0.0,1.0,-1.98718737793,1.73340200195,-10.5967365479,1.0,0.0,0.0,0.0,1.0,0.0,0.0,0.0,1.0
1463510844670857223,503,1463510844657634192,,1.04513728619,-6.93517923355,-95.1882553101,0.0101279998198,1.0,0.0,0.0,0.0,1.0,0.0,0.0,0.0,1.0,16.5853652954,-12.3170728683,1.09756100178,1.0,0.0,0.0,0.0,1.0,0.0,0.0,0.0,1.0,-2.05901342773,1.81959326172,-10.4147772217,1.0,0.0,0.0,0.0,1.0,0.0,0.0,0.0,1.0
1463510844670894304,504,1463510844667648608,,1.09952497482,-7.05615758896,-95.1586990356,0.0100790001452,1.0,0.0,0.0,0.0,1.0,0.0,0.0,0.0,1.0,17.134147644,-11.4634151459,2.80487799644,1.0,0.0,0.0,0.0,1.0,0.0,0.0,0.0,1.0,-1.77649763184,1.89620771484,-10.5488525146,1.0,0.0,0.0,0.0,1.0,0.0,0.0,0.0,1.0
1463510844745387407,505,1463510844677719688,,1.1562012434,-7.16478395462,-95.1165313721,0.0101049998775,1.0,0.0,0.0,0.0,1.0,0.0,0.0,0.0,1.0,18.2926826477,-10.6097564697,3.90243911743,1.0,0.0,0.0,0.0,1.0,0.0,0.0,0.0,1.0,-1.72382519531,2.04943662109,-10.5871597412,1.0,0.0,0.0,0.0,1.0,0.0,0.0,0.0,1.0
1463510844745739418,506,1463510844687826181,,1.23745143414,-7.26106262207,-95.0706634521,0.010098000057,1.0,0.0,0.0,0.0,1.0,0.0,0.0,0.0,1.0,21.158536911,-10.6097564697,4.20731735229,1.0,0.0,0.0,0.0,1.0,0.0,0.0,0.0,1.0,-1.5562310791,2.17872351074,-10.9415015869,1.0,0.0,0.0,0.0,1.0,0.0,0.0,0.0,1.0
1463510844745788374,507,1463510844698066522,,1.3607364893,-7.35987329483,-95.0289916992,0.0100859999657,1.0,0.0,0.0,0.0,1.0,0.0,0.0,0.0,1.0,23.9634151459,-10.4268293381,3.96341490746,1.0,0.0,0.0,0.0,1.0,0.0,0.0,0.0,1.0,-1.68551796875,1.91536132812,-11.0851536865,1.0,0.0,0.0,0.0,1.0,0.0,0.0,0.0,1.0
1463510844746126948,508,1463510844708032190,,1.5133241415,-7.4546713829,-94.9882125854,0.010111999698,1.0,0.0,0.0,0.0,1.0,0.0,0.0,0.0,1.0,25.6707324982,-10.7926826477,4.02439022064,1.0,0.0,0.0,0.0,1.0,0.0,0.0,0.0,1.0,-1.56101948242,1.66636435547,-11.2096521729,1.0,0.0,0.0,0.0,1.0,0.0,0.0,0.0,1.0
1463510844746180799,509,1463510844718454551,,1.69280815125,-7.54973936081,-94.943862915,0.0103249996901,1.0,0.0,0.0,0.0,1.0,0.0,0.0,0.0,1.0,25.3658542633,-10.548781395,4.63414621353,1.0,0.0,0.0,0.0,1.0,0.0,0.0,0.0,1.0,-1.58496149902,1.08696755371,-11.166556543,1.0,0.0,0.0,0.0,1.0,0.0,0.0,0.0,1.0
1463510844746386568,510,1463510844729503282,,1.84702658653,-7.64035320282,-94.8934173584,0.00997000001371,1.0,0.0,0.0,0.0,1.0,0.0,0.0,0.0,1.0,23.3536586761,-10.4268293381,5.42682933807,1.0,0.0,0.0,0.0,1.0,0.0,0.0,0.0,1.0,-1.58974990234,1.00556469727,-11.1138841064,1.0,0.0,0.0,0.0,1.0,0.0,0.0,0.0,1.0
1463510844746650563,511,1463510844738384639,,1.99653935432,-7.73124361038,-94.8316116333,0.0099950004369,1.0,0.0,0.0,0.0,1.0,0.0,0.0,0.0,1.0,20.6097564697,-11.0365858078,6.89024400711,1.0,0.0,0.0,0.0,1.0,0.0,0.0,0.0,1.0,-1.47961662598,0.493205541992,-11.137826123,1.0,0.0,0.0,0.0,1.0,0.0,0.0,0.0,1.0
1463510844758243064,512,1463510844748565035,,2.08167982101,-7.8299612999,-94.7505340576,0.0101739997044,1.0,0.0,0.0,0.0,1.0,0.0,0.0,0.0,1.0,16.0975608826,-10.9756097794,8.41463470459,1.0,0.0,0.0,0.0,1.0,0.0,0.0,0.0,1.0,-1.61369191895,0.833182177734,-11.1138841064,1.0,0.0,0.0,0.0,1.0,0.0,0.0,0.0,1.0
1463510844761614273,513,1463510844758581273,,2.14431118965,-7.93300247192,-94.6635742188,0.0100410003215,1.0,0.0,0.0,0.0,1.0,0.0,0.0,0.0,1.0,13.5365858078,-10.3048782349,9.14634132385,1.0,0.0,0.0,0.0,1.0,0.0,0.0,0.0,1.0,-1.8148048584,0.689530078125,-10.7643306641,1.0,0.0,0.0,0.0,1.0,0.0,0.0,0.0,1.0
1463510844770788686,514,1463510844768741045,,2.16973257065,-8.03392219543,-94.5685806274,0.0101199997589,1.0,0.0,0.0,0.0,1.0,0.0,0.0,0.0,1.0,10.0609760284,-9.75609779358,9.81707286835,1.0,0.0,0.0,0.0,1.0,0.0,0.0,0.0,1.0,-1.8866309082,0.708683691406,-10.8074262939,1.0,0.0,0.0,0.0,1.0,0.0,0.0,0.0,1.0
1463510844781256878,515,1463510844778774887,,2.15753507614,-8.12529659271,-94.4719543457,0.0100959995762,1.0,0.0,0.0,0.0,1.0,0.0,0.0,0.0,1.0,6.64634132385,-9.45121955872,9.93902492523,1.0,0.0,0.0,0.0,1.0,0.0,0.0,0.0,1.0,-1.77649763184,0.751779321289,-10.7643306641,1.0,0.0,0.0,0.0,1.0,0.0,0.0,0.0,1.0
1463510844794776818,516,1463510844788902265,,2.11009216309,-8.21167755127,-94.3805999756,0.0100830001757,1.0,0.0,0.0,0.0,1.0,0.0,0.0,0.0,1.0,4.45121955872,-9.08536529541,9.20731735229,1.0,0.0,0.0,0.0,1.0,0.0,0.0,0.0,1.0,-1.77170922852,1.01992990723,-10.7356002441,1.0,0.0,0.0,0.0,1.0,0.0,0.0,0.0,1.0
1463510844800498880,517,1463510844799116305,,2.04746389389,-8.30281639099,-94.2951660156,0.0101209999993,1.0,0.0,0.0,0.0,1.0,0.0,0.0,0.0,1.0,2.37804889679,-9.26829242706,8.65853691101,1.0,0.0,0.0,0.0,1.0,0.0,0.0,0.0,1.0,-1.82438166504,0.9193734375,-10.6206785645,1.0,0.0,0.0,0.0,1.0,0.0,0.0,0.0,1.0
1463510844831544882,518,1463510844809122075,,1.97118985653,-8.38674259186,-94.2157287598,0.0100739998743,1.0,0.0,0.0,0.0,1.0,0.0,0.0,0.0,1.0,1.03658533096,-8.65853691101,8.04878044128,1.0,0.0,0.0,0.0,1.0,0.0,0.0,0.0,1.0,-1.84353527832,0.957680664062,-10.6685625977,1.0,0.0,0.0,0.0,1.0,0.0,0.0,0.0,1.0
1463510844832818141,519,1463510844819217112,,1.88548600674,-8.46592903137,-94.1441650391,0.0101490002126,1.0,0.0,0.0,0.0,1.0,0.0,0.0,0.0,1.0,0.12195122242,-8.65853691101,7.19512224197,1.0,0.0,0.0,0.0,1.0,0.0,0.0,0.0,1.0,-1.77649763184,0.991199487305,-10.7403886475,1.0,0.0,0.0,0.0,1.0,0.0,0.0,0.0,1.0
1463510844842233321,520,1463510844829328241,,1.79222977161,-8.54151439667,-94.0806655884,0.0100549999624,1.0,0.0,0.0,0.0,1.0,0.0,0.0,0.0,1.0,0.243902444839,-8.41463470459,6.28048801422,1.0,0.0,0.0,0.0,1.0,0.0,0.0,0.0,1.0,-1.7908628418,1.21625444336,-10.7403886475,1.0,0.0,0.0,0.0,1.0,0.0,0.0,0.0,1.0
1463510844842282902,521,1463510844839422756,,1.70167446136,-8.62082386017,-94.0239868164,0.0101220002398,1.0,0.0,0.0,0.0,1.0,0.0,0.0,0.0,1.0,-0.304878056049,-8.47560977936,5.67073154449,1.0,0.0,0.0,0.0,1.0,0.0,0.0,0.0,1.0,-1.8626888916,1.08217922346,-10.7451770508,1.0,0.0,0.0,0.0,1.0,0.0,0.0,0.0,1.0
1463510844864270734,522,1463510844849623671,,1.61230587959,-8.70421123505,-93.9702911377,0.0101049998775,1.0,0.0,0.0,0.0,1.0,0.0,0.0,0.0,1.0,0.243902444839,-8.84146404266,5.30487823486,1.0,0.0,0.0,0.0,1.0,0.0,0.0,0.0,1.0,-1.90099611816,1.20188930646,-10.7978494873,1.0,0.0,0.0,0.0,1.0,0.0,0.0,0.0,1.0
1463510844864722010,523,1463510844859640118,,1.52549123764,-8.78730487823,-93.9244537354,0.0100790001452,1.0,0.0,0.0,0.0,1.0,0.0,0.0,0.0,1.0,0.365853667259,-8.35365867615,4.51219558716,1.0,0.0,0.0,0.0,1.0,0.0,0.0,0.0,1.0,-2.07816689489,1.25935007324,-11.1186725098,1.0,0.0,0.0,0.0,1.0,0.0,0.0,0.0,1.0
1463510844871024975,524,1463510844869740936,,1.44958567619,-8.86306190491,-93.8840866089,0.0101129999384,1.0,0.0,0.0,0.0,1.0,0.0,0.0,0.0,1.0,1.58536589146,-7.92682981491,3.90243911743,1.0,0.0,0.0,0.0,1.0,0.0,0.0,0.0,1.0,-2.00634099121,1.2976572998,-10.9750204102,1.0,0.0,0.0,0.0,1.0,0.0,0.0,0.0,1.0
1463510844888561140,525,1463510844879840294,,1.38678467274,-8.92124843597,-93.8467102051,0.0101150004193,1.0,0.0,0.0,0.0,1.0,0.0,0.0,0.0,1.0,2.31707310677,-7.25609779358,3.65853667259,1.0,0.0,0.0,0.0,1.0,0.0,0.0,0.0,1.0,-1.81001645508,1.20188930646,-10.9798088135,1.0,0.0,0.0,0.0,1.0,0.0,0.0,0.0,1.0
1463510844903274500,526,1463510844889986473,,1.33067059517,-8.97917938232,-93.8035812378,0.0100910002366,1.0,0.0,0.0,0.0,1.0,0.0,0.0,0.0,1.0,3.47560977936,-7.13414621353,4.14634132385,1.0,0.0,0.0,0.0,1.0,0.0,0.0,0.0,1.0,-1.87226569824,1.32159931641,-11.1617681396,1.0,0.0,0.0,0.0,1.0,0.0,0.0,0.0,1.0
1463510844903522663,527,1463510844900254625,,1.29269731045,-9.03412246704,-93.7554626465,0.0100969998166,1.0,0.0,0.0,0.0,1.0,0.0,0.0,0.0,1.0,4.87804889679,-7.19512224197,4.69512224197,1.0,0.0,0.0,0.0,1.0,0.0,0.0,0.0,1.0,-1.77170922852,1.20667770978,-10.9319247803,1.0,0.0,0.0,0.0,1.0,0.0,0.0,0.0,1.0
1463510844913046951,528,1463510844910085093,,1.24284672737,-9.07564640045,-93.6976623535,0.010106000118,1.0,0.0,0.0,0.0,1.0,0.0,0.0,0.0,1.0,5.12195110321,-7.37804937363,5.42682933807,1.0,0.0,0.0,0.0,1.0,0.0,0.0,0.0,1.0,-1.49398183594,1.47961662598,-11.0516348633,1.0,0.0,0.0,0.0,1.0,0.0,0.0,0.0,1.0
1463510844923568161,529,1463510844920368399,,1.2057737112,-9.12022686005,-93.6308822632,0.0101009998471,1.0,0.0,0.0,0.0,1.0,0.0,0.0,0.0,1.0,7.07317113876,-8.04878044128,6.21951246262,1.0,0.0,0.0,0.0,1.0,0.0,0.0,0.0,1.0,-1.41257897949,1.58496149902,-10.9510783936,1.0,0.0,0.0,0.0,1.0,0.0,0.0,0.0,1.0
1463510844935502152,530,1463510844930246261,,1.18675494194,-9.18574428558,-93.5530700684,0.010098000057,1.0,0.0,0.0,0.0,1.0,0.0,0.0,0.0,1.0,8.59756088257,-9.02439117432,7.37804937363,1.0,0.0,0.0,0.0,1.0,0.0,0.0,0.0,1.0,-1.63284553223,1.50355864258,-10.927136377,1.0,0.0,0.0,0.0,1.0,0.0,0.0,0.0,1.0
1463510844943223108,531,1463510844940561961,,1.18174874783,-9.24951648712,-93.4614486694,0.010106000118,1.0,0.0,0.0,0.0,1.0,0.0,0.0,0.0,1.0,9.32926845551,-8.78048801422,8.84146404266,1.0,0.0,0.0,0.0,1.0,0.0,0.0,0.0,1.0,-1.65678754883,1.33117612305,-10.9462899902,1.0,0.0,0.0,0.0,1.0,0.0,0.0,0.0,1.0
1463510844953440220,532,1463510844950562055,,1.17917537689,-9.31892776489,-93.3559951782,0.010111999698,1.0,0.0,0.0,0.0,1.0,0.0,0.0,0.0,1.0,9.81707286835,-9.45121955872,10.1829271317,1.0,0.0,0.0,0.0,1.0,0.0,0.0,0.0,1.0,-1.64721074219,1.34075292969,-10.9893856201,1.0,0.0,0.0,0.0,1.0,0.0,0.0,0.0,1.0
1463510844963399275,533,1463510844960879891,,1.17958664894,-9.38128185272,-93.2390365601,0.0100859999657,1.0,0.0,0.0,0.0,1.0,0.0,0.0,0.0,1.0,11.6463422775,-9.32926845551,11.0975618362,1.0,0.0,0.0,0.0,1.0,0.0,0.0,0.0,1.0,-1.5322890625,1.59932670898,-10.9079827637,1.0,0.0,0.0,0.0,1.0,0.0,0.0,0.0,1.0
1463510844973452022,534,1463510844971022997,,1.211617589,-9.45158863068,-93.1123275757,0.0101140001789,1.0,0.0,0.0,0.0,1.0,0.0,0.0,0.0,1.0,14.6341466904,-10.1829271317,12.0731716156,1.0,0.0,0.0,0.0,1.0,0.0,0.0,0.0,1.0,-1.5562310791,1.57059628906,-11.1426145264,1.0,0.0,0.0,0.0,1.0,0.0,0.0,0.0,1.0
1463510844983312228,535,1463510844980924971,,1.26580536366,-9.52951622009,-92.9834518433,0.0100840004161,1.0,0.0,0.0,0.0,1.0,0.0,0.0,0.0,1.0,16.5853652954,-10.7926826477,12.3780488968,1.0,0.0,0.0,0.0,1.0,0.0,0.0,0.0,1.0,-1.58974990234,1.48919343262,-11.0612116699,1.0,0.0,0.0,0.0,1.0,0.0,0.0,0.0,1.0
1463510845009497211,536,1463510844990818874,,1.3369512558,-9.61031246185,-92.8478927612,0.0100760003552,1.0,0.0,0.0,0.0,1.0,0.0,0.0,0.0,1.0,17.9878044128,-10.9756097794,13.1097564697,1.0,0.0,0.0,0.0,1.0,0.0,0.0,0.0,1.0,-1.64242233887,1.41257897949,-11.2048637695,1.0,0.0,0.0,0.0,1.0,0.0,0.0,0.0,1.0
1463510845009540594,537,1463510845001126345,,1.42952013016,-9.69530963898,-92.7079315186,0.0101239997894,1.0,0.0,0.0,0.0,1.0,0.0,0.0,0.0,1.0,19.4512195587,-11.2804880142,13.5975618362,1.0,0.0,0.0,0.0,1.0,0.0,0.0,0.0,1.0,-1.65678754883,1.24498486328,-11.1282493164,1.0,0.0,0.0,0.0,1.0,0.0,0.0,0.0,1.0
1463510845014211366,538,1463510845011224351,,1.52960622311,-9.78262233734,-92.5605545044,0.0101009998471,1.0,0.0,0.0,0.0,1.0,0.0,0.0,0.0,1.0,19.3902435303,-10.9146347046,14.5121955872,1.0,0.0,0.0,0.0,1.0,0.0,0.0,0.0,1.0,-1.75734401855,1.01035310059,-10.927136377,1.0,0.0,0.0,0.0,1.0,0.0,0.0,0.0,1.0
1463510845022896540,539,1463510845021384805,,1.61872470379,-9.87411594391,-92.4095687866,0.0101049998775,1.0,0.0,0.0,0.0,1.0,0.0,0.0,0.0,1.0,18.7195110321,-11.5853662491,14.8170728683,1.0,0.0,0.0,0.0,1.0,0.0,0.0,0.0,1.0,-1.72382519531,1.06302561017,-10.9750204102,1.0,0.0,0.0,0.0,1.0,0.0,0.0,0.0,1.0
1463510845039942218,540,1463510845035524037,,1.70049381256,-9.96636009216,-92.2571563721,0.0100999996066,1.0,0.0,0.0,0.0,1.0,0.0,0.0,0.0,1.0,16.4634151459,-11.7073173523,15.2439022064,1.0,0.0,0.0,0.0,1.0,0.0,0.0,0.0,1.0,-1.72861359863,0.727837304687,-10.9750204102,1.0,0.0,0.0,0.0,1.0,0.0,0.0,0.0,1.0
1463510845048901750,541,1463510845046123891,,1.76615166664,-10.0588560104,-92.104598999,0.0101229995489,1.0,0.0,0.0,0.0,1.0,0.0,0.0,0.0,1.0,15.1219511032,-11.7682924271,15.1829271317,1.0,0.0,0.0,0.0,1.0,0.0,0.0,0.0,1.0,-1.71903679199,0.756567724609,-10.8936175537,1.0,0.0,0.0,0.0,1.0,0.0,0.0,0.0,1.0
1463510845059067931,542,1463510845055688075,,1.80803179741,-10.1533794403,-91.9576721191,0.0100560002029,1.0,0.0,0.0,0.0,1.0,0.0,0.0,0.0,1.0,13.048781395,-12.4390249252,14.6951217651,1.0,0.0,0.0,0.0,1.0,0.0,0.0,0.0,1.0,-1.64721074219,0.799663354492,-10.8313683105,1.0,0.0,0.0,0.0,1.0,0.0,0.0,0.0,1.0
1463510845099760102,543,1463510845062842973,,1.84079861641,-10.255572319,-91.8093261719,0.0101739997044,1.0,0.0,0.0,0.0,1.0,0.0,0.0,0.0,1.0,11.8902444839,-12.3170728683,14.6951217651,1.0,0.0,0.0,0.0,1.0,0.0,0.0,0.0,1.0,-1.83395847168,0.756567724609,-10.9462899902,1.0,0.0,0.0,0.0,1.0,0.0,0.0,0.0,1.0
1463510845099810359,544,1463510845072515589,,1.85750770569,-10.3577432632,-91.6700363159,0.0100389998406,1.0,0.0,0.0,0.0,1.0,0.0,0.0,0.0,1.0,10.7317075729,-12.3780488968,13.9024391174,1.0,0.0,0.0,0.0,1.0,0.0,0.0,0.0,1.0,-1.8626888916,0.847547387695,-10.8936175537,1.0,0.0,0.0,0.0,1.0,0.0,0.0,0.0,1.0
1463510845100043262,545,1463510845081735835,,1.86273276806,-10.453127861,-91.5358886719,0.010095000267,1.0,0.0,0.0,0.0,1.0,0.0,0.0,0.0,1.0,9.5731716156,-12.0731716156,13.2926826477,1.0,0.0,0.0,0.0,1.0,0.0,0.0,0.0,1.0,-1.80043964844,0.857124194336,-10.8840407471,1.0,0.0,0.0,0.0,1.0,0.0,0.0,0.0,1.0
1463510845102569626,546,1463510845101008311,,1.87380504608,-10.6185903549,-91.3425216675,0.0168219991028,1.0,0.0,0.0,0.0,1.0,0.0,0.0,0.0,1.0,8.71951198578,-12.0731716156,11.6463422775,1.0,0.0,0.0,0.0,1.0,0.0,0.0,0.0,1.0,-1.82917006836,0.689530078125,-10.4387192383,1.0,0.0,0.0,0.0,1.0,0.0,0.0,0.0,1.0
1463510845107516787,547,1463510845104283537,,1.87246251106,-10.6736955643,-91.2790679932,0.00565499998629,1.0,0.0,0.0,0.0,1.0,0.0,0.0,0.0,1.0,8.17073154449,-11.8902444839,11.2804880142,1.0,0.0,0.0,0.0,1.0,0.0,0.0,0.0,1.0,-1.89141931152,0.76614453125,-10.5057568848,1.0,0.0,0.0,0.0,1.0,0.0,0.0,0.0,1.0
1463510845114681944,548,1463510845112201724,,1.85446560383,-10.7473592758,-91.1958999634,0.00782800000161,1.0,0.0,0.0,0.0,1.0,0.0,0.0,0.0,1.0,7.31707334518,-11.4634151459,10.4268293381,1.0,0.0,0.0,0.0,1.0,0.0,0.0,0.0,1.0,-1.93930334473,1.02950671387,-10.5919481445,1.0,0.0,0.0,0.0,1.0,0.0,0.0,0.0,1.0
1463510845125063113,549,1463510845122385039,,1.83505046368,-10.8306179047,-91.0973892212,0.0101009998471,1.0,0.0,0.0,0.0,1.0,0.0,0.0,0.0,1.0,7.37804937363,-11.0365858078,9.5731716156,1.0,0.0,0.0,0.0,1.0,0.0,0.0,0.0,1.0,-1.79565124512,0.986411083984,-10.4722380615,1.0,0.0,0.0,0.0,1.0,0.0,0.0,0.0,1.0
1463510845134994672,550,1463510845132444924,,1.81513524055,-10.9156332016,-91.0088272095,0.0101260002702,1.0,0.0,0.0,0.0,1.0,0.0,0.0,0.0,1.0,6.7682929039,-11.4024391174,8.65853691101,1.0,0.0,0.0,0.0,1.0,0.0,0.0,0.0,1.0,-1.80522805176,0.928950244141,-10.6350437744,1.0,0.0,0.0,0.0,1.0,0.0,0.0,0.0,1.0
1463510845144525942,551,1463510845142424710,,1.79930174351,-10.987660408,-90.9279632568,0.0100889997557,1.0,0.0,0.0,0.0,1.0,0.0,0.0,0.0,1.0,7.50000047684,-10.3658542633,7.80487823486,1.0,0.0,0.0,0.0,1.0,0.0,0.0,0.0,1.0,-1.78607443848,1.02471831055,-10.6494089844,1.0,0.0,0.0,0.0,1.0,0.0,0.0,0.0,1.0
1463510845186263468,552,1463510845152673594,,1.79370069504,-11.0744600296,-90.8529586792,0.0100929997861,1.0,0.0,0.0,0.0,1.0,0.0,0.0,0.0,1.0,7.92682981491,-10.4268293381,7.31707334518,1.0,0.0,0.0,0.0,1.0,0.0,0.0,0.0,1.0,-2.08774370153,0.943315454102,-10.7068698242,1.0,0.0,0.0,0.0,1.0,0.0,0.0,0.0,1.0
1463510845186326590,553,1463510845162693482,,1.7870221138,-11.1439704895,-90.779006958,0.0100990002975,1.0,0.0,0.0,0.0,1.0,0.0,0.0,0.0,1.0,8.23170757294,-9.08536529541,7.07317113876,1.0,0.0,0.0,0.0,1.0,0.0,0.0,0.0,1.0,-2.05422502441,1.03908344744,-10.8265799072,1.0,0.0,0.0,0.0,1.0,0.0,0.0,0.0,1.0
1463510845186367212,554,1463510845172799302,,1.78811848164,-11.2071933746,-90.7085113525,0.0101009998471,1.0,0.0,0.0,0.0,1.0,0.0,0.0,0.0,1.0,8.84146404266,-7.80487823486,6.70731735229,1.0,0.0,0.0,0.0,1.0,0.0,0.0,0.0,1.0,-2.1930887207,1.01992990723,-10.7882726807,1.0,0.0,0.0,0.0,1.0,0.0,0.0,0.0,1.0
1463510845186726931,555,1463510845182816168,,1.79607534409,-11.2545394897,-90.6420516968,0.0101030003279,1.0,0.0,0.0,0.0,1.0,0.0,0.0,0.0,1.0,9.39024448395,-6.58536624908,6.28048801422,1.0,0.0,0.0,0.0,1.0,0.0,0.0,0.0,1.0,-2.14520483363,1.01035310059,-10.8265799072,1.0,0.0,0.0,0.0,1.0,0.0,0.0,0.0,1.0
1463510845198361100,556,1463510845193263271,,1.81553125381,-11.2909736633,-90.5733642578,0.0101020000875,1.0,0.0,0.0,0.0,1.0,0.0,0.0,0.0,1.0,10.1219511032,-4.75609779358,6.52439069748,1.0,0.0,0.0,0.0,1.0,0.0,0.0,0.0,1.0,-2.29843359375,0.9193734375,-10.8074262939,1.0,0.0,0.0,0.0,1.0,0.0,0.0,0.0,1.0
1463510845223934304,557,1463510845203351904,,1.82881450653,-11.3104066849,-90.5077896118,0.010098000057,1.0,0.0,0.0,0.0,1.0,0.0,0.0,0.0,1.0,9.5731716156,-3.47560977936,6.15853643417,1.0,0.0,0.0,0.0,1.0,0.0,0.0,0.0,1.0,-2.2170307373,0.933738647461,-10.7595422607,1.0,0.0,0.0,0.0,1.0,0.0,0.0,0.0,1.0
1463510845226578161,558,1463510845213219404,,1.84861707687,-11.310049057,-90.4454727173,0.010111999698,1.0,0.0,0.0,0.0,1.0,0.0,0.0,0.0,1.0,9.5731716156,-2.31707310677,5.91463422775,1.0,0.0,0.0,0.0,1.0,0.0,0.0,0.0,1.0,-2.04464821777,0.804451757813,-10.658985791,1.0,0.0,0.0,0.0,1.0,0.0,0.0,0.0,1.0
1463510845227523731,559,1463510845223233771,,1.86515796185,-11.3013496399,-90.3876571655,0.0100859999657,1.0,0.0,0.0,0.0,1.0,0.0,0.0,0.0,1.0,9.45121955872,-2.01219511032,5.42682933807,1.0,0.0,0.0,0.0,1.0,0.0,0.0,0.0,1.0,-1.97282216797,0.866701000977,-10.8122146973,1.0,0.0,0.0,0.0,1.0,0.0,0.0,0.0,1.0
1463510845235001630,560,1463510845233315374,,1.87713384628,-11.2867269516,-90.3332748413,0.0101150004193,1.0,0.0,0.0,0.0,1.0,0.0,0.0,0.0,1.0,9.26829242706,-1.64634156227,5.0,1.0,0.0,0.0,0.0,1.0,0.0,0.0,0.0,1.0,-1.92493813477,0.928950244141,-10.7834842773,1.0,0.0,0.0,0.0,1.0,0.0,0.0,0.0,1.0
1463510845253591333,561,1463510845243474003,,1.90146446228,-11.2734460831,-90.2856063843,0.0101070003584,1.0,0.0,0.0,0.0,1.0,0.0,0.0,0.0,1.0,9.14634132385,-0.914634168148,4.57317066193,1.0,0.0,0.0,0.0,1.0,0.0,0.0,0.0,1.0,-2.07337849156,0.679953271484,-10.6637741943,1.0,0.0,0.0,0.0,1.0,0.0,0.0,0.0,1.0
1463510845261506238,562,1463510845253564459,,1.91637003422,-11.2516765594,-90.2401428223,0.0100919995457,1.0,0.0,0.0,0.0,1.0,0.0,0.0,0.0,1.0,8.47560977936,0.304878056049,4.2682929039,1.0,0.0,0.0,0.0,1.0,0.0,0.0,0.0,1.0,-2.10689731481,0.723048901367,-10.4722380615,1.0,0.0,0.0,0.0,1.0,0.0,0.0,0.0,1.0
1463510845272143798,563,1463510845263479145,,1.92429375648,-11.2108402252,-90.1966018677,0.0100800003856,1.0,0.0,0.0,0.0,1.0,0.0,0.0,0.0,1.0,7.31707334518,1.2195122242,4.14634132385,1.0,0.0,0.0,0.0,1.0,0.0,0.0,0.0,1.0,-1.9105729248,0.632069238281,-10.4435076416,1.0,0.0,0.0,0.0,1.0,0.0,0.0,0.0,1.0
1463510845288954854,564,1463510845276243769,,1.90829324722,-11.1535234451,-90.1364212036,0.0126440003514,1.0,0.0,0.0,0.0,1.0,0.0,0.0,0.0,1.0,5.36585378647,1.34146344662,4.57317066193,1.0,0.0,0.0,0.0,1.0,0.0,0.0,0.0,1.0,-1.8148048584,0.627280834961,-10.3477395752,1.0,0.0,0.0,0.0,1.0,0.0,0.0,0.0,1.0
1463510845301048059,565,1463510845284963575,,1.91553723812,-11.1290254593,-90.1213226318,0.00757799996063,1.0,0.0,0.0,0.0,1.0,0.0,0.0,0.0,1.0,9.14634132385,1.09756100178,1.46341466904,1.0,0.0,0.0,0.0,1.0,0.0,0.0,0.0,1.0,-2.10210891149,1.07739082014,-10.7643306641,1.0,0.0,0.0,0.0,1.0,0.0,0.0,0.0,1.0
1463510845301112638,566,1463510845294074817,,2.06322836876,-11.1412343979,-90.121925354,0.0100999996066,1.0,0.0,0.0,0.0,1.0,0.0,0.0,0.0,1.0,9.87804889679,2.56097555161,1.8902438879,1.0,0.0,0.0,0.0,1.0,0.0,0.0,0.0,1.0,-2.97359846191,-1.29286889648,-9.65342167827,1.0,0.0,0.0,0.0,1.0,0.0,0.0,0.0,1.0
1463510845306870533,567,1463510845304131369,,2.00709748268,-11.0773267746,-90.0877838135,0.0101169999689,1.0,0.0,0.0,0.0,1.0,0.0,0.0,0.0,1.0,1.8292683363,3.90243911743,2.92682933807,1.0,0.0,0.0,0.0,1.0,0.0,0.0,0.0,1.0,-1.99197578125,0.814028564453,-10.539275708,1.0,0.0,0.0,0.0,1.0,0.0,0.0,0.0,1.0
1463510845319352570,568,1463510845314988031,,1.99388182163,-10.9979496002,-90.0743713379,0.0100779999048,1.0,0.0,0.0,0.0,1.0,0.0,0.0,0.0,1.0,4.20731735229,7.56097555161,1.09756100178,1.0,0.0,0.0,0.0,1.0,0.0,0.0,0.0,1.0,-2.39899020961,0.545877978516,-10.5296989014,1.0,0.0,0.0,0.0,1.0,0.0,0.0,0.0,1.0
1463510845333029016,569,1463510845329916957,,1.91526436806,-10.8853321075,-90.0708007812,0.0101100001484,1.0,0.0,0.0,0.0,1.0,0.0,0.0,0.0,1.0,-0.0609756112099,7.43902492523,-0.304878056049,1.0,0.0,0.0,0.0,1.0,0.0,0.0,0.0,1.0,-1.69509477539,0.976834277344,-10.285490332,1.0,0.0,0.0,0.0,1.0,0.0,0.0,0.0,1.0
1463510845339302298,570,1463510845334488462,,1.83443295956,-10.7656393051,-90.0641326904,0.0101920003071,1.0,0.0,0.0,0.0,1.0,0.0,0.0,0.0,1.0,0.12195122242,8.17073154449,-0.0609756112099,1.0,0.0,0.0,0.0,1.0,0.0,0.0,0.0,1.0,-1.69509477539,1.04387185076,-10.2807019287,1.0,0.0,0.0,0.0,1.0,0.0,0.0,0.0,1.0
1463510845347418962,571,1463510845344541785,,1.80439960957,-10.6522693634,-90.0826644897,0.0100210001692,1.0,0.0,0.0,0.0,1.0,0.0,0.0,0.0,1.0,0.914634168148,7.62195110321,-1.76829278469,1.0,0.0,0.0,0.0,1.0,0.0,0.0,0.0,1.0,-1.64721074219,0.359130249023,-10.1609918457,1.0,0.0,0.0,0.0,1.0,0.0,0.0,0.0,1.0
1463510845357104077,572,1463510845354553027,,1.75526165962,-10.5538215637,-90.1011123657,0.0100809996948,1.0,0.0,0.0,0.0,1.0,0.0,0.0,0.0,1.0,0.12195122242,7.92682981491,-1.95121955872,1.0,0.0,0.0,0.0,1.0,0.0,0.0,0.0,1.0,-2.02070620117,0.584185168546,-10.4291424316,1.0,0.0,0.0,0.0,1.0,0.0,0.0,0.0,1.0
1463510845377194058,573,1463510845364559374,,1.69246447086,-10.4508829117,-90.1236953735,0.0101009998471,1.0,0.0,0.0,0.0,1.0,0.0,0.0,0.0,1.0,0.12195122242,8.78048801422,-2.62195134163,1.0,0.0,0.0,0.0,1.0,0.0,0.0,0.0,1.0,-2.06380183105,0.857124194336,-10.3190091553,1.0,0.0,0.0,0.0,1.0,0.0,0.0,0.0,1.0
1463510845394860793,574,1463510845374703265,,1.64587914944,-10.341840744,-90.157081604,0.010098000057,1.0,0.0,0.0,0.0,1.0,0.0,0.0,0.0,1.0,0.792682945728,9.5731716156,-3.53658556938,1.0,0.0,0.0,0.0,1.0,0.0,0.0,0.0,1.0,-2.10210891149,0.732625708008,-10.405200415,1.0,0.0,0.0,0.0,1.0,0.0,0.0,0.0,1.0
1463510845396029371,575,1463510845384723985,,1.61747264862,-10.2169466019,-90.1949310303,0.010098000057,1.0,0.0,0.0,0.0,1.0,0.0,0.0,0.0,1.0,1.52439022064,10.0,-3.7804877758,1.0,0.0,0.0,0.0,1.0,0.0,0.0,0.0,1.0,-1.84832368164,0.541089611728,-10.3094323486,1.0,0.0,0.0,0.0,1.0,0.0,0.0,0.0,1.0
1463510845397709013,576,1463510845395074270,,1.58294689655,-10.0786113739,-90.236656189,0.0101899998263,1.0,0.0,0.0,0.0,1.0,0.0,0.0,0.0,1.0,1.46341466904,10.0609760284,-4.20731735229,1.0,0.0,0.0,0.0,1.0,0.0,0.0,0.0,1.0,-1.6041151123,0.646434448242,-10.2615483154,1.0,0.0,0.0,0.0,1.0,0.0,0.0,0.0,1.0
1463510845413458047,577,1463510845405420024,,1.53652656078,-9.9557094574,-90.2716445923,0.0100349998102,1.0,0.0,0.0,0.0,1.0,0.0,0.0,0.0,1.0,0.792682945728,9.51219558716,-3.65853667259,1.0,0.0,0.0,0.0,1.0,0.0,0.0,0.0,1.0,-1.70467158203,0.732625708008,-10.1705686523,1.0,0.0,0.0,0.0,1.0,0.0,0.0,0.0,1.0
1463510845421025889,578,1463510845415352833,,1.48591804504,-9.83664417267,-90.30027771,0.0101020000875,1.0,0.0,0.0,0.0,1.0,0.0,0.0,0.0,1.0,1.2195122242,9.14634132385,-3.10975623131,1.0,0.0,0.0,0.0,1.0,0.0,0.0,0.0,1.0,-1.69030637207,0.866701000977,-10.1370498291,1.0,0.0,0.0,0.0,1.0,0.0,0.0,0.0,1.0
1463510845432642820,579,1463510845425336577,,1.45559489727,-9.72494411469,-90.3371276855,0.0100959995762,1.0,0.0,0.0,0.0,1.0,0.0,0.0,0.0,1.0,2.37804889679,9.63414573669,-3.7804877758,1.0,0.0,0.0,0.0,1.0,0.0,0.0,0.0,1.0,-1.8866309082,0.742202514648,-10.0891657959,1.0,0.0,0.0,0.0,1.0,0.0,0.0,0.0,1.0
1463510845438921830,580,1463510845435485363,,1.42600882053,-9.61253738403,-90.3700866699,0.0101079996675,1.0,0.0,0.0,0.0,1.0,0.0,0.0,0.0,1.0,3.10975623131,9.39024448395,-3.47560977936,1.0,0.0,0.0,0.0,1.0,0.0,0.0,0.0,1.0,-1.80522805176,0.852335791016,-10.0700121826,1.0,0.0,0.0,0.0,1.0,0.0,0.0,0.0,1.0
1463510845451736608,581,1463510845445690813,,1.40832424164,-9.49273109436,-90.4013900757,0.0100760003552,1.0,0.0,0.0,0.0,1.0,0.0,0.0,0.0,1.0,4.14634132385,10.0,-3.29268312454,1.0,0.0,0.0,0.0,1.0,0.0,0.0,0.0,1.0,-1.77170922852,0.833182177734,-10.1705686523,1.0,0.0,0.0,0.0,1.0,0.0,0.0,0.0,1.0
1463510845459150136,582,1463510845455793716,,1.40585458279,-9.37947845459,-90.4309387207,0.0101309996098,1.0,0.0,0.0,0.0,1.0,0.0,0.0,0.0,1.0,4.32926845551,10.0609760284,-2.86585378647,1.0,0.0,0.0,0.0,1.0,0.0,0.0,0.0,1.0,-1.9105729248,0.588973571866,-10.2711251221,1.0,0.0,0.0,0.0,1.0,0.0,0.0,0.0,1.0
1463510845469325483,583,1463510845465820426,,1.40144240856,-9.25905799866,-90.4579162598,0.0100520001724,1.0,0.0,0.0,0.0,1.0,0.0,0.0,0.0,1.0,4.45121955872,10.6097564697,-2.68292689323,1.0,0.0,0.0,0.0,1.0,0.0,0.0,0.0,1.0,-1.81959326172,0.632069238281,-10.1514150391,1.0,0.0,0.0,0.0,1.0,0.0,0.0,0.0,1.0
1463510845479514631,584,1463510845476298412,,1.40162408352,-9.12843036652,-90.4825439453,0.010161999613,1.0,0.0,0.0,0.0,1.0,0.0,0.0,0.0,1.0,4.63414621353,11.0975618362,-2.37804889679,1.0,0.0,0.0,0.0,1.0,0.0,0.0,0.0,1.0,-1.71903679199,0.569819995117,-10.1178962158,1.0,0.0,0.0,0.0,1.0,0.0,0.0,0.0,1.0
1463510845491011985,585,1463510845486306789,,1.37580358982,-9.00644016266,-90.4962081909,0.0101100001484,1.0,0.0,0.0,0.0,1.0,0.0,0.0,0.0,1.0,3.96341490746,10.8536586761,-1.58536589146,1.0,0.0,0.0,0.0,1.0,0.0,0.0,0.0,1.0,-1.7908628418,0.890643017578,-10.1178962158,1.0,0.0,0.0,0.0,1.0,0.0,0.0,0.0,1.0
1463510845499150628,586,1463510845496468440,,1.36444830894,-8.86974906921,-90.5059738159,0.0101020000875,1.0,0.0,0.0,0.0,1.0,0.0,0.0,0.0,1.0,5.24390268326,11.1585359573,-1.15853655338,1.0,0.0,0.0,0.0,1.0,0.0,0.0,0.0,1.0,-1.54665427246,0.847547387695,-10.0748005859,1.0,0.0,0.0,0.0,1.0,0.0,0.0,0.0,1.0
1463510845509916982,587,1463510845506516815,,1.36669659615,-8.75039291382,-90.5136795044,0.0100739998743,1.0,0.0,0.0,0.0,1.0,0.0,0.0,0.0,1.0,5.73170757294,10.6097564697,-0.792682945728,1.0,0.0,0.0,0.0,1.0,0.0,0.0,0.0,1.0,-1.73340200195,0.689530078125,-10.1035310059,1.0,0.0,0.0,0.0,1.0,0.0,0.0,0.0,1.0
1463510845518204366,588,1463510845516578054,,1.37498581409,-8.62792873383,-90.5153961182,0.0101229995489,1.0,0.0,0.0,0.0,1.0,0.0,0.0,0.0,1.0,5.91463422775,10.7317075729,-0.12195122242,1.0,0.0,0.0,0.0,1.0,0.0,0.0,0.0,1.0,-1.69509477539,0.598550451572,-10.1609918457,1.0,0.0,0.0,0.0,1.0,0.0,0.0,0.0,1.0
1463510845529601205,589,1463510845526487531,,1.37151062489,-8.51036167145,-90.5120925903,0.0100689996034,1.0,0.0,0.0,0.0,1.0,0.0,0.0,0.0,1.0,4.45121955872,11.1585359573,0.426829278469,1.0,0.0,0.0,0.0,1.0,0.0,0.0,0.0,1.0,-1.80043964844,0.521935925381,-10.0125513428,1.0,0.0,0.0,0.0,1.0,0.0,0.0,0.0,1.0
1463510845542503477,590,1463510845536773289,,1.35950779915,-8.39341068268,-90.5038604736,0.0101180002093,1.0,0.0,0.0,0.0,1.0,0.0,0.0,0.0,1.0,3.29268312454,11.0975618362,0.975609779358,1.0,0.0,0.0,0.0,1.0,0.0,0.0,0.0,1.0,-1.78128603516,0.450109912109,-9.97903251953,1.0,0.0,0.0,0.0,1.0,0.0,0.0,0.0,1.0
1463510845550358125,591,1463510845546596312,,1.33499062061,-8.26590442657,-90.4928970337,0.0100859999657,1.0,0.0,0.0,0.0,1.0,0.0,0.0,0.0,1.0,2.37804889679,10.9146347046,1.2195122242,1.0,0.0,0.0,0.0,1.0,0.0,0.0,0.0,1.0,-1.54665427246,0.507570751953,-10.0891657959,1.0,0.0,0.0,0.0,1.0,0.0,0.0,0.0,1.0
1463510845560970322,592,1463510845556892746,,1.29266381264,-8.15381717682,-90.4776229858,0.0101399999112,1.0,0.0,0.0,0.0,1.0,0.0,0.0,0.0,1.0,0.792682945728,10.3658542633,1.64634156227,1.0,0.0,0.0,0.0,1.0,0.0,0.0,0.0,1.0,-1.70945998535,0.531512805087,-10.0748005859,1.0,0.0,0.0,0.0,1.0,0.0,0.0,0.0,1.0
1463510845572847862,593,1463510845566796286,,1.23618459702,-8.03829097748,-90.4541931152,0.0100680002943,1.0,0.0,0.0,0.0,1.0,0.0,0.0,0.0,1.0,0.18292683363,10.1829271317,2.37804889679,1.0,0.0,0.0,0.0,1.0,0.0,0.0,0.0,1.0,-1.57059628906,0.665588061523,-10.0412817627,1.0,0.0,0.0,0.0,1.0,0.0,0.0,0.0,1.0
1463510845579880631,594,1463510845577104438,,1.17955291271,-7.92727375031,-90.4382781982,0.0101490002126,1.0,0.0,0.0,0.0,1.0,0.0,0.0,0.0,1.0,-0.670731723309,9.87804889679,1.76829278469,1.0,0.0,0.0,0.0,1.0,0.0,0.0,0.0,1.0,-1.58496149902,0.531512805087,-9.97903251953,1.0,0.0,0.0,0.0,1.0,0.0,0.0,0.0,1.0
1463510845593559265,595,1463510845587095838,,1.11644375324,-7.82134437561,-90.4213790894,0.0100349998102,1.0,0.0,0.0,0.0,1.0,0.0,0.0,0.0,1.0,-1.09756100178,8.59756088257,1.8902438879,1.0,0.0,0.0,0.0,1.0,0.0,0.0,0.0,1.0,-1.41736738281,0.593762048251,-10.0795889893,1.0,0.0,0.0,0.0,1.0,0.0,0.0,0.0,1.0
1463510845600577712,596,1463510845597170878,,1.05132806301,-7.72474431992,-90.4064102173,0.0101509997621,1.0,0.0,0.0,0.0,1.0,0.0,0.0,0.0,1.0,-2.01219511032,7.56097555161,1.8292683363,1.0,0.0,0.0,0.0,1.0,0.0,0.0,0.0,1.0,-1.40779057617,0.469263525391,-10.1370498291,1.0,0.0,0.0,0.0,1.0,0.0,0.0,0.0,1.0
1463510845614843967,597,1463510845607202952,,0.968771398067,-7.64028406143,-90.3962249756,0.010048000142,1.0,0.0,0.0,0.0,1.0,0.0,0.0,0.0,1.0,-2.01219511032,6.34146356583,1.15853655338,1.0,0.0,0.0,0.0,1.0,0.0,0.0,0.0,1.0,-1.39821376953,0.837970581055,-10.3285859619,1.0,0.0,0.0,0.0,1.0,0.0,0.0,0.0,1.0
1463510845623463415,598,1463510845617657762,,0.89430308342,-7.56963539124,-90.3856048584,0.0102639999241,1.0,0.0,0.0,0.0,1.0,0.0,0.0,0.0,1.0,-0.670731723309,5.67073154449,1.15853655338,1.0,0.0,0.0,0.0,1.0,0.0,0.0,0.0,1.0,-1.54665427246,0.928950244141,-10.3621047852,1.0,0.0,0.0,0.0,1.0,0.0,0.0,0.0,1.0
1463510845630052772,599,1463510845627522919,,0.835447132587,-7.50407123566,-90.3816375732,0.00998600013554,1.0,0.0,0.0,0.0,1.0,0.0,0.0,0.0,1.0,0.12195122242,5.60975599289,0.609756112099,1.0,0.0,0.0,0.0,1.0,0.0,0.0,0.0,1.0,-1.58496149902,0.852335791016,-10.3716815918,1.0,0.0,0.0,0.0,1.0,0.0,0.0,0.0,1.0
1463510845659684855,600,1463510845637924920,,0.793774425983,-7.45068502426,-90.3901519775,0.0101030003279,1.0,0.0,0.0,0.0,1.0,0.0,0.0,0.0,1.0,1.8292683363,5.06097555161,-0.609756112099,1.0,0.0,0.0,0.0,1.0,0.0,0.0,0.0,1.0,-1.69030637207,0.871489404297,-10.2280294922,1.0,0.0,0.0,0.0,1.0,0.0,0.0,0.0,1.0
1463510845659748862,601,1463510845647500771,,0.767879784107,-7.39238643646,-90.4037475586,0.0100589999929,1.0,0.0,0.0,0.0,1.0,0.0,0.0,0.0,1.0,3.29268312454,5.0,-1.09756100178,1.0,0.0,0.0,0.0,1.0,0.0,0.0,0.0,1.0,-1.54665427246,0.857124194336,-10.0412817627,1.0,0.0,0.0,0.0,1.0,0.0,0.0,0.0,1.0
1463510845659842346,602,1463510845657645807,,0.755256891251,-7.33538293839,-90.4234466553,0.0101020000875,1.0,0.0,0.0,0.0,1.0,0.0,0.0,0.0,1.0,3.35365867615,4.63414621353,-1.52439022064,1.0,0.0,0.0,0.0,1.0,0.0,0.0,0.0,1.0,-1.50355864258,0.646434448242,-10.0748005859,1.0,0.0,0.0,0.0,1.0,0.0,0.0,0.0,1.0
1463510845671188198,603,1463510845667665226,,0.748889863491,-7.27579784393,-90.4457244873,0.0101209999993,1.0,0.0,0.0,0.0,1.0,0.0,0.0,0.0,1.0,3.96341490746,4.81707286835,-1.76829278469,1.0,0.0,0.0,0.0,1.0,0.0,0.0,0.0,1.0,-1.50355864258,0.660799658203,-10.2184526855,1.0,0.0,0.0,0.0,1.0,0.0,0.0,0.0,1.0
1463510846687310340,604,1463510845677852187,,0.745334744453,-7.22214889526,-90.4637680054,0.0100940000266,1.0,0.0,0.0,0.0,1.0,0.0,0.0,0.0,1.0,3.7804877758,3.96341490746,-1.2804877758,1.0,0.0,0.0,0.0,1.0,0.0,0.0,0.0,1.0,-1.43652099609,0.565031591797,-10.1945106689,1.0,0.0,0.0,0.0,1.0,0.0,0.0,0.0,1.0
1463510846687369608,605,1463510845688210752,,0.717402756214,-7.17819499969,-90.4760971069,0.0101190004498,1.0,0.0,0.0,0.0,1.0,0.0,0.0,0.0,1.0,2.56097555161,3.96341490746,-0.853658556938,1.0,0.0,0.0,0.0,1.0,0.0,0.0,0.0,1.0,-1.60890351563,0.775721337891,-10.2232410889,1.0,0.0,0.0,0.0,1.0,0.0,0.0,0.0,1.0
1463510846687466633,606,1463510845698206631,,0.703162670135,-7.13156652451,-90.4837722778,0.0100760003552,1.0,0.0,0.0,0.0,1.0,0.0,0.0,0.0,1.0,4.14634132385,4.51219558716,-0.426829278469,1.0,0.0,0.0,0.0,1.0,0.0,0.0,0.0,1.0,-1.62805712891,0.804451757813,-10.0939541992,1.0,0.0,0.0,0.0,1.0,0.0,0.0,0.0,1.0
1463510846692192038,607,1463510845708450932,,0.696755409241,-7.07835626602,-90.490234375,0.0101359998807,1.0,0.0,0.0,0.0,1.0,0.0,0.0,0.0,1.0,4.45121955872,5.30487823486,-0.243902444839,1.0,0.0,0.0,0.0,1.0,0.0,0.0,0.0,1.0,-1.64242233887,0.713472094727,-10.046070166,1.0,0.0,0.0,0.0,1.0,0.0,0.0,0.0,1.0
1463510846692268544,608,1463510845718575709,,0.697201728821,-7.02065706253,-90.4860992432,0.0100729996338,1.0,0.0,0.0,0.0,1.0,0.0,0.0,0.0,1.0,5.24390268326,5.97560977936,0.792682945728,1.0,0.0,0.0,0.0,1.0,0.0,0.0,0.0,1.0,-1.65678754883,0.708683691406,-9.99339772949,1.0,0.0,0.0,0.0,1.0,0.0,0.0,0.0,1.0
1463510846692581547,609,1463510845728602836,,0.703249335289,-6.95703125,-90.4764938354,0.0101070003584,1.0,0.0,0.0,0.0,1.0,0.0,0.0,0.0,1.0,6.21951246262,6.21951246262,1.2804877758,1.0,0.0,0.0,0.0,1.0,0.0,0.0,0.0,1.0,-1.6041151123,0.780509741211,-10.1035310059,1.0,0.0,0.0,0.0,1.0,0.0,0.0,0.0,1.0
1463510846694019172,610,1463510845738562987,,0.716540277004,-6.88621234894,-90.4558410645,0.0100720003247,1.0,0.0,0.0,0.0,1.0,0.0,0.0,0.0,1.0,7.98780536652,6.95121955872,2.25609779358,1.0,0.0,0.0,0.0,1.0,0.0,0.0,0.0,1.0,-1.59932670898,0.952892260742,-10.165780249,1.0,0.0,0.0,0.0,1.0,0.0,0.0,0.0,1.0
1463510846698202160,611,1463510845748611258,,0.751328229904,-6.81401824951,-90.4294662476,0.0101159997284,1.0,0.0,0.0,0.0,1.0,0.0,0.0,0.0,1.0,10.7317075729,6.95121955872,2.74390244484,1.0,0.0,0.0,0.0,1.0,0.0,0.0,0.0,1.0,-1.56580788574,1.0534486574,-10.165780249,1.0,0.0,0.0,0.0,1.0,0.0,0.0,0.0,1.0
1463510846698291425,612,1463510845759079818,,0.79756551981,-6.73348999023,-90.3869628906,0.0101250000298,1.0,0.0,0.0,0.0,1.0,0.0,0.0,0.0,1.0,12.8658542633,8.04878044128,4.20731735229,1.0,0.0,0.0,0.0,1.0,0.0,0.0,0.0,1.0,-1.60890351563,1.20667770978,-10.2184526855,1.0,0.0,0.0,0.0,1.0,0.0,0.0,0.0,1.0
1463510846698338402,613,1463510845768960859,,0.881505012512,-6.64733839035,-90.3371734619,0.0100929997861,1.0,0.0,0.0,0.0,1.0,0.0,0.0,0.0,1.0,17.6219520569,8.78048801422,4.81707286835,1.0,0.0,0.0,0.0,1.0,0.0,0.0,0.0,1.0,-1.62805712891,1.37906015625,-10.2711251221,1.0,0.0,0.0,0.0,1.0,0.0,0.0,0.0,1.0
1463510846698394597,614,1463510845779207400,,1.01134085655,-6.55919837952,-90.2769470215,0.0101100001484,1.0,0.0,0.0,0.0,1.0,0.0,0.0,0.0,1.0,23.4146347046,10.0,5.67073154449,1.0,0.0,0.0,0.0,1.0,0.0,0.0,0.0,1.0,-1.80043964844,1.58496149902,-10.2519715088,1.0,0.0,0.0,0.0,1.0,0.0,0.0,0.0,1.0
1463510846698447823,615,1463510845788923920,,1.19641721249,-6.44930124283,-90.2065658569,0.0100929997861,1.0,0.0,0.0,0.0,1.0,0.0,0.0,0.0,1.0,29.5121974945,10.9146347046,6.58536624908,1.0,0.0,0.0,0.0,1.0,0.0,0.0,0.0,1.0,-1.52750065918,1.63284553223,-10.1562034424,1.0,0.0,0.0,0.0,1.0,0.0,0.0,0.0,1.0
1463510846698488654,616,1463510845799037395,,1.44570374489,-6.32703208923,-90.1250610352,0.0100720003247,1.0,0.0,0.0,0.0,1.0,0.0,0.0,0.0,1.0,35.8536605835,11.0975618362,7.68292665482,1.0,0.0,0.0,0.0,1.0,0.0,0.0,0.0,1.0,-1.30723410645,1.56580788574,-10.2088758789,1.0,0.0,0.0,0.0,1.0,0.0,0.0,0.0,1.0
1463510846698540890,617,1463510845809185817,,1.77138435841,-6.20346546173,-90.0286254883,0.0101140001789,1.0,0.0,0.0,0.0,1.0,0.0,0.0,0.0,1.0,41.2195129395,10.7926826477,9.32926845551,1.0,0.0,0.0,0.0,1.0,0.0,0.0,0.0,1.0,-1.20667770978,1.10612116699,-10.2711251221,1.0,0.0,0.0,0.0,1.0,0.0,0.0,0.0,1.0
1463510846698594325,618,1463510845819610473,,2.13732814789,-6.09769058228,-89.9131393433,0.0101129999384,1.0,0.0,0.0,0.0,1.0,0.0,0.0,0.0,1.0,44.9390258789,10.0,11.2195119858,1.0,0.0,0.0,0.0,1.0,0.0,0.0,0.0,1.0,-1.33117612305,0.957680664062,-10.1992990723,1.0,0.0,0.0,0.0,1.0,0.0,0.0,0.0,1.0
1463510846699820920,619,1463510845829402509,,2.52864384651,-5.98725652695,-89.7793960571,0.0100710000843,1.0,0.0,0.0,0.0,1.0,0.0,0.0,0.0,1.0,48.4146347046,10.1829271317,12.9268293381,1.0,0.0,0.0,0.0,1.0,0.0,0.0,0.0,1.0,-1.25456166992,1.02950671387,-10.4387192383,1.0,0.0,0.0,0.0,1.0,0.0,0.0,0.0,1.0
1463510846699884094,620,1463510845839644362,,2.95789170265,-5.89795637131,-89.6268157959,0.0101079996675,1.0,0.0,0.0,0.0,1.0,0.0,0.0,0.0,1.0,52.9878044128,9.14634132385,14.6341466904,1.0,0.0,0.0,0.0,1.0,0.0,0.0,0.0,1.0,-1.38863696289,1.09654436035,-10.3046439453,1.0,0.0,0.0,0.0,1.0,0.0,0.0,0.0,1.0
1463510846699939455,621,1463510845849487229,,3.41067409515,-5.81638765335,-89.4639511108,0.0100899999961,1.0,0.0,0.0,0.0,1.0,0.0,0.0,0.0,1.0,58.8414649963,9.45121955872,15.2439022064,1.0,0.0,0.0,0.0,1.0,0.0,0.0,0.0,1.0,-1.52750065918,1.64721074219,-10.2136642822,1.0,0.0,0.0,0.0,1.0,0.0,0.0,0.0,1.0
1463510846699979401,622,1463510845859773559,,3.95365190506,-5.74280023575,-89.2905883789,0.0101319998503,1.0,0.0,0.0,0.0,1.0,0.0,0.0,0.0,1.0,67.7439041138,9.93902492523,16.0975608826,1.0,0.0,0.0,0.0,1.0,0.0,0.0,0.0,1.0,-1.70467158203,1.57538469238,-10.1178962158,1.0,0.0,0.0,0.0,1.0,0.0,0.0,0.0,1.0
1463510846700033356,623,1463510845869728086,,4.58015680313,-5.66729021072,-89.1059799194,0.0100880004466,1.0,0.0,0.0,0.0,1.0,0.0,0.0,0.0,1.0,74.4512252808,10.9146347046,17.317073822,1.0,0.0,0.0,0.0,1.0,0.0,0.0,0.0,1.0,-1.74297880859,1.09654436035,-9.90241806641,1.0,0.0,0.0,0.0,1.0,0.0,0.0,0.0,1.0
1463510846709330320,624,1463510845879865258,,5.25199460983,-5.57826137543,-88.9026947021,0.0100899999961,1.0,0.0,0.0,0.0,1.0,0.0,0.0,0.0,1.0,80.5487823486,12.1951217651,18.7804889679,1.0,0.0,0.0,0.0,1.0,0.0,0.0,0.0,1.0,-1.64242233887,1.24019645996,-9.81143840332,1.0,0.0,0.0,0.0,1.0,0.0,0.0,0.0,1.0
1463510846712103962,625,1463510845889934413,,6.00076055527,-5.48152494431,-88.6735687256,0.0101239997894,1.0,0.0,0.0,0.0,1.0,0.0,0.0,0.0,1.0,85.2439041138,12.2560977936,21.4024391174,1.0,0.0,0.0,0.0,1.0,0.0,0.0,0.0,1.0,-1.42694418945,0.598550451572,-9.86411083984,1.0,0.0,0.0,0.0,1.0,0.0,0.0,0.0,1.0
1463510846712214424,626,1463510845900292562,,6.76398181915,-5.38947963715,-88.4240188599,0.0101129999384,1.0,0.0,0.0,0.0,1.0,0.0,0.0,0.0,1.0,85.0,11.2195119858,23.5975627899,1.0,0.0,0.0,0.0,1.0,0.0,0.0,0.0,1.0,-1.22104284668,0.124498486328,-9.90720646973,1.0,0.0,0.0,0.0,1.0,0.0,0.0,0.0,1.0
1463510846712272546,627,1463510845910597277,,7.53189659119,-5.30765867233,-88.1328735352,0.0101450001821,1.0,0.0,0.0,0.0,1.0,0.0,0.0,0.0,1.0,84.2682952881,11.2195119858,27.6219520569,1.0,0.0,0.0,0.0,1.0,0.0,0.0,0.0,1.0,-1.2497732666,-0.239420166016,-9.94072529297,1.0,0.0,0.0,0.0,1.0,0.0,0.0,0.0,1.0
1463510846712338427,628,1463510845920553678,,8.26566123962,-5.24199676514,-87.8241271973,0.0100279999897,1.0,0.0,0.0,0.0,1.0,0.0,0.0,0.0,1.0,81.8902435303,9.63414573669,29.8170719147,1.0,0.0,0.0,0.0,1.0,0.0,0.0,0.0,1.0,-1.11090957031,-0.378283862305,-9.97424411621,1.0,0.0,0.0,0.0,1.0,0.0,0.0,0.0,1.0
1463510846712393841,629,1463510845930912296,,8.97941589355,-5.19139671326,-87.4859848022,0.0101349996403,1.0,0.0,0.0,0.0,1.0,0.0,0.0,0.0,1.0,81.9512176514,9.26829242706,32.134147644,1.0,0.0,0.0,0.0,1.0,0.0,0.0,0.0,1.0,-1.16358193377,-0.0383072265625,-9.86889924316,1.0,0.0,0.0,0.0,1.0,0.0,0.0,0.0,1.0
1463510846712451181,630,1463510845941046240,,9.69006443024,-5.17110681534,-87.1418457031,0.0100840004161,1.0,0.0,0.0,0.0,1.0,0.0,0.0,0.0,1.0,82.5609817505,8.84146404266,32.865852356,1.0,0.0,0.0,0.0,1.0,0.0,0.0,0.0,1.0,-1.49398183594,-0.0622492431641,-9.73003554687,1.0,0.0,0.0,0.0,1.0,0.0,0.0,0.0,1.0
1463510846712503522,631,1463510845951105656,,10.4139699936,-5.18201541901,-86.791229248,0.010095000267,1.0,0.0,0.0,0.0,1.0,0.0,0.0,0.0,1.0,87.0121994019,9.69512176514,32.9878044128,1.0,0.0,0.0,0.0,1.0,0.0,0.0,0.0,1.0,-2.06380183105,0.392649072266,-9.53371159526,1.0,0.0,0.0,0.0,1.0,0.0,0.0,0.0,1.0
1463510846712559769,632,1463510845961099139,,11.2258138657,-5.16723966599,-86.4487457275,0.0101100001484,1.0,0.0,0.0,0.0,1.0,0.0,0.0,0.0,1.0,93.1707382202,11.9512195587,31.8292694092,1.0,0.0,0.0,0.0,1.0,0.0,0.0,0.0,1.0,-1.98718737793,-0.148440512063,-9.60553764507,1.0,0.0,0.0,0.0,1.0,0.0,0.0,0.0,1.0
1463510846712606797,633,1463510845971267767,,12.0798053741,-5.12525033951,-86.0791549683,0.010098000057,1.0,0.0,0.0,0.0,1.0,0.0,0.0,0.0,1.0,95.1829223633,12.8658542633,34.5121955872,1.0,0.0,0.0,0.0,1.0,0.0,0.0,0.0,1.0,-1.4844050293,-0.727837304687,-9.5193463853,1.0,0.0,0.0,0.0,1.0,0.0,0.0,0.0,1.0
1463510846712645753,634,1463510845981199379,,12.937335968,-5.06039524078,-85.6898880005,0.010098000057,1.0,0.0,0.0,0.0,1.0,0.0,0.0,0.0,1.0,94.5121917725,13.4756097794,36.3414611816,1.0,0.0,0.0,0.0,1.0,0.0,0.0,0.0,1.0,-1.03908344744,-1.08217922346,-9.54807680523,1.0,0.0,0.0,0.0,1.0,0.0,0.0,0.0,1.0
1463510846715177534,635,1463510845991073545,,13.8139696121,-5.03319215775,-85.2825469971,0.0100880004466,1.0,0.0,0.0,0.0,1.0,0.0,0.0,0.0,1.0,94.3292694092,10.2439022064,39.0853652954,1.0,0.0,0.0,0.0,1.0,0.0,0.0,0.0,1.0,-0.957680664062,-1.67594116211,-9.82101520996,1.0,0.0,0.0,0.0,1.0,0.0,0.0,0.0,1.0
1463510846715278830,636,1463510846001538511,,14.685338974,-5.03350973129,-84.8580169678,0.010111999698,1.0,0.0,0.0,0.0,1.0,0.0,0.0,0.0,1.0,92.3780517578,9.39024448395,41.0365867615,1.0,0.0,0.0,0.0,1.0,0.0,0.0,0.0,1.0,-1.14442839355,-2.14999323695,-10.1609918457,1.0,0.0,0.0,0.0,1.0,0.0,0.0,0.0,1.0
1463510846715320755,637,1463510846011936711,,15.5176639557,-5.07702875137,-84.4318008423,0.0100889997557,1.0,0.0,0.0,0.0,1.0,0.0,0.0,0.0,1.0,90.6097564697,7.25609779358,41.7073173523,1.0,0.0,0.0,0.0,1.0,0.0,0.0,0.0,1.0,-1.35990654297,-1.89620771484,-9.84495722656,1.0,0.0,0.0,0.0,1.0,0.0,0.0,0.0,1.0
1463510846715383616,638,1463510846021834215,,16.3745994568,-5.12369585037,-84.0218505859,0.0101779997349,1.0,0.0,0.0,0.0,1.0,0.0,0.0,0.0,1.0,93.2317123413,8.23170757294,39.3292694092,1.0,0.0,0.0,0.0,1.0,0.0,0.0,0.0,1.0,-1.57538469238,-1.82917006836,-9.74918916016,1.0,0.0,0.0,0.0,1.0,0.0,0.0,0.0,1.0
1463510846715445644,639,1463510846032015659,,17.1727027893,-5.20380353928,-83.6170806885,0.0100349998102,1.0,0.0,0.0,0.0,1.0,0.0,0.0,0.0,1.0,93.4756088257,7.98780536652,39.0243911743,1.0,0.0,0.0,0.0,1.0,0.0,0.0,0.0,1.0,-2.04464821777,-1.09175595703,-9.78749638672,1.0,0.0,0.0,0.0,1.0,0.0,0.0,0.0,1.0
1463510846715519233,640,1463510846041623229,,17.9774608612,-5.28869485855,-83.1706619263,0.0100790001452,1.0,0.0,0.0,0.0,1.0,0.0,0.0,0.0,1.0,94.8170700073,9.87804889679,42.5,1.0,0.0,0.0,0.0,1.0,0.0,0.0,0.0,1.0,-2.14999323695,-1.10133276367,-9.67736311035,1.0,0.0,0.0,0.0,1.0,0.0,0.0,0.0,1.0
1463510846715588813,641,1463510846052148767,,18.8364009857,-5.32905483246,-82.7184066772,0.010440999642,1.0,0.0,0.0,0.0,1.0,0.0,0.0,0.0,1.0,88.841468811,10.8536586761,41.9512214661,1.0,0.0,0.0,0.0,1.0,0.0,0.0,0.0,1.0,-1.52271225586,-2.8299463623,-9.82101520996,1.0,0.0,0.0,0.0,1.0,0.0,0.0,0.0,1.0
1463510846715649174,642,1463510846062244383,,19.6070270538,-5.3392496109,-82.2951583862,0.00985800009221,1.0,0.0,0.0,0.0,1.0,0.0,0.0,0.0,1.0,82.6219482422,9.39024448395,42.2560958862,1.0,0.0,0.0,0.0,1.0,0.0,0.0,0.0,1.0,-0.641646044922,-3.39018955078,-9.79228479004,1.0,0.0,0.0,0.0,1.0,0.0,0.0,0.0,1.0
1463510846715709535,643,1463510846072120063,,20.3454017639,-5.38579273224,-81.8707351685,0.0100609995425,1.0,0.0,0.0,0.0,1.0,0.0,0.0,0.0,1.0,73.5975646973,5.79268312454,43.2317085266,1.0,0.0,0.0,0.0,1.0,0.0,0.0,0.0,1.0,-0.526724328702,-4.3239284905,-9.65342167827,1.0,0.0,0.0,0.0,1.0,0.0,0.0,0.0,1.0
1463510846715818851,644,1463510846081874448,,20.9627094269,-5.47210979462,-81.4587097168,0.0100600002334,1.0,0.0,0.0,0.0,1.0,0.0,0.0,0.0,1.0,63.4146385193,3.71951246262,42.6219520569,1.0,0.0,0.0,0.0,1.0,0.0,0.0,0.0,1.0,-0.837970581055,-4.0078935791,-9.47624958638,1.0,0.0,0.0,0.0,1.0,0.0,0.0,0.0,1.0
1463510846715859474,645,1463510846092145157,,21.5122051239,-5.60311460495,-81.0459213257,0.010169999674,1.0,0.0,0.0,0.0,1.0,0.0,0.0,0.0,1.0,55.9146347046,1.15853655338,43.3536567688,1.0,0.0,0.0,0.0,1.0,0.0,0.0,0.0,1.0,-1.14442839355,-4.39575424805,-9.98382092285,1.0,0.0,0.0,0.0,1.0,0.0,0.0,0.0,1.0
1463510846715897753,646,1463510846102377900,,21.943441391,-5.74804592133,-80.6424331665,0.0100339995697,1.0,0.0,0.0,0.0,1.0,0.0,0.0,0.0,1.0,47.9268302917,0.243902444839,43.1097564697,1.0,0.0,0.0,0.0,1.0,0.0,0.0,0.0,1.0,-1.14921679688,-3.6056677002,-9.27513723145,1.0,0.0,0.0,0.0,1.0,0.0,0.0,0.0,1.0
1463510846717142994,647,1463510846112732511,,22.3462162018,-5.93632507324,-80.2557525635,0.0101659996435,1.0,0.0,0.0,0.0,1.0,0.0,0.0,0.0,1.0,48.0487823486,-1.70731711388,41.2804908752,1.0,0.0,0.0,0.0,1.0,0.0,0.0,0.0,1.0,-1.64721074219,-3.064578125,-9.44273076313,1.0,0.0,0.0,0.0,1.0,0.0,0.0,0.0,1.0
1463510846717215958,648,1463510846122568245,,22.7538661957,-6.11398983002,-79.915145874,0.010048000142,1.0,0.0,0.0,0.0,1.0,0.0,0.0,0.0,1.0,49.1463432312,-1.46341466904,36.7682952881,1.0,0.0,0.0,0.0,1.0,0.0,0.0,0.0,1.0,-1.84353527832,-3.064578125,-9.49061596538,1.0,0.0,0.0,0.0,1.0,0.0,0.0,0.0,1.0
1463510846717256477,649,1463510846132691723,,23.1849193573,-6.2568397522,-79.6128616333,0.0100990002975,1.0,0.0,0.0,0.0,1.0,0.0,0.0,0.0,1.0,48.9024391174,-1.8902438879,32.9878044128,1.0,0.0,0.0,0.0,1.0,0.0,0.0,0.0,1.0,-1.44130939941,-3.6056677002,-9.68693991699,1.0,0.0,0.0,0.0,1.0,0.0,0.0,0.0,1.0
1463510846718512081,650,1463510846142784006,,23.630651474,-6.38168430328,-79.3542175293,0.0100809996948,1.0,0.0,0.0,0.0,1.0,0.0,0.0,0.0,1.0,46.4634170532,-2.5,29.1463413239,1.0,0.0,0.0,0.0,1.0,0.0,0.0,0.0,1.0,-1.34554133301,-4.50588752441,-9.88326445312,1.0,0.0,0.0,0.0,1.0,0.0,0.0,0.0,1.0
1463510846718609472,651,1463510846152780824,,24.0047245026,-6.5064034462,-79.1288833618,0.0100940000266,1.0,0.0,0.0,0.0,1.0,0.0,0.0,0.0,1.0,40.3658561707,-3.96341490746,26.0975627899,1.0,0.0,0.0,0.0,1.0,0.0,0.0,0.0,1.0,-1.32159931641,-4.38138903809,-10.0556469727,1.0,0.0,0.0,0.0,1.0,0.0,0.0,0.0,1.0
1463510846718661656,652,1463510846162890970,,24.3503742218,-6.62061405182,-78.9449691772,0.0101429997012,1.0,0.0,0.0,0.0,1.0,0.0,0.0,0.0,1.0,36.8292694092,-4.2682929039,21.7682933807,1.0,0.0,0.0,0.0,1.0,0.0,0.0,0.0,1.0,-1.36469494629,-4.3622354248,-9.77791958008,1.0,0.0,0.0,0.0,1.0,0.0,0.0,0.0,1.0
1463510846718721861,653,1463510846173127202,,24.6676082611,-6.73402881622,-78.8126602173,0.0101169999689,1.0,0.0,0.0,0.0,1.0,0.0,0.0,0.0,1.0,32.9268302917,-5.73170757294,17.0731716156,1.0,0.0,0.0,0.0,1.0,0.0,0.0,0.0,1.0,-1.47003981934,-4.51067592773,-9.65821008159,1.0,0.0,0.0,0.0,1.0,0.0,0.0,0.0,1.0
1463510846718775139,654,1463510846183197038,,24.9377689362,-6.82498121262,-78.7130203247,0.0100689996034,1.0,0.0,0.0,0.0,1.0,0.0,0.0,0.0,1.0,27.1951236725,-6.0365858078,13.9024391174,1.0,0.0,0.0,0.0,1.0,0.0,0.0,0.0,1.0,-1.23540805664,-4.60165559082,-9.34217429341,1.0,0.0,0.0,0.0,1.0,0.0,0.0,0.0,1.0
1463510846718831021,655,1463510846193250208,,25.1489295959,-6.916888237,-78.6403961182,0.0101190004498,1.0,0.0,0.0,0.0,1.0,0.0,0.0,0.0,1.0,20.7926826477,-7.43902492523,11.6463422775,1.0,0.0,0.0,0.0,1.0,0.0,0.0,0.0,1.0,-1.1875240965,-4.63517441406,-9.24640681152,1.0,0.0,0.0,0.0,1.0,0.0,0.0,0.0,1.0
1463510846718869352,656,1463510846203393476,,25.3104362488,-7.00714874268,-78.6015853882,0.0100760003552,1.0,0.0,0.0,0.0,1.0,0.0,0.0,0.0,1.0,15.3658533096,-8.04878044128,8.35365867615,1.0,0.0,0.0,0.0,1.0,0.0,0.0,0.0,1.0,-1.34075292969,-4.72136538157,-9.25119521484,1.0,0.0,0.0,0.0,1.0,0.0,0.0,0.0,1.0
1463510846730505295,657,1463510846213419981,,25.4002628326,-7.09009170532,-78.5925827026,0.0100870002061,1.0,0.0,0.0,0.0,1.0,0.0,0.0,0.0,1.0,9.32926845551,-8.96341514587,5.36585378647,1.0,0.0,0.0,0.0,1.0,0.0,0.0,0.0,1.0,-1.30723410645,-4.51546433105,-9.37569311665,1.0,0.0,0.0,0.0,1.0,0.0,0.0,0.0,1.0
1463510846730654870,658,1463510846223479713,,25.4477291107,-7.17020177841,-78.6148910522,0.0101520000026,1.0,0.0,0.0,0.0,1.0,0.0,0.0,0.0,1.0,5.42682933807,-10.2439022064,2.5,1.0,0.0,0.0,0.0,1.0,0.0,0.0,0.0,1.0,-1.2737152832,-4.40533105469,-9.41400034321,1.0,0.0,0.0,0.0,1.0,0.0,0.0,0.0,1.0
1463510846730718773,659,1463510846233672406,,25.4604282379,-7.2457151413,-78.6689834595,0.0100739998743,1.0,0.0,0.0,0.0,1.0,0.0,0.0,0.0,1.0,2.62195134163,-10.548781395,-0.975609779358,1.0,0.0,0.0,0.0,1.0,0.0,0.0,0.0,1.0,-1.44130939941,-4.23773664622,-9.48103915874,1.0,0.0,0.0,0.0,1.0,0.0,0.0,0.0,1.0
1463510846730759395,660,1463510846243595375,,25.4424610138,-7.31210708618,-78.7513122559,0.010111999698,1.0,0.0,0.0,0.0,1.0,0.0,0.0,0.0,1.0,-0.487804889679,-10.4878053665,-4.08536577225,1.0,0.0,0.0,0.0,1.0,0.0,0.0,0.0,1.0,-1.56101948242,-4.24252563406,-9.61990285503,1.0,0.0,0.0,0.0,1.0,0.0,0.0,0.0,1.0
1463510846730797831,661,1463510846253835565,,25.4082355499,-7.36761236191,-78.8615264893,0.0101140001789,1.0,0.0,0.0,0.0,1.0,0.0,0.0,0.0,1.0,-2.5,-10.3048782349,-7.19512224197,1.0,0.0,0.0,0.0,1.0,0.0,0.0,0.0,1.0,-1.61848032227,-4.15633378977,-9.41400034321,1.0,0.0,0.0,0.0,1.0,0.0,0.0,0.0,1.0
1463510846730853869,662,1463510846263632708,,25.3645877838,-7.40665435791,-78.9931335449,0.0100549999624,1.0,0.0,0.0,0.0,1.0,0.0,0.0,0.0,1.0,-4.57317066193,-10.3658542633,-9.45121955872,1.0,0.0,0.0,0.0,1.0,0.0,0.0,0.0,1.0,-1.51313544922,-4.32871689382,-9.43794235981,1.0,0.0,0.0,0.0,1.0,0.0,0.0,0.0,1.0
1463510846730893867,663,1463510846273921281,,25.2983951569,-7.42579269409,-79.1433792114,0.0101169999689,1.0,0.0,0.0,0.0,1.0,0.0,0.0,0.0,1.0,-7.43902492523,-10.0609760284,-11.4634151459,1.0,0.0,0.0,0.0,1.0,0.0,0.0,0.0,1.0,-1.35511813965,-4.38138903809,-9.38048151997,1.0,0.0,0.0,0.0,1.0,0.0,0.0,0.0,1.0
1463510846730932250,664,1463510846283902528,,25.2049217224,-7.44043588638,-79.3099212646,0.010095000267,1.0,0.0,0.0,0.0,1.0,0.0,0.0,0.0,1.0,-10.2439022064,-10.1829271317,-13.2317075729,1.0,0.0,0.0,0.0,1.0,0.0,0.0,0.0,1.0,-1.41257897949,-4.41011945801,-9.52892319194,1.0,0.0,0.0,0.0,1.0,0.0,0.0,0.0,1.0
1463510846730968446,665,1463510846294118813,,25.0786075592,-7.45634365082,-79.4811935425,0.010095000267,1.0,0.0,0.0,0.0,1.0,0.0,0.0,0.0,1.0,-13.658536911,-9.69512176514,-13.9634151459,1.0,0.0,0.0,0.0,1.0,0.0,0.0,0.0,1.0,-1.5562310791,-4.35744702148,-9.41400034321,1.0,0.0,0.0,0.0,1.0,0.0,0.0,0.0,1.0
1463510846731007923,666,1463510846304057354,,24.9054832458,-7.46170473099,-79.6600799561,0.0101009998471,1.0,0.0,0.0,0.0,1.0,0.0,0.0,0.0,1.0,-16.4024391174,-9.5731716156,-15.1219511032,1.0,0.0,0.0,0.0,1.0,0.0,0.0,0.0,1.0,-1.4844050293,-4.04620080566,-9.68693991699,1.0,0.0,0.0,0.0,1.0,0.0,0.0,0.0,1.0
1463510846731048181,667,1463510846314340876,,24.7134952545,-7.46296882629,-79.8471298218,0.0100929997861,1.0,0.0,0.0,0.0,1.0,0.0,0.0,0.0,1.0,-17.7439022064,-10.0,-15.9146347046,1.0,0.0,0.0,0.0,1.0,0.0,0.0,0.0,1.0,-1.38863696289,-3.90733710937,-9.75397756348,1.0,0.0,0.0,0.0,1.0,0.0,0.0,0.0,1.0
1463510846731090470,668,1463510846324299207,,24.5133724213,-7.45100355148,-80.0460128784,0.0101260002702,1.0,0.0,0.0,0.0,1.0,0.0,0.0,0.0,1.0,-19.5121955872,-9.81707286835,-17.0731716156,1.0,0.0,0.0,0.0,1.0,0.0,0.0,0.0,1.0,-1.25935007324,-4.04620080566,-9.74440075684,1.0,0.0,0.0,0.0,1.0,0.0,0.0,0.0,1.0
1463510846731130364,669,1463510846334500597,,24.2924289703,-7.4501414299,-80.2440719604,0.0100880004466,1.0,0.0,0.0,0.0,1.0,0.0,0.0,0.0,1.0,-23.1707324982,-10.1219511032,-16.7073173523,1.0,0.0,0.0,0.0,1.0,0.0,0.0,0.0,1.0,-1.35032973633,-4.21379462961,-9.50498117534,1.0,0.0,0.0,0.0,1.0,0.0,0.0,0.0,1.0
1463510846731233483,670,1463510846344497781,,24.0231704712,-7.43639612198,-80.4371109009,0.0100969998166,1.0,0.0,0.0,0.0,1.0,0.0,0.0,0.0,1.0,-27.8658542633,-9.81707286835,-16.2804889679,1.0,0.0,0.0,0.0,1.0,0.0,0.0,0.0,1.0,-1.14442839355,-4.28083286062,-9.7587659668,1.0,0.0,0.0,0.0,1.0,0.0,0.0,0.0,1.0
1463510846731281240,671,1463510846354621520,,23.6885032654,-7.44153118134,-80.6236343384,0.0100999996066,1.0,0.0,0.0,0.0,1.0,0.0,0.0,0.0,1.0,-32.9268302917,-10.1829271317,-15.6097564697,1.0,0.0,0.0,0.0,1.0,0.0,0.0,0.0,1.0,-1.35032973633,-3.96479794922,-9.78749638672,1.0,0.0,0.0,0.0,1.0,0.0,0.0,0.0,1.0
1463510846731320821,672,1463510846364641827,,23.3147411346,-7.45226478577,-80.8079833984,0.0101049998775,1.0,0.0,0.0,0.0,1.0,0.0,0.0,0.0,1.0,-37.4390220642,-10.6707315445,-15.0609760284,1.0,0.0,0.0,0.0,1.0,0.0,0.0,0.0,1.0,-1.30723410645,-4.02225878906,-9.74918916016,1.0,0.0,0.0,0.0,1.0,0.0,0.0,0.0,1.0
1463510846731358684,673,1463510846374763743,,22.8879623413,-7.46804618835,-80.9837112427,0.0101100001484,1.0,0.0,0.0,0.0,1.0,0.0,0.0,0.0,1.0,-43.7195129395,-10.0,-14.2682924271,1.0,0.0,0.0,0.0,1.0,0.0,0.0,0.0,1.0,-1.45567460937,-4.21379462961,-9.81622680664,1.0,0.0,0.0,0.0,1.0,0.0,0.0,0.0,1.0
1463510846731394098,674,1463510846384847536,,22.391740799,-7.48308372498,-81.1454391479,0.0100880004466,1.0,0.0,0.0,0.0,1.0,0.0,0.0,0.0,1.0,-51.6463432312,-9.39024448395,-12.9268293381,1.0,0.0,0.0,0.0,1.0,0.0,0.0,0.0,1.0,-1.45567460937,-4.42448466797,-9.95987890625,1.0,0.0,0.0,0.0,1.0,0.0,0.0,0.0,1.0
1463510846736614839,675,1463510846394981482,,21.790348053,-7.50220346451,-81.291847229,0.0101150004193,1.0,0.0,0.0,0.0,1.0,0.0,0.0,0.0,1.0,-60.6097564697,-9.02439117432,-11.5853662491,1.0,0.0,0.0,0.0,1.0,0.0,0.0,0.0,1.0,-1.40300217285,-3.9360675293,-9.59117243511,1.0,0.0,0.0,0.0,1.0,0.0,0.0,0.0,1.0
1463510846736852533,676,1463510846405134802,,21.1171474457,-7.52494573593,-81.4328842163,0.0101180002093,1.0,0.0,0.0,0.0,1.0,0.0,0.0,0.0,1.0,-67.5609741211,-8.90243911743,-11.0975618362,1.0,0.0,0.0,0.0,1.0,0.0,0.0,0.0,1.0,-1.45567460937,-3.88818349609,-9.80186159668,1.0,0.0,0.0,0.0,1.0,0.0,0.0,0.0,1.0
1463510846736902322,677,1463510846415299789,,20.3761444092,-7.54852581024,-81.5650634766,0.0100750001147,1.0,0.0,0.0,0.0,1.0,0.0,0.0,0.0,1.0,-74.2073135376,-9.02439117432,-10.2439022064,1.0,0.0,0.0,0.0,1.0,0.0,0.0,0.0,1.0,-1.34554133301,-3.66791694336,-9.71567033691,1.0,0.0,0.0,0.0,1.0,0.0,0.0,0.0,1.0
1463510846736945340,678,1463510846425234840,,19.5609321594,-7.5760846138,-81.7024765015,0.0101150004193,1.0,0.0,0.0,0.0,1.0,0.0,0.0,0.0,1.0,-80.6707382202,-9.39024448395,-10.7317075729,1.0,0.0,0.0,0.0,1.0,0.0,0.0,0.0,1.0,-1.37906015625,-3.48595761719,-9.97424411621,1.0,0.0,0.0,0.0,1.0,0.0,0.0,0.0,1.0
1463510846736981276,679,1463510846435259835,,18.6881961823,-7.61535453796,-81.8411102295,0.0100729996338,1.0,0.0,0.0,0.0,1.0,0.0,0.0,0.0,1.0,-87.9268341064,-9.93902492523,-10.6097564697,1.0,0.0,0.0,0.0,1.0,0.0,0.0,0.0,1.0,-1.46525141602,-3.55778366699,-9.96466730957,1.0,0.0,0.0,0.0,1.0,0.0,0.0,0.0,1.0
1463510846737034502,680,1463510846445528096,,17.7345695496,-7.66067695618,-81.9881134033,0.0101180002093,1.0,0.0,0.0,0.0,1.0,0.0,0.0,0.0,1.0,-96.5243911743,-8.71951198578,-11.7682924271,1.0,0.0,0.0,0.0,1.0,0.0,0.0,0.0,1.0,-1.8626888916,-3.62003291016,-10.1274730225,1.0,0.0,0.0,0.0,1.0,0.0,0.0,0.0,1.0
1463510846737076583,681,1463510846455587672,,16.6971492767,-7.68932771683,-82.1323013306,0.0100910002366,1.0,0.0,0.0,0.0,1.0,0.0,0.0,0.0,1.0,-104.695129395,-7.80487823486,-11.8902444839,1.0,0.0,0.0,0.0,1.0,0.0,0.0,0.0,1.0,-1.61369191895,-3.24653745117,-9.80186159668,1.0,0.0,0.0,0.0,1.0,0.0,0.0,0.0,1.0
1463510846737115643,682,1463510846465967854,,15.555346489,-7.69516277313,-82.2792510986,0.0101239997894,1.0,0.0,0.0,0.0,1.0,0.0,0.0,0.0,1.0,-111.829269409,-6.52439069748,-12.9268293381,1.0,0.0,0.0,0.0,1.0,0.0,0.0,0.0,1.0,-1.40300217285,-2.50433493652,-9.81622680664,1.0,0.0,0.0,0.0,1.0,0.0,0.0,0.0,1.0
1463510846737155016,683,1463510846476389700,,14.3996801376,-7.70832967758,-82.4576873779,0.0101070003584,1.0,0.0,0.0,0.0,1.0,0.0,0.0,0.0,1.0,-115.060974121,-6.58536624908,-15.975610733,1.0,0.0,0.0,0.0,1.0,0.0,0.0,0.0,1.0,-1.58496149902,-2.4756045166,-9.61511445171,1.0,0.0,0.0,0.0,1.0,0.0,0.0,0.0,1.0
1463510846737195847,684,1463510846487226835,,13.1568136215,-7.72835969925,-82.6516723633,0.0101049998775,1.0,0.0,0.0,0.0,1.0,0.0,0.0,0.0,1.0,-122.195121765,-6.58536624908,-17.8048782349,1.0,0.0,0.0,0.0,1.0,0.0,0.0,0.0,1.0,-1.69030637207,-1.93930334473,-9.55765361187,1.0,0.0,0.0,0.0,1.0,0.0,0.0,0.0,1.0
1463510846737234595,685,1463510846496310061,,11.8873767853,-7.73761177063,-82.8524627686,0.0100659998134,1.0,0.0,0.0,0.0,1.0,0.0,0.0,0.0,1.0,-125.365852356,-5.12195110321,-18.9024391174,1.0,0.0,0.0,0.0,1.0,0.0,0.0,0.0,1.0,-1.73819040527,-1.73340200195,-9.67257470703,1.0,0.0,0.0,0.0,1.0,0.0,0.0,0.0,1.0
1463510846737272769,686,1463510846506507754,,10.5743246078,-7.74392557144,-83.0860214233,0.0101420003921,1.0,0.0,0.0,0.0,1.0,0.0,0.0,0.0,1.0,-130.60975647,-4.87804889679,-21.8292694092,1.0,0.0,0.0,0.0,1.0,0.0,0.0,0.0,1.0,-1.80522805176,-1.82917006836,-9.96466730957,1.0,0.0,0.0,0.0,1.0,0.0,0.0,0.0,1.0
1463510846737312559,687,1463510846518230359,,9.21905040741,-7.72542333603,-83.3438339233,0.0100940000266,1.0,0.0,0.0,0.0,1.0,0.0,0.0,0.0,1.0,-136.585372925,-2.07317066193,-24.6951236725,1.0,0.0,0.0,0.0,1.0,0.0,0.0,0.0,1.0,-1.85311208496,-1.74776721191,-9.96945571289,1.0,0.0,0.0,0.0,1.0,0.0,0.0,0.0,1.0
1463510846737351359,688,1463510846526948814,,7.80668878555,-7.70203781128,-83.6312637329,0.0100819999352,1.0,0.0,0.0,0.0,1.0,0.0,0.0,0.0,1.0,-142.804885864,-0.548780500889,-27.8048782349,1.0,0.0,0.0,0.0,1.0,0.0,0.0,0.0,1.0,-2.07816689489,-1.56101948242,-10.3477395752,1.0,0.0,0.0,0.0,1.0,0.0,0.0,0.0,1.0
1463510846737390992,689,1463510846537082760,,6.28606510162,-7.63058137894,-83.9571456909,0.0101739997044,1.0,0.0,0.0,0.0,1.0,0.0,0.0,0.0,1.0,-143.231719971,2.80487799644,-32.865852356,1.0,0.0,0.0,0.0,1.0,0.0,0.0,0.0,1.0,-1.75734401855,0.474051928711,-10.3812583984,1.0,0.0,0.0,0.0,1.0,0.0,0.0,0.0,1.0
1463510846737430469,690,1463510846547594289,,5.00335025787,-7.61184072495,-84.36277771,0.0100389998406,1.0,0.0,0.0,0.0,1.0,0.0,0.0,0.0,1.0,-142.073181152,2.56097555161,-38.3536567688,1.0,0.0,0.0,0.0,1.0,0.0,0.0,0.0,1.0,-2.71981308594,-3.00232888184,-10.3094323486,1.0,0.0,0.0,0.0,1.0,0.0,0.0,0.0,1.0
1463510846737467394,691,1463510846556746209,,3.51661014557,-7.52601909637,-84.7804794312,0.0101110003889,1.0,0.0,0.0,0.0,1.0,0.0,0.0,0.0,1.0,-153.536590576,8.29268264771,-40.5487823486,1.0,0.0,0.0,0.0,1.0,0.0,0.0,0.0,1.0,-2.32716386754,-1.19231249982,-10.3429511719,1.0,0.0,0.0,0.0,1.0,0.0,0.0,0.0,1.0
1463510846737509058,692,1463510846567722867,,1.96409451962,-7.42590999603,-85.2250442505,0.0100969998166,1.0,0.0,0.0,0.0,1.0,0.0,0.0,0.0,1.0,-158.109771729,10.7317075729,-43.3536567688,1.0,0.0,0.0,0.0,1.0,0.0,0.0,0.0,1.0,-2.46602770996,-0.488417138672,-11.0420580566,1.0,0.0,0.0,0.0,1.0,0.0,0.0,0.0,1.0
1463510846737545410,693,1463510846578073363,,0.408744782209,-7.28417158127,-85.7152404785,0.0100819999352,1.0,0.0,0.0,0.0,1.0,0.0,0.0,0.0,1.0,-161.707321167,15.1829271317,-47.2560958862,1.0,0.0,0.0,0.0,1.0,0.0,0.0,0.0,1.0,-2.15957004359,-0.670376464844,-10.4578728516,1.0,0.0,0.0,0.0,1.0,0.0,0.0,0.0,1.0
1463510846737584106,694,1463510846587080656,,-1.19660961628,-7.13650369644,-86.231803894,0.0101110003889,1.0,0.0,0.0,0.0,1.0,0.0,0.0,0.0,1.0,-165.487808228,15.8536596298,-49.3292694092,1.0,0.0,0.0,0.0,1.0,0.0,0.0,0.0,1.0,-1.81959326172,-0.201112939453,-10.0412817627,1.0,0.0,0.0,0.0,1.0,0.0,0.0,0.0,1.0
1463510846737726181,695,1463510846598342558,,-2.88727450371,-6.9702835083,-86.7612686157,0.0101150004193,1.0,0.0,0.0,0.0,1.0,0.0,0.0,0.0,1.0,-168.963424683,16.2804889679,-50.6707344055,1.0,0.0,0.0,0.0,1.0,0.0,0.0,0.0,1.0,-1.2497732666,0.957680664062,-9.89762966309,1.0,0.0,0.0,0.0,1.0,0.0,0.0,0.0,1.0
1463510846737848518,696,1463510846607588952,,-4.57834482193,-6.818816185,-87.2810897827,0.0100579997525,1.0,0.0,0.0,0.0,1.0,0.0,0.0,0.0,1.0,-169.268295288,15.7926826477,-49.634147644,1.0,0.0,0.0,0.0,1.0,0.0,0.0,0.0,1.0,-1.12527478027,1.34554133301,-9.96466730957,1.0,0.0,0.0,0.0,1.0,0.0,0.0,0.0,1.0
1463510846738039809,697,1463510846618163446,,-6.42939949036,-6.69514226913,-87.8359375,0.0109670003876,1.0,0.0,0.0,0.0,1.0,0.0,0.0,0.0,1.0,-167.439025879,15.2439022064,-48.4756126404,1.0,0.0,0.0,0.0,1.0,0.0,0.0,0.0,1.0,-1.40300217285,2.03507141113,-9.81622680664,1.0,0.0,0.0,0.0,1.0,0.0,0.0,0.0,1.0
1463510846738277451,698,1463510846628490037,,-7.92346477509,-6.60532951355,-88.3244247437,0.00925500039011,1.0,0.0,0.0,0.0,1.0,0.0,0.0,0.0,1.0,-158.048782349,15.3658533096,-50.5487785339,1.0,0.0,0.0,0.0,1.0,0.0,0.0,0.0,1.0,-1.44609780273,2.90177241211,-10.2328178955,1.0,0.0,0.0,0.0,1.0,0.0,0.0,0.0,1.0
1463510846738639097,699,1463510846638851106,,-9.42607021332,-6.50987482071,-88.8762969971,0.0101199997589,1.0,0.0,0.0,0.0,1.0,0.0,0.0,0.0,1.0,-144.695129395,14.9390249252,-52.134147644,1.0,0.0,0.0,0.0,1.0,0.0,0.0,0.0,1.0,-1.12527478027,3.3710359375,-10.4866032715,1.0,0.0,0.0,0.0,1.0,0.0,0.0,0.0,1.0
1463510846738704510,700,1463510846648245407,,-10.8174304962,-6.42511177063,-89.4298706055,0.0100819999352,1.0,0.0,0.0,0.0,1.0,0.0,0.0,0.0,1.0,-131.768295288,13.9024391174,-52.7439041138,1.0,0.0,0.0,0.0,1.0,0.0,0.0,0.0,1.0,-0.809240161133,4.12281525879,-10.3094323486,1.0,0.0,0.0,0.0,1.0,0.0,0.0,0.0,1.0
1463510846738743987,701,1463510846659060564,,-12.0428171158,-6.3789691925,-89.9652252197,0.0103669995442,1.0,0.0,0.0,0.0,1.0,0.0,0.0,0.0,1.0,-112.987808228,11.4634151459,-49.634147644,1.0,0.0,0.0,0.0,1.0,0.0,0.0,0.0,1.0,-0.981622680664,4.11802685547,-10.3573163818,1.0,0.0,0.0,0.0,1.0,0.0,0.0,0.0,1.0
1463510846738794348,702,1463510846668231337,,-13.0724115372,-6.34499263763,-90.4368743896,0.00985400006175,1.0,0.0,0.0,0.0,1.0,0.0,0.0,0.0,1.0,-99.5731735229,10.8536586761,-45.7926826477,1.0,0.0,0.0,0.0,1.0,0.0,0.0,0.0,1.0,-0.995987890625,4.10845004883,-10.1083194092,1.0,0.0,0.0,0.0,1.0,0.0,0.0,0.0,1.0
1463510846738849866,703,1463510846678448925,,-14.0310487747,-6.31280612946,-90.8755340576,0.0104270000011,1.0,0.0,0.0,0.0,1.0,0.0,0.0,0.0,1.0,-83.1097564697,10.2439022064,-40.3658561707,1.0,0.0,0.0,0.0,1.0,0.0,0.0,0.0,1.0,-1.01514150391,4.8793829834,-9.77313117676,1.0,0.0,0.0,0.0,1.0,0.0,0.0,0.0,1.0
1463510846738890124,704,1463510846687869162,,-14.7499341965,-6.2696352005,-91.2574615479,0.0097409998998,1.0,0.0,0.0,0.0,1.0,0.0,0.0,0.0,1.0,-66.5243911743,9.93902492523,-37.2560958862,1.0,0.0,0.0,0.0,1.0,0.0,0.0,0.0,1.0,-0.737414111328,4.76924999929,-10.0077629395,1.0,0.0,0.0,0.0,1.0,0.0,0.0,0.0,1.0
1463510846738928820,705,1463510846698377462,,-15.3283863068,-6.24571228027,-91.5940704346,0.0101049998775,1.0,0.0,0.0,0.0,1.0,0.0,0.0,0.0,1.0,-50.5487785339,7.68292665482,-31.6463413239,1.0,0.0,0.0,0.0,1.0,0.0,0.0,0.0,1.0,-0.857124194336,4.40054265137,-9.47624958638,1.0,0.0,0.0,0.0,1.0,0.0,0.0,0.0,1.0
1463510846740505031,706,1463510846708110494,,-15.7851018906,-6.2009396553,-91.8803100586,0.0101340003312,1.0,0.0,0.0,0.0,1.0,0.0,0.0,0.0,1.0,-37.7439041138,7.98780536652,-26.3414649963,1.0,0.0,0.0,0.0,1.0,0.0,0.0,0.0,1.0,-0.727837304687,4.46758029785,-9.35175110005,1.0,0.0,0.0,0.0,1.0,0.0,0.0,0.0,1.0
1463510847626971615,707,1463510846718582859,,-16.0870819092,-6.16198635101,-92.100944519,0.0100969998166,1.0,0.0,0.0,0.0,1.0,0.0,0.0,0.0,1.0,-25.2439041138,6.34146356583,-19.817073822,1.0,0.0,0.0,0.0,1.0,0.0,0.0,0.0,1.0,-0.833182177734,3.95522114258,-9.53849999858,1.0,0.0,0.0,0.0,1.0,0.0,0.0,0.0,1.0
1463510847628985145,708,1463510846729051734,,-16.2720375061,-6.11763572693,-92.2713317871,0.0101509997621,1.0,0.0,0.0,0.0,1.0,0.0,0.0,0.0,1.0,-15.548781395,6.40243911743,-14.2682924271,1.0,0.0,0.0,0.0,1.0,0.0,0.0,0.0,1.0,-1.00077629395,3.51947644043,-9.55765361187,1.0,0.0,0.0,0.0,1.0,0.0,0.0,0.0,1.0
1463510847629505375,709,1463510846738869188,,-16.3769721985,-6.06273794174,-92.3887863159,0.0100389998406,1.0,0.0,0.0,0.0,1.0,0.0,0.0,0.0,1.0,-7.62195110321,6.58536624908,-8.90243911743,1.0,0.0,0.0,0.0,1.0,0.0,0.0,0.0,1.0,-1.11569797363,3.55778366699,-9.77791958008,1.0,0.0,0.0,0.0,1.0,0.0,0.0,0.0,1.0
1463510847629847908,710,1463510846748972459,,-16.4041023254,-5.99377679825,-92.4722137451,0.0101079996675,1.0,0.0,0.0,0.0,1.0,0.0,0.0,0.0,1.0,-1.52439022064,7.13414621353,-4.93902444839,1.0,0.0,0.0,0.0,1.0,0.0,0.0,0.0,1.0,-1.12527478027,3.12203896484,-9.60553764507,1.0,0.0,0.0,0.0,1.0,0.0,0.0,0.0,1.0
1463510847631053099,711,1463510846759130310,,-16.4171161652,-5.91558218002,-92.5122375488,0.0100859999657,1.0,0.0,0.0,0.0,1.0,0.0,0.0,0.0,1.0,0.792682945728,7.56097555161,-0.426829278469,1.0,0.0,0.0,0.0,1.0,0.0,0.0,0.0,1.0,-1.23061965332,3.16034619141,-9.43794235981,1.0,0.0,0.0,0.0,1.0,0.0,0.0,0.0,1.0
1463510847632770136,712,1463510846769149732,,-16.4080944061,-5.82811403275,-92.5151977539,0.0101100001484,1.0,0.0,0.0,0.0,1.0,0.0,0.0,0.0,1.0,3.96341490746,7.50000047684,3.29268312454,1.0,0.0,0.0,0.0,1.0,0.0,0.0,0.0,1.0,-1.2737152832,3.3710359375,-9.71088193359,1.0,0.0,0.0,0.0,1.0,0.0,0.0,0.0,1.0
1463510847633110481,713,1463510846779453929,,-16.3493919373,-5.73116970062,-92.5125579834,0.0101830000058,1.0,0.0,0.0,0.0,1.0,0.0,0.0,0.0,1.0,6.28048801422,7.92682981491,4.2682929039,1.0,0.0,0.0,0.0,1.0,0.0,0.0,0.0,1.0,-1.23061965332,2.92571442871,-9.90241806641,1.0,0.0,0.0,0.0,1.0,0.0,0.0,0.0,1.0
1463510847633376716,714,1463510846789531837,,-16.2789936066,-5.65077257156,-92.5029220581,0.0101610003039,1.0,0.0,0.0,0.0,1.0,0.0,0.0,0.0,1.0,9.14634132385,7.98780536652,4.81707286835,1.0,0.0,0.0,0.0,1.0,0.0,0.0,0.0,1.0,-1.56580788574,3.23696064453,-9.91678327637,1.0,0.0,0.0,0.0,1.0,0.0,0.0,0.0,1.0
1463510847633650138,715,1463510846799725363,,-16.179983139,-5.56640100479,-92.4953994751,0.0100090000778,1.0,0.0,0.0,0.0,1.0,0.0,0.0,0.0,1.0,11.6463422775,9.81707286835,5.18292713165,1.0,0.0,0.0,0.0,1.0,0.0,0.0,0.0,1.0,-1.73819040527,3.03105930176,-9.58159562847,1.0,0.0,0.0,0.0,1.0,0.0,0.0,0.0,1.0
1463510847633907883,716,1463510846809820301,,-16.0725841522,-5.45002889633,-92.4827346802,0.0100549999624,1.0,0.0,0.0,0.0,1.0,0.0,0.0,0.0,1.0,11.5853662491,11.341463089,6.21951246262,1.0,0.0,0.0,0.0,1.0,0.0,0.0,0.0,1.0,-1.50355864258,2.92571442871,-9.85932243652,1.0,0.0,0.0,0.0,1.0,0.0,0.0,0.0,1.0
1463510847634214116,717,1463510846819479484,,-15.9653158188,-5.32020950317,-92.4710617065,0.0100849997252,1.0,0.0,0.0,0.0,1.0,0.0,0.0,0.0,1.0,11.5243911743,12.0121955872,6.28048801422,1.0,0.0,0.0,0.0,1.0,0.0,0.0,0.0,1.0,-1.35032973633,2.87783039551,-9.76834277344,1.0,0.0,0.0,0.0,1.0,0.0,0.0,0.0,1.0
1463510847634476965,718,1463510846829502759,,-15.8506641388,-5.1934928894,-92.4456939697,0.0101469997317,1.0,0.0,0.0,0.0,1.0,0.0,0.0,0.0,1.0,10.4268293381,11.9512195587,7.80487823486,1.0,0.0,0.0,0.0,1.0,0.0,0.0,0.0,1.0,-1.47003981934,2.54264216309,-9.91678327637,1.0,0.0,0.0,0.0,1.0,0.0,0.0,0.0,1.0
1463510847635288325,719,1463510846840435410,,-15.7761669159,-5.05984449387,-92.4249954224,0.0100659998134,1.0,0.0,0.0,0.0,1.0,0.0,0.0,0.0,1.0,8.65853691101,13.5365858078,7.56097555161,1.0,0.0,0.0,0.0,1.0,0.0,0.0,0.0,1.0,-1.55144267578,2.87304199219,-9.70130512695,1.0,0.0,0.0,0.0,1.0,0.0,0.0,0.0,1.0
1463510847637153322,720,1463510846850050063,,-15.7210769653,-4.91257619858,-92.3921432495,0.0101279998198,1.0,0.0,0.0,0.0,1.0,0.0,0.0,0.0,1.0,8.23170757294,13.4146347046,8.59756088257,1.0,0.0,0.0,0.0,1.0,0.0,0.0,0.0,1.0,-1.33596452637,3.13161577148,-9.70130512695,1.0,0.0,0.0,0.0,1.0,0.0,0.0,0.0,1.0
1463510847639553705,721,1463510846860397070,,-15.6427669525,-4.75374937057,-92.3607177734,0.010095000267,1.0,0.0,0.0,0.0,1.0,0.0,0.0,0.0,1.0,10.9146347046,13.4146347046,8.41463470459,1.0,0.0,0.0,0.0,1.0,0.0,0.0,0.0,1.0,-1.06781401349,3.14598098145,-9.55765361187,1.0,0.0,0.0,0.0,1.0,0.0,0.0,0.0,1.0
1463510847639914101,722,1463510846871037914,,-15.5316991806,-4.60172176361,-92.3189163208,0.0101789999753,1.0,0.0,0.0,0.0,1.0,0.0,0.0,0.0,1.0,14.1463422775,12.0121955872,9.02439117432,1.0,0.0,0.0,0.0,1.0,0.0,0.0,0.0,1.0,-0.967257470703,3.12682736816,-9.5432884019,1.0,0.0,0.0,0.0,1.0,0.0,0.0,0.0,1.0
1463510847640273455,723,1463510846881208942,,-15.4072494507,-4.46674633026,-92.2617034912,0.00999400019646,1.0,0.0,0.0,0.0,1.0,0.0,0.0,0.0,1.0,17.0121955872,10.8536586761,10.2439022064,1.0,0.0,0.0,0.0,1.0,0.0,0.0,0.0,1.0,-1.06781401349,3.36145913086,-9.61990285503,1.0,0.0,0.0,0.0,1.0,0.0,0.0,0.0,1.0
1463510847640575990,724,1463510846890526425,,-15.2348213196,-4.32144832611,-92.1782455444,0.0102209998295,1.0,0.0,0.0,0.0,1.0,0.0,0.0,0.0,1.0,21.4024391174,10.1829271317,12.5609760284,1.0,0.0,0.0,0.0,1.0,0.0,0.0,0.0,1.0,-0.9193734375,3.35188232422,-9.77791958008,1.0,0.0,0.0,0.0,1.0,0.0,0.0,0.0,1.0
1463510847640904252,725,1463510846900605739,,-15.0355672836,-4.19051837921,-92.064704895,0.0100830001757,1.0,0.0,0.0,0.0,1.0,0.0,0.0,0.0,1.0,24.6341457367,8.04878044128,15.1219511032,1.0,0.0,0.0,0.0,1.0,0.0,0.0,0.0,1.0,-0.847547387695,3.2992098877,-9.64863327495,1.0,0.0,0.0,0.0,1.0,0.0,0.0,0.0,1.0
1463510847641221317,726,1463510846910277421,,-14.7889518738,-4.05557441711,-91.9217529297,0.00998399965465,1.0,0.0,0.0,0.0,1.0,0.0,0.0,0.0,1.0,28.7195110321,6.64634132385,17.9268302917,1.0,0.0,0.0,0.0,1.0,0.0,0.0,0.0,1.0,-0.60812722168,3.0885201416,-9.7348239502,1.0,0.0,0.0,0.0,1.0,0.0,0.0,0.0,1.0
1463510847643055639,727,1463510846922362140,,-14.4977703094,-3.9332780838,-91.7288818359,0.0101300003007,1.0,0.0,0.0,0.0,1.0,0.0,0.0,0.0,1.0,32.9878044128,4.57317066193,22.1951236725,1.0,0.0,0.0,0.0,1.0,0.0,0.0,0.0,1.0,-0.665588061523,3.03105930176,-9.74440075684,1.0,0.0,0.0,0.0,1.0,0.0,0.0,0.0,1.0
1463510847643998241,728,1463510846930709887,,-14.1767787933,-3.82808685303,-91.5037460327,0.0100999996066,1.0,0.0,0.0,0.0,1.0,0.0,0.0,0.0,1.0,35.7926826477,3.53658556938,25.2439041138,1.0,0.0,0.0,0.0,1.0,0.0,0.0,0.0,1.0,-0.885854614258,2.92571442871,-9.83538041992,1.0,0.0,0.0,0.0,1.0,0.0,0.0,0.0,1.0
1463510847644594093,729,1463510846941941270,,-13.8216543198,-3.73346018791,-91.2446899414,0.0100969998166,1.0,0.0,0.0,0.0,1.0,0.0,0.0,0.0,1.0,40.0,3.53658556938,28.5975608826,1.0,0.0,0.0,0.0,1.0,0.0,0.0,0.0,1.0,-1.17315874041,2.95923325195,-9.74440075684,1.0,0.0,0.0,0.0,1.0,0.0,0.0,0.0,1.0
1463510847644938865,730,1463510846951216308,,-13.4422807693,-3.62269496918,-90.962020874,0.0100919995457,1.0,0.0,0.0,0.0,1.0,0.0,0.0,0.0,1.0,42.317073822,4.39024400711,31.158536911,1.0,0.0,0.0,0.0,1.0,0.0,0.0,0.0,1.0,-1.07260241682,2.80121594238,-9.56723041851,1.0,0.0,0.0,0.0,1.0,0.0,0.0,0.0,1.0
1463510847645241555,731,1463510846961851736,,-13.0467700958,-3.50969386101,-90.6475143433,0.0101389996707,1.0,0.0,0.0,0.0,1.0,0.0,0.0,0.0,1.0,45.0609779358,4.93902444839,34.2073173523,1.0,0.0,0.0,0.0,1.0,0.0,0.0,0.0,1.0,-1.18273554705,2.87783039551,-9.31823227681,1.0,0.0,0.0,0.0,1.0,0.0,0.0,0.0,1.0
1463510847645706893,732,1463510846983025097,,-12.1264772415,-3.21329927444,-89.9067764282,0.0210059992969,1.0,0.0,0.0,0.0,1.0,0.0,0.0,0.0,1.0,46.8292694092,5.79268312454,38.7804870605,1.0,0.0,0.0,0.0,1.0,0.0,0.0,0.0,1.0,-0.895431420898,2.25533796387,-9.38048151997,1.0,0.0,0.0,0.0,1.0,0.0,0.0,0.0,1.0
1463510847647840208,733,1463510846985721973,,-11.9808149338,-3.16683578491,-89.7830200195,0.00340500008315,1.0,0.0,0.0,0.0,1.0,0.0,0.0,0.0,1.0,46.3414649963,6.34146356583,39.817073822,1.0,0.0,0.0,0.0,1.0,0.0,0.0,0.0,1.0,-0.995987890625,2.19787712402,-9.37569311665,1.0,0.0,0.0,0.0,1.0,0.0,0.0,0.0,1.0
1463510847649324863,734,1463510846991803497,,-11.7353248596,-3.090321064,-89.565322876,0.00586599996313,1.0,0.0,0.0,0.0,1.0,0.0,0.0,0.0,1.0,45.4878082275,6.09756088257,40.4878044128,1.0,0.0,0.0,0.0,1.0,0.0,0.0,0.0,1.0,-1.06781401349,2.2170307373,-9.50976957866,1.0,0.0,0.0,0.0,1.0,0.0,0.0,0.0,1.0
1463510847650401780,735,1463510847002948166,,-11.2999334335,-2.95598602295,-89.1940994263,0.0101079996675,1.0,0.0,0.0,0.0,1.0,0.0,0.0,0.0,1.0,44.4512176514,6.95121955872,40.3048782349,1.0,0.0,0.0,0.0,1.0,0.0,0.0,0.0,1.0,-1.10612116699,1.79565124512,-9.53849999858,1.0,0.0,0.0,0.0,1.0,0.0,0.0,0.0,1.0
1463510847651851593,736,1463510847013420949,,-10.8747997284,-2.82919716835,-88.8232116699,0.0104459999129,1.0,0.0,0.0,0.0,1.0,0.0,0.0,0.0,1.0,41.5853652954,7.86585378647,39.1463432312,1.0,0.0,0.0,0.0,1.0,0.0,0.0,0.0,1.0,-1.31681091309,1.61848032227,-9.30386706685,1.0,0.0,0.0,0.0,1.0,0.0,0.0,0.0,1.0
1463510847652174282,737,1463510847023537401,,-10.513710022,-2.69409871101,-88.486289978,0.00975000020117,1.0,0.0,0.0,0.0,1.0,0.0,0.0,0.0,1.0,37.3780517578,8.65853691101,38.2317085266,1.0,0.0,0.0,0.0,1.0,0.0,0.0,0.0,1.0,-1.0534486574,1.46525141602,-9.22725319824,1.0,0.0,0.0,0.0,1.0,0.0,0.0,0.0,1.0
1463510847652455673,738,1463510847032716354,,-10.1901760101,-2.55340385437,-88.1526565552,0.0100840004161,1.0,0.0,0.0,0.0,1.0,0.0,0.0,0.0,1.0,32.9268302917,8.90243911743,36.6463432312,1.0,0.0,0.0,0.0,1.0,0.0,0.0,0.0,1.0,-0.972045874023,1.51313544922,-9.21288798828,1.0,0.0,0.0,0.0,1.0,0.0,0.0,0.0,1.0
1463510847652838984,739,1463510847042345436,,-9.90550613403,-2.41528868675,-87.8293914795,0.0101020000875,1.0,0.0,0.0,0.0,1.0,0.0,0.0,0.0,1.0,28.2926845551,7.92682981491,35.3048782349,1.0,0.0,0.0,0.0,1.0,0.0,0.0,0.0,1.0,-0.77093293457,1.36948334961,-9.27992563477,1.0,0.0,0.0,0.0,1.0,0.0,0.0,0.0,1.0
1463510847653128082,740,1463510847052639533,,-9.70740604401,-2.27852630615,-87.5050888062,0.0103240003809,1.0,0.0,0.0,0.0,1.0,0.0,0.0,0.0,1.0,21.8902435303,7.50000047684,34.4512214661,1.0,0.0,0.0,0.0,1.0,0.0,0.0,0.0,1.0,-0.718260498047,1.80522805176,-9.42357714985,1.0,0.0,0.0,0.0,1.0,0.0,0.0,0.0,1.0
1463510847653428533,741,1463510847068853706,,-9.57298278809,-2.19069480896,-87.2233200073,0.00996800046414,1.0,0.0,0.0,0.0,1.0,0.0,0.0,0.0,1.0,17.2560977936,6.64634132385,31.0365867615,1.0,0.0,0.0,0.0,1.0,0.0,0.0,0.0,1.0,-1.24498486328,2.06380183105,-9.76834277344,1.0,0.0,0.0,0.0,1.0,0.0,0.0,0.0,1.0
1463510847653845489,742,1463510847072192369,,-9.37347984314,-2.07678771019,-86.9629364014,0.0102549996227,1.0,0.0,0.0,0.0,1.0,0.0,0.0,0.0,1.0,17.9268302917,6.28048801422,28.2317066193,1.0,0.0,0.0,0.0,1.0,0.0,0.0,0.0,1.0,-0.641646044922,1.11090957031,-9.65342167827,1.0,0.0,0.0,0.0,1.0,0.0,0.0,0.0,1.0
1463510847654678097,743,1463510847083570674,,-9.23869895935,-1.98884785175,-86.7423324585,0.00992199964821,1.0,0.0,0.0,0.0,1.0,0.0,0.0,0.0,1.0,15.7926826477,5.30487823486,24.6951236725,1.0,0.0,0.0,0.0,1.0,0.0,0.0,0.0,1.0,-0.723048901367,1.71903679199,-9.44273076313,1.0,0.0,0.0,0.0,1.0,0.0,0.0,0.0,1.0
1463510847655095365,744,1463510847093071639,,-9.1008644104,-1.91354870796,-86.5603027344,0.0100659998134,1.0,0.0,0.0,0.0,1.0,0.0,0.0,0.0,1.0,15.548781395,4.93902444839,20.4268302917,1.0,0.0,0.0,0.0,1.0,0.0,0.0,0.0,1.0,-0.76135612793,1.67594116211,-9.50498117534,1.0,0.0,0.0,0.0,1.0,0.0,0.0,0.0,1.0
1463510847655490446,745,1463510847103160226,,-8.94490718842,-1.85980200768,-86.401008606,0.0100940000266,1.0,0.0,0.0,0.0,1.0,0.0,0.0,0.0,1.0,15.4878053665,1.34146344662,17.5609760284,1.0,0.0,0.0,0.0,1.0,0.0,0.0,0.0,1.0,-0.416591088867,1.33596452637,-9.37090471333,1.0,0.0,0.0,0.0,1.0,0.0,0.0,0.0,1.0
1463510847655920682,746,1463510847113600981,,-8.85261154175,-1.81152391434,-86.2550888062,0.0101410001516,1.0,0.0,0.0,0.0,1.0,0.0,0.0,0.0,1.0,12.0731716156,0.914634168148,15.975610733,1.0,0.0,0.0,0.0,1.0,0.0,0.0,0.0,1.0,-0.392649072266,1.84353527832,-9.49061596538,1.0,0.0,0.0,0.0,1.0,0.0,0.0,0.0,1.0
1463510847658888220,747,1463510847123938304,,-8.75595474243,-1.7967518568,-86.1183319092,0.0101020000875,1.0,0.0,0.0,0.0,1.0,0.0,0.0,0.0,1.0,11.7073173523,-1.52439022064,14.7560987473,1.0,0.0,0.0,0.0,1.0,0.0,0.0,0.0,1.0,-0.512359155273,1.73340200195,-9.73961235352,1.0,0.0,0.0,0.0,1.0,0.0,0.0,0.0,1.0
1463510847659307623,748,1463510847133821331,,-8.68055438995,-1.80600357056,-85.996635437,0.0101439999416,1.0,0.0,0.0,0.0,1.0,0.0,0.0,0.0,1.0,11.0365858078,-2.98780488968,12.9268293381,1.0,0.0,0.0,0.0,1.0,0.0,0.0,0.0,1.0,-0.60812722168,1.93930334473,-9.50498117534,1.0,0.0,0.0,0.0,1.0,0.0,0.0,0.0,1.0
1463510847660331731,749,1463510847144066524,,-8.58656597137,-1.81305420399,-85.8975448608,0.0100189996883,1.0,0.0,0.0,0.0,1.0,0.0,0.0,0.0,1.0,11.6463422775,-3.29268312454,10.7926826477,1.0,0.0,0.0,0.0,1.0,0.0,0.0,0.0,1.0,-0.45968671875,1.69509477539,-9.4570959731,1.0,0.0,0.0,0.0,1.0,0.0,0.0,0.0,1.0
1463510847660675513,750,1463510847153397447,,-8.50370693207,-1.84495079517,-85.8093719482,0.010106000118,1.0,0.0,0.0,0.0,1.0,0.0,0.0,0.0,1.0,11.8902444839,-6.09756088257,9.14634132385,1.0,0.0,0.0,0.0,1.0,0.0,0.0,0.0,1.0,-0.368707055664,1.95845695801,-9.58638403179,1.0,0.0,0.0,0.0,1.0,0.0,0.0,0.0,1.0
1463510847660967267,751,1463510847164260781,,-8.41239070892,-1.89676129818,-85.7304000854,0.0101659996435,1.0,0.0,0.0,0.0,1.0,0.0,0.0,0.0,1.0,12.8658542633,-7.37804937363,7.98780536652,1.0,0.0,0.0,0.0,1.0,0.0,0.0,0.0,1.0,-0.469263525391,2.02549460449,-9.79707319336,1.0,0.0,0.0,0.0,1.0,0.0,0.0,0.0,1.0
1463510847661808781,752,1463510847173630243,,-8.30732059479,-1.96766090393,-85.6610565186,0.0100299995393,1.0,0.0,0.0,0.0,1.0,0.0,0.0,0.0,1.0,13.2926826477,-8.41463470459,7.01219511032,1.0,0.0,0.0,0.0,1.0,0.0,0.0,0.0,1.0,-0.627280834961,1.85311208496,-9.96945571289,1.0,0.0,0.0,0.0,1.0,0.0,0.0,0.0,1.0
1463510847662277452,753,1463510847183933142,,-8.20098304749,-2.05845189095,-85.6043701172,0.0102249998599,1.0,0.0,0.0,0.0,1.0,0.0,0.0,0.0,1.0,13.7195129395,-9.75609779358,5.42682933807,1.0,0.0,0.0,0.0,1.0,0.0,0.0,0.0,1.0,-0.679953271484,1.92014973145,-9.90241806641,1.0,0.0,0.0,0.0,1.0,0.0,0.0,0.0,1.0
1463510847663373171,754,1463510847197961347,,-8.03744888306,-2.19840502739,-85.5360565186,0.0141799999401,1.0,0.0,0.0,0.0,1.0,0.0,0.0,0.0,1.0,14.7560987473,-10.3048782349,4.63414621353,1.0,0.0,0.0,0.0,1.0,0.0,0.0,0.0,1.0,-0.732625708008,1.83395847168,-9.62469125835,1.0,0.0,0.0,0.0,1.0,0.0,0.0,0.0,1.0
1463510847665224575,755,1463510847203762368,,-7.97126865387,-2.25692534447,-85.5115203857,0.0058929999359,1.0,0.0,0.0,0.0,1.0,0.0,0.0,0.0,1.0,14.6951217651,-10.7926826477,3.90243911743,1.0,0.0,0.0,0.0,1.0,0.0,0.0,0.0,1.0,-0.675164868164,1.88184250488,-9.78749638672,1.0,0.0,0.0,0.0,1.0,0.0,0.0,0.0,1.0
1463510847665564816,756,1463510847214318428,,-7.8584356308,-2.36219406128,-85.4727401733,0.0103099998087,1.0,0.0,0.0,0.0,1.0,0.0,0.0,0.0,1.0,15.0000009537,-10.8536586761,3.47560977936,1.0,0.0,0.0,0.0,1.0,0.0,0.0,0.0,1.0,-0.713472094727,1.97761057129,-9.7827079834,1.0,0.0,0.0,0.0,1.0,0.0,0.0,0.0,1.0
1463510847665844383,757,1463510847224486491,,-7.7396235466,-2.47562241554,-85.4394454956,0.00990200042725,1.0,0.0,0.0,0.0,1.0,0.0,0.0,0.0,1.0,15.4878053665,-10.8536586761,3.10975623131,1.0,0.0,0.0,0.0,1.0,0.0,0.0,0.0,1.0,-0.957680664062,1.89141931152,-9.95987890625,1.0,0.0,0.0,0.0,1.0,0.0,0.0,0.0,1.0
1463510847666148480,758,1463510847234127187,,-7.62875938416,-2.58660507202,-85.4021453857,0.0101389996707,1.0,0.0,0.0,0.0,1.0,0.0,0.0,0.0,1.0,16.2195110321,-10.9146347046,3.35365867615,1.0,0.0,0.0,0.0,1.0,0.0,0.0,0.0,1.0,-0.890643017578,2.21224233398,-10.0317049561,1.0,0.0,0.0,0.0,1.0,0.0,0.0,0.0,1.0
1463510847669007899,759,1463510847244532111,,-7.49625730515,-2.68082547188,-85.3704452515,0.0100400000811,1.0,0.0,0.0,0.0,1.0,0.0,0.0,0.0,1.0,16.9512195587,-9.39024448395,3.10975623131,1.0,0.0,0.0,0.0,1.0,0.0,0.0,0.0,1.0,-0.876277807617,1.88184250488,-9.8784760498,1.0,0.0,0.0,0.0,1.0,0.0,0.0,0.0,1.0
1463510847669562138,760,1463510847255026092,,-7.35707330704,-2.77840089798,-85.3318023682,0.0101180002093,1.0,0.0,0.0,0.0,1.0,0.0,0.0,0.0,1.0,17.4390239716,-9.93902492523,3.71951246262,1.0,0.0,0.0,0.0,1.0,0.0,0.0,0.0,1.0,-0.852335791016,1.83395847168,-9.8545340332,1.0,0.0,0.0,0.0,1.0,0.0,0.0,0.0,1.0
1463510847670840555,761,1463510847264503412,,-7.23971271515,-2.87386846542,-85.2927017212,0.0101250000298,1.0,0.0,0.0,0.0,1.0,0.0,0.0,0.0,1.0,16.8902435303,-9.75609779358,3.71951246262,1.0,0.0,0.0,0.0,1.0,0.0,0.0,0.0,1.0,-0.861912597656,2.09253210485,-9.81143840332,1.0,0.0,0.0,0.0,1.0,0.0,0.0,0.0,1.0
1463510847672209382,762,1463510847274884795,,-7.10046291351,-2.97062182426,-85.2543106079,0.0100999996066,1.0,0.0,0.0,0.0,1.0,0.0,0.0,0.0,1.0,18.2317085266,-9.20731735229,3.7804877758,1.0,0.0,0.0,0.0,1.0,0.0,0.0,0.0,1.0,-1.03429511719,1.98239897461,-10.1514150391,1.0,0.0,0.0,0.0,1.0,0.0,0.0,0.0,1.0
1463510847672559779,763,1463510847285047545,,-6.93432378769,-3.06504368782,-85.2275238037,0.0100689996034,1.0,0.0,0.0,0.0,1.0,0.0,0.0,0.0,1.0,19.0243911743,-9.69512176514,2.68292689323,1.0,0.0,0.0,0.0,1.0,0.0,0.0,0.0,1.0,-0.881066210937,1.58496149902,-9.99818613281,1.0,0.0,0.0,0.0,1.0,0.0,0.0,0.0,1.0
1463510847672848408,764,1463510847294052237,,-6.80062007904,-3.15449404716,-85.2078781128,0.0100760003552,1.0,0.0,0.0,0.0,1.0,0.0,0.0,0.0,1.0,17.5000019073,-9.20731735229,1.95121955872,1.0,0.0,0.0,0.0,1.0,0.0,0.0,0.0,1.0,-0.881066210937,1.87226569824,-9.99339772949,1.0,0.0,0.0,0.0,1.0,0.0,0.0,0.0,1.0
1463510847673131309,765,1463510847304762039,,-6.6664223671,-3.25152993202,-85.1957321167,0.010169999674,1.0,0.0,0.0,0.0,1.0,0.0,0.0,0.0,1.0,17.5609760284,-9.51219558716,1.15853655338,1.0,0.0,0.0,0.0,1.0,0.0,0.0,0.0,1.0,-0.962469067383,1.91536132812,-10.180145459,1.0,0.0,0.0,0.0,1.0,0.0,0.0,0.0,1.0
1463510847673398272,766,1463510847314822815,,-6.52793645859,-3.34043598175,-85.1890792847,0.0100640002638,1.0,0.0,0.0,0.0,1.0,0.0,0.0,0.0,1.0,17.0731716156,-9.69512176514,0.670731723309,1.0,0.0,0.0,0.0,1.0,0.0,0.0,0.0,1.0,-0.794874951172,1.68072956543,-10.0700121826,1.0,0.0,0.0,0.0,1.0,0.0,0.0,0.0,1.0
1463510847673697786,767,1463510847325458923,,-6.40018033981,-3.43003201485,-85.1854095459,0.0101789999753,1.0,0.0,0.0,0.0,1.0,0.0,0.0,0.0,1.0,15.4268302917,-10.0609760284,0.365853667259,1.0,0.0,0.0,0.0,1.0,0.0,0.0,0.0,1.0,-0.732625708008,1.5801730957,-10.0795889893,1.0,0.0,0.0,0.0,1.0,0.0,0.0,0.0,1.0
1463510847673983499,768,1463510847335252684,,-6.29084682465,-3.53334355354,-85.1878433228,0.0100619997829,1.0,0.0,0.0,0.0,1.0,0.0,0.0,0.0,1.0,13.5975618362,-10.8536586761,-0.304878056049,1.0,0.0,0.0,0.0,1.0,0.0,0.0,0.0,1.0,-0.857124194336,1.53707746582,-10.0748005859,1.0,0.0,0.0,0.0,1.0,0.0,0.0,0.0,1.0
1463510847675146922,769,1463510847344873955,,-6.19964170456,-3.63256072998,-85.1940917969,0.0100440001115,1.0,0.0,0.0,0.0,1.0,0.0,0.0,0.0,1.0,12.2560977936,-11.0975618362,-0.731707334518,1.0,0.0,0.0,0.0,1.0,0.0,0.0,0.0,1.0,-0.756567724609,1.60890351563,-10.1131078125,1.0,0.0,0.0,0.0,1.0,0.0,0.0,0.0,1.0
1463510847675459040,770,1463510847354594699,,-6.12301492691,-3.73464608192,-85.2065200806,0.0101030003279,1.0,0.0,0.0,0.0,1.0,0.0,0.0,0.0,1.0,10.9756097794,-11.0365858078,-1.34146344662,1.0,0.0,0.0,0.0,1.0,0.0,0.0,0.0,1.0,-0.823605371094,1.65678754883,-10.2184526855,1.0,0.0,0.0,0.0,1.0,0.0,0.0,0.0,1.0
1463510847675761731,771,1463510847364902024,,-6.0545668602,-3.84804964066,-85.224105835,0.0101279998198,1.0,0.0,0.0,0.0,1.0,0.0,0.0,0.0,1.0,10.2439022064,-11.4024391174,-1.8902438879,1.0,0.0,0.0,0.0,1.0,0.0,0.0,0.0,1.0,-0.962469067383,1.66157595215,-10.180145459,1.0,0.0,0.0,0.0,1.0,0.0,0.0,0.0,1.0
1463510847676203528,772,1463510847375144873,,-5.98884010315,-3.95927906036,-85.2527618408,0.0100649995729,1.0,0.0,0.0,0.0,1.0,0.0,0.0,0.0,1.0,10.3658542633,-10.4878053665,-2.92682933807,1.0,0.0,0.0,0.0,1.0,0.0,0.0,0.0,1.0,-1.09175595703,1.70945998535,-10.060435376,1.0,0.0,0.0,0.0,1.0,0.0,0.0,0.0,1.0
1463510847679106851,773,1463510847385178412,,-5.92270898819,-4.06836223602,-85.2882614136,0.0101899998263,1.0,0.0,0.0,0.0,1.0,0.0,0.0,0.0,1.0,9.75609779358,-10.6097564697,-3.53658556938,1.0,0.0,0.0,0.0,1.0,0.0,0.0,0.0,1.0,-1.03429511719,1.63284553223,-10.2567599121,1.0,0.0,0.0,0.0,1.0,0.0,0.0,0.0,1.0
1463510847679439228,774,1463510847395317621,,-5.87259149551,-4.16369152069,-85.3261489868,0.0100720003247,1.0,0.0,0.0,0.0,1.0,0.0,0.0,0.0,1.0,8.78048801422,-10.4878053665,-3.84146332741,1.0,0.0,0.0,0.0,1.0,0.0,0.0,0.0,1.0,-0.833182177734,1.70467158203,-10.1322614258,1.0,0.0,0.0,0.0,1.0,0.0,0.0,0.0,1.0
1463510847681353909,775,1463510847405873109,,-5.82026195526,-4.26207590103,-85.3778152466,0.0100739998743,1.0,0.0,0.0,0.0,1.0,0.0,0.0,0.0,1.0,9.08536529541,-10.1219511032,-5.18292713165,1.0,0.0,0.0,0.0,1.0,0.0,0.0,0.0,1.0,-0.943315454102,1.72382519531,-10.0843773926,1.0,0.0,0.0,0.0,1.0,0.0,0.0,0.0,1.0
1463510847682794243,776,1463510847415479849,,-5.7696852684,-4.36758852005,-85.4375076294,0.0100830001757,1.0,0.0,0.0,0.0,1.0,0.0,0.0,0.0,1.0,8.90243911743,-10.1219511032,-5.97560977936,1.0,0.0,0.0,0.0,1.0,0.0,0.0,0.0,1.0,-1.07260241682,1.72382519531,-10.0652237793,1.0,0.0,0.0,0.0,1.0,0.0,0.0,0.0,1.0
1463510847683355201,777,1463510847425915761,,-5.71302223206,-4.46571063995,-85.5059661865,0.0101709999144,1.0,0.0,0.0,0.0,1.0,0.0,0.0,0.0,1.0,9.51219558716,-9.26829242706,-6.70731735229,1.0,0.0,0.0,0.0,1.0,0.0,0.0,0.0,1.0,-1.08217922346,1.73340200195,-10.0364933594,1.0,0.0,0.0,0.0,1.0,0.0,0.0,0.0,1.0
1463510847683646851,778,1463510847436529631,,-5.65941953659,-4.54496479034,-85.5736236572,0.0100330002606,1.0,0.0,0.0,0.0,1.0,0.0,0.0,0.0,1.0,9.75609779358,-8.17073154449,-6.64634132385,1.0,0.0,0.0,0.0,1.0,0.0,0.0,0.0,1.0,-0.995987890625,1.83395847168,-10.1609918457,1.0,0.0,0.0,0.0,1.0,0.0,0.0,0.0,1.0
1463510847683907096,779,1463510847446210689,,-5.59046983719,-4.61835479736,-85.6469268799,0.0101009998471,1.0,0.0,0.0,0.0,1.0,0.0,0.0,0.0,1.0,10.4268293381,-7.31707334518,-7.01219511032,1.0,0.0,0.0,0.0,1.0,0.0,0.0,0.0,1.0,-1.03908344744,1.67594116211,-10.1226846191,1.0,0.0,0.0,0.0,1.0,0.0,0.0,0.0,1.0
1463510847684497167,780,1463510847456187773,,-5.50914049149,-4.67842292786,-85.7246704102,0.0100999996066,1.0,0.0,0.0,0.0,1.0,0.0,0.0,0.0,1.0,11.0975618362,-6.40243911743,-7.31707334518,1.0,0.0,0.0,0.0,1.0,0.0,0.0,0.0,1.0,-0.962469067383,1.55144267578,-10.0125513428,1.0,0.0,0.0,0.0,1.0,0.0,0.0,0.0,1.0
1463510847685924428,781,1463510847465930287,,-5.44176340103,-4.73537635803,-85.799659729,0.0100999996066,1.0,0.0,0.0,0.0,1.0,0.0,0.0,0.0,1.0,10.7926826477,-6.46341466904,-7.13414621353,1.0,0.0,0.0,0.0,1.0,0.0,0.0,0.0,1.0,-0.91458503418,1.73340200195,-10.0269165527,1.0,0.0,0.0,0.0,1.0,0.0,0.0,0.0,1.0
1463510847686336592,782,1463510847475894298,,-5.36232328415,-4.78497171402,-85.8746185303,0.0101049998775,1.0,0.0,0.0,0.0,1.0,0.0,0.0,0.0,1.0,11.9512195587,-6.58536624908,-7.13414621353,1.0,0.0,0.0,0.0,1.0,0.0,0.0,0.0,1.0,-0.780509741211,1.73340200195,-10.1322614258,1.0,0.0,0.0,0.0,1.0,0.0,0.0,0.0,1.0
1463510847689490838,783,1463510847486938403,,-5.27565383911,-4.84980106354,-85.9529266357,0.010161999613,1.0,0.0,0.0,0.0,1.0,0.0,0.0,0.0,1.0,12.4390249252,-6.95121955872,-7.43902492523,1.0,0.0,0.0,0.0,1.0,0.0,0.0,0.0,1.0,-1.00077629395,1.71424838867,-10.2615483154,1.0,0.0,0.0,0.0,1.0,0.0,0.0,0.0,1.0
1463510847689786759,784,1463510847496649669,,-5.18131399155,-4.91179609299,-86.0310745239,0.0100549999624,1.0,0.0,0.0,0.0,1.0,0.0,0.0,0.0,1.0,13.4756097794,-6.7682929039,-7.50000047684,1.0,0.0,0.0,0.0,1.0,0.0,0.0,0.0,1.0,-0.995987890625,1.71424838867,-10.1370498291,1.0,0.0,0.0,0.0,1.0,0.0,0.0,0.0,1.0
1463510847690084658,785,1463510847507118912,,-5.08339691162,-4.97509002686,-86.1078643799,0.0101020000875,1.0,0.0,0.0,0.0,1.0,0.0,0.0,0.0,1.0,13.7195129395,-6.7682929039,-7.31707334518,1.0,0.0,0.0,0.0,1.0,0.0,0.0,0.0,1.0,-1.01992990723,1.66636435547,-10.0317049561,1.0,0.0,0.0,0.0,1.0,0.0,0.0,0.0,1.0
1463510847690470678,786,1463510847516547433,,-4.97808933258,-5.02691459656,-86.1813659668,0.0100729996338,1.0,0.0,0.0,0.0,1.0,0.0,0.0,0.0,1.0,13.658536911,-6.28048801422,-6.89024400711,1.0,0.0,0.0,0.0,1.0,0.0,0.0,0.0,1.0,-0.92416184082,1.49398183594,-10.0317049561,1.0,0.0,0.0,0.0,1.0,0.0,0.0,0.0,1.0
1463510847690762015,787,1463510847526954960,,-4.87230205536,-5.09247350693,-86.2484512329,0.0102620003745,1.0,0.0,0.0,0.0,1.0,0.0,0.0,0.0,1.0,13.1097564697,-7.13414621353,-6.15853643417,1.0,0.0,0.0,0.0,1.0,0.0,0.0,0.0,1.0,-1.02950671387,1.40779057617,-10.1514150391,1.0,0.0,0.0,0.0,1.0,0.0,0.0,0.0,1.0
1463510847691086788,788,1463510847536786375,,-4.77273368835,-5.16064500809,-86.3060531616,0.00996199995279,1.0,0.0,0.0,0.0,1.0,0.0,0.0,0.0,1.0,12.5,-7.13414621353,-5.36585378647,1.0,0.0,0.0,0.0,1.0,0.0,0.0,0.0,1.0,-1.14442839355,1.33117612305,-10.2088758789,1.0,0.0,0.0,0.0,1.0,0.0,0.0,0.0,1.0
1463510847691948926,789,1463510847547116407,,-4.68683338165,-5.23234939575,-86.3576507568,0.0101020000875,1.0,0.0,0.0,0.0,1.0,0.0,0.0,0.0,1.0,11.0975618362,-7.19512224197,-4.69512224197,1.0,0.0,0.0,0.0,1.0,0.0,0.0,0.0,1.0,-1.19710090314,1.31202250977,-10.1466266357,1.0,0.0,0.0,0.0,1.0,0.0,0.0,0.0,1.0
1463510847692850697,790,1463510847557081408,,-4.62002134323,-5.29660272598,-86.4013595581,0.0100809996948,1.0,0.0,0.0,0.0,1.0,0.0,0.0,0.0,1.0,10.1829271317,-6.70731735229,-3.96341490746,1.0,0.0,0.0,0.0,1.0,0.0,0.0,0.0,1.0,-1.16358193377,1.44130939941,-10.0029745361,1.0,0.0,0.0,0.0,1.0,0.0,0.0,0.0,1.0
1463510847693797935,791,1463510847567237960,,-4.55969572067,-5.35652828217,-86.4409790039,0.0101600000635,1.0,0.0,0.0,0.0,1.0,0.0,0.0,0.0,1.0,10.4268293381,-6.52439069748,-3.59756112099,1.0,0.0,0.0,0.0,1.0,0.0,0.0,0.0,1.0,-1.14442839355,1.61369191895,-10.1322614258,1.0,0.0,0.0,0.0,1.0,0.0,0.0,0.0,1.0
1463510847694133072,792,1463510847577214627,,-4.48954725266,-5.41647434235,-86.4847106934,0.0102549996227,1.0,0.0,0.0,0.0,1.0,0.0,0.0,0.0,1.0,11.0365858078,-6.89024400711,-3.96341490746,1.0,0.0,0.0,0.0,1.0,0.0,0.0,0.0,1.0,-1.05823706072,1.5322890625,-9.98382092285,1.0,0.0,0.0,0.0,1.0,0.0,0.0,0.0,1.0
1463510847694576692,793,1463510847587480757,,-4.40405654907,-5.48063659668,-86.5313720703,0.00994599983096,1.0,0.0,0.0,0.0,1.0,0.0,0.0,0.0,1.0,12.7439022064,-6.95121955872,-4.39024400711,1.0,0.0,0.0,0.0,1.0,0.0,0.0,0.0,1.0,-1.18273554705,1.54665427246,-10.1609918457,1.0,0.0,0.0,0.0,1.0,0.0,0.0,0.0,1.0
1463510847694916048,794,1463510847597647465,,-4.30714130402,-5.55632781982,-86.5753479004,0.0100790001452,1.0,0.0,0.0,0.0,1.0,0.0,0.0,0.0,1.0,13.841463089,-7.25609779358,-4.08536577225,1.0,0.0,0.0,0.0,1.0,0.0,0.0,0.0,1.0,-1.32638771973,1.52750065918,-10.0652237793,1.0,0.0,0.0,0.0,1.0,0.0,0.0,0.0,1.0
1463510847695251185,795,1463510847607602258,,-4.20075321198,-5.62629699707,-86.6184158325,0.0100680002943,1.0,0.0,0.0,0.0,1.0,0.0,0.0,0.0,1.0,15.0609760284,-6.46341466904,-3.96341490746,1.0,0.0,0.0,0.0,1.0,0.0,0.0,0.0,1.0,-1.41257897949,1.58974990234,-10.2615483154,1.0,0.0,0.0,0.0,1.0,0.0,0.0,0.0,1.0
1463510847696128322,796,1463510847618004004,,-4.06075906754,-5.68483781815,-86.6560821533,0.0100940000266,1.0,0.0,0.0,0.0,1.0,0.0,0.0,0.0,1.0,16.9512195587,-5.97560977936,-3.23170733452,1.0,0.0,0.0,0.0,1.0,0.0,0.0,0.0,1.0,-1.28329208984,1.26892687988,-10.0508585693,1.0,0.0,0.0,0.0,1.0,0.0,0.0,0.0,1.0
1463510847699198770,797,1463510847627475232,,-3.92338776588,-5.74522590637,-86.6858901978,0.0101290000603,1.0,0.0,0.0,0.0,1.0,0.0,0.0,0.0,1.0,16.7073173523,-5.97560977936,-2.43902444839,1.0,0.0,0.0,0.0,1.0,0.0,0.0,0.0,1.0,-1.31202250977,1.22104284668,-9.8784760498,1.0,0.0,0.0,0.0,1.0,0.0,0.0,0.0,1.0
1463510847699832901,798,1463510847637596474,,-3.80030083656,-5.80771064758,-86.7064743042,0.0100630000234,1.0,0.0,0.0,0.0,1.0,0.0,0.0,0.0,1.0,16.341463089,-6.21951246262,-1.64634156227,1.0,0.0,0.0,0.0,1.0,0.0,0.0,0.0,1.0,-1.31202250977,1.33117612305,-9.70130512695,1.0,0.0,0.0,0.0,1.0,0.0,0.0,0.0,1.0
1463510847700213348,799,1463510847648315962,,-3.66092300415,-5.86747121811,-86.7202682495,0.010111999698,1.0,0.0,0.0,0.0,1.0,0.0,0.0,0.0,1.0,17.1951217651,-6.70731735229,-0.914634168148,1.0,0.0,0.0,0.0,1.0,0.0,0.0,0.0,1.0,-1.20188930646,1.18273554705,-9.77791958008,1.0,0.0,0.0,0.0,1.0,0.0,0.0,0.0,1.0
1463510847700529111,800,1463510847658149460,,-3.52139115334,-5.93247032166,-86.7241744995,0.0101159997284,1.0,0.0,0.0,0.0,1.0,0.0,0.0,0.0,1.0,17.2560977936,-7.80487823486,-0.0,1.0,0.0,0.0,0.0,1.0,0.0,0.0,0.0,1.0,-1.11090957031,1.13963999023,-9.69172832031,1.0,0.0,0.0,0.0,1.0,0.0,0.0,0.0,1.0
1463510847700818834,801,1463510847668415954,,-3.38636851311,-6.00723409653,-86.721031189,0.0101039996371,1.0,0.0,0.0,0.0,1.0,0.0,0.0,0.0,1.0,18.1707305908,-8.17073154449,0.548780500889,1.0,0.0,0.0,0.0,1.0,0.0,0.0,0.0,1.0,-1.2497732666,1.35511813965,-9.79707319336,1.0,0.0,0.0,0.0,1.0,0.0,0.0,0.0,1.0
1463510848765414101,802,1463510847678297627,,-3.23890662193,-6.09157514572,-86.7111968994,0.0100899999961,1.0,0.0,0.0,0.0,1.0,0.0,0.0,0.0,1.0,20.0,-9.32926845551,1.09756100178,1.0,0.0,0.0,0.0,1.0,0.0,0.0,0.0,1.0,-1.22583125,1.41257897949,-9.73003554687,1.0,0.0,0.0,0.0,1.0,0.0,0.0,0.0,1.0
1463510848765731531,803,1463510847688161019,,-3.0715880394,-6.18048524857,-86.6969223022,0.010108999908,1.0,0.0,0.0,0.0,1.0,0.0,0.0,0.0,1.0,22.3170719147,-10.1219511032,1.46341466904,1.0,0.0,0.0,0.0,1.0,0.0,0.0,0.0,1.0,-1.17794714373,1.44130939941,-9.70130512695,1.0,0.0,0.0,0.0,1.0,0.0,0.0,0.0,1.0
1463510848766016775,804,1463510847698151018,,-2.86600971222,-6.28660535812,-86.682144165,0.0100769996643,1.0,0.0,0.0,0.0,1.0,0.0,0.0,0.0,1.0,24.5731716156,-12.5,1.58536589146,1.0,0.0,0.0,0.0,1.0,0.0,0.0,0.0,1.0,-1.07739082014,1.12527478027,-9.67736311035,1.0,0.0,0.0,0.0,1.0,0.0,0.0,0.0,1.0
1463510848766296342,805,1463510847708919515,,-2.63327121735,-6.41605091095,-86.6638565063,0.0103470003232,1.0,0.0,0.0,0.0,1.0,0.0,0.0,0.0,1.0,25.7317085266,-15.2439022064,1.8902438879,1.0,0.0,0.0,0.0,1.0,0.0,0.0,0.0,1.0,-1.01035310059,0.962469067383,-10.1370498291,1.0,0.0,0.0,0.0,1.0,0.0,0.0,0.0,1.0
1463510848767508356,806,1463510847718885140,,-2.41229295731,-6.58004140854,-86.6469802856,0.0098729999736,1.0,0.0,0.0,0.0,1.0,0.0,0.0,0.0,1.0,26.7073173523,-17.7439022064,1.64634156227,1.0,0.0,0.0,0.0,1.0,0.0,0.0,0.0,1.0,-1.32159931641,1.12048637695,-10.1226846191,1.0,0.0,0.0,0.0,1.0,0.0,0.0,0.0,1.0
1463510848767873023,807,1463510847729100231,,-2.16798639297,-6.76699113846,-86.6329650879,0.0100959995762,1.0,0.0,0.0,0.0,1.0,0.0,0.0,0.0,1.0,28.2317066193,-19.5121955872,1.34146344662,1.0,0.0,0.0,0.0,1.0,0.0,0.0,0.0,1.0,-1.35511813965,1.01992990723,-9.98860932617,1.0,0.0,0.0,0.0,1.0,0.0,0.0,0.0,1.0
1463510848768163579,808,1463510847739125072,,-1.92523777485,-6.97563934326,-86.6254119873,0.0100969998166,1.0,0.0,0.0,0.0,1.0,0.0,0.0,0.0,1.0,29.3902435303,-20.975610733,0.548780500889,1.0,0.0,0.0,0.0,1.0,0.0,0.0,0.0,1.0,-1.4844050293,1.21146604004,-9.8305920166,1.0,0.0,0.0,0.0,1.0,0.0,0.0,0.0,1.0
1463510848768437731,809,1463510847748893001,,-1.66587948799,-7.17372655869,-86.6429672241,0.0101110003889,1.0,0.0,0.0,0.0,1.0,0.0,0.0,0.0,1.0,39.4512214661,-21.0365848541,-2.92682933807,1.0,0.0,0.0,0.0,1.0,0.0,0.0,0.0,1.0,-1.27850368652,2.7341782959,-9.61032604839,1.0,0.0,0.0,0.0,1.0,0.0,0.0,0.0,1.0
1463510848768719746,810,1463510847758751706,,-1.20787227154,-7.43311309814,-86.6859207153,0.0100880004466,1.0,0.0,0.0,0.0,1.0,0.0,0.0,0.0,1.0,36.3414611816,-26.3414649963,-2.62195134163,1.0,0.0,0.0,0.0,1.0,0.0,0.0,0.0,1.0,-1.38384855957,-1.2497732666,-9.20809958496,1.0,0.0,0.0,0.0,1.0,0.0,0.0,0.0,1.0
1463510848768983429,811,1463510847769598323,,-0.947704434395,-7.71370697021,-86.7099456787,0.0102030001581,1.0,0.0,0.0,0.0,1.0,0.0,0.0,0.0,1.0,29.1463413239,-26.8902454376,-2.19512200356,1.0,0.0,0.0,0.0,1.0,0.0,0.0,0.0,1.0,-1.73340200195,0.804451757813,-9.70609353027,1.0,0.0,0.0,0.0,1.0,0.0,0.0,0.0,1.0
1463510848769256173,812,1463510847779500359,,-0.66739988327,-7.99430561066,-86.7427139282,0.010108999908,1.0,0.0,0.0,0.0,1.0,0.0,0.0,0.0,1.0,27.1341457367,-28.7804889679,-2.43902444839,1.0,0.0,0.0,0.0,1.0,0.0,0.0,0.0,1.0,-1.5322890625,0.0383072265625,-9.95987890625,1.0,0.0,0.0,0.0,1.0,0.0,0.0,0.0,1.0
1463510848769545063,813,1463510847788976117,,-0.430890291929,-8.29146289825,-86.7622299194,0.00998600013554,1.0,0.0,0.0,0.0,1.0,0.0,0.0,0.0,1.0,22.2560977936,-30.1829280853,-0.914634168148,1.0,0.0,0.0,0.0,1.0,0.0,0.0,0.0,1.0,-1.70467158203,-0.191536132812,-10.0125513428,1.0,0.0,0.0,0.0,1.0,0.0,0.0,0.0,1.0
1463510848769823433,814,1463510847799411768,,-0.244230493903,-8.61505031586,-86.7866973877,0.0101180002093,1.0,0.0,0.0,0.0,1.0,0.0,0.0,0.0,1.0,19.0853652954,-32.134147644,-1.58536589146,1.0,0.0,0.0,0.0,1.0,0.0,0.0,0.0,1.0,-1.838746875,0.15801730957,-10.1753570557,1.0,0.0,0.0,0.0,1.0,0.0,0.0,0.0,1.0
1463510848770261376,815,1463510847809846637,,-0.0877182558179,-8.95199584961,-86.8168792725,0.0102319996804,1.0,0.0,0.0,0.0,1.0,0.0,0.0,0.0,1.0,17.7439022064,-33.3536605835,-2.31707310677,1.0,0.0,0.0,0.0,1.0,0.0,0.0,0.0,1.0,-1.838746875,0.474051928711,-10.1131078125,1.0,0.0,0.0,0.0,1.0,0.0,0.0,0.0,1.0
1463510848772560880,816,1463510847820473423,,0.0644794330001,-9.2965297699,-86.8442001343,0.00998700037599,1.0,0.0,0.0,0.0,1.0,0.0,0.0,0.0,1.0,17.5609760284,-35.7317085266,-2.01219511032,1.0,0.0,0.0,0.0,1.0,0.0,0.0,0.0,1.0,-1.71903679199,0.411802685547,-9.91678327637,1.0,0.0,0.0,0.0,1.0,0.0,0.0,0.0,1.0
1463510848772923672,817,1463510847829495041,,0.194805026054,-9.65717887878,-86.8749313354,0.0100699998438,1.0,0.0,0.0,0.0,1.0,0.0,0.0,0.0,1.0,16.341463089,-36.9512214661,-2.43902444839,1.0,0.0,0.0,0.0,1.0,0.0,0.0,0.0,1.0,-1.8148048584,0.598550451572,-9.99818613281,1.0,0.0,0.0,0.0,1.0,0.0,0.0,0.0,1.0
1463510848773219176,818,1463510847840030998,,0.328251868486,-10.0495691299,-86.912147522,0.0101610003039,1.0,0.0,0.0,0.0,1.0,0.0,0.0,0.0,1.0,16.5243911743,-39.3292694092,-2.98780488968,1.0,0.0,0.0,0.0,1.0,0.0,0.0,0.0,1.0,-1.95845695801,0.598550451572,-9.98860932617,1.0,0.0,0.0,0.0,1.0,0.0,0.0,0.0,1.0
1463510848773519055,819,1463510847850216039,,0.463980644941,-10.4602088928,-86.9511032104,0.0100659998134,1.0,0.0,0.0,0.0,1.0,0.0,0.0,0.0,1.0,16.4024391174,-39.5731735229,-3.04878044128,1.0,0.0,0.0,0.0,1.0,0.0,0.0,0.0,1.0,-2.39899020961,0.507570751953,-10.0269165527,1.0,0.0,0.0,0.0,1.0,0.0,0.0,0.0,1.0
1463510848773819507,820,1463510847860313896,,0.613530099392,-10.8662643433,-86.9936904907,0.0100919995457,1.0,0.0,0.0,0.0,1.0,0.0,0.0,0.0,1.0,17.8048782349,-38.8414649963,-3.35365867615,1.0,0.0,0.0,0.0,1.0,0.0,0.0,0.0,1.0,-2.54264216309,0.521935925381,-10.1562034424,1.0,0.0,0.0,0.0,1.0,0.0,0.0,0.0,1.0
1463510848774137093,821,1463510847870414046,,0.7705321908,-11.2701196671,-87.0316314697,0.0101009998471,1.0,0.0,0.0,0.0,1.0,0.0,0.0,0.0,1.0,18.1707305908,-38.3536567688,-2.74390244484,1.0,0.0,0.0,0.0,1.0,0.0,0.0,0.0,1.0,-2.65277543945,0.416591088867,-10.1083194092,1.0,0.0,0.0,0.0,1.0,0.0,0.0,0.0,1.0
1463510848774442336,822,1463510847880794804,,0.93040651083,-11.651348114,-87.0690002441,0.0100800003856,1.0,0.0,0.0,0.0,1.0,0.0,0.0,0.0,1.0,18.3536586761,-35.9146347046,-2.62195134163,1.0,0.0,0.0,0.0,1.0,0.0,0.0,0.0,1.0,-2.74854350586,0.363918652344,-9.97903251953,1.0,0.0,0.0,0.0,1.0,0.0,0.0,0.0,1.0
1463510848775659818,823,1463510847890930368,,1.10338711739,-12.0256948471,-87.1059494019,0.0102099999785,1.0,0.0,0.0,0.0,1.0,0.0,0.0,0.0,1.0,17.8048782349,-34.6951217651,-2.13414645195,1.0,0.0,0.0,0.0,1.0,0.0,0.0,0.0,1.0,-2.80121594238,0.0335188255255,-9.86411083984,1.0,0.0,0.0,0.0,1.0,0.0,0.0,0.0,1.0
1463510848776079690,824,1463510847900828289,,1.24811601639,-12.3621988297,-87.133895874,0.00999199971557,1.0,0.0,0.0,0.0,1.0,0.0,0.0,0.0,1.0,16.341463089,-32.865852356,-1.46341466904,1.0,0.0,0.0,0.0,1.0,0.0,0.0,0.0,1.0,-2.64319863281,0.15801730957,-9.8305920166,1.0,0.0,0.0,0.0,1.0,0.0,0.0,0.0,1.0
1463510848776368267,825,1463510847911064733,,1.38820278645,-12.6922521591,-87.1593093872,0.0101209999993,1.0,0.0,0.0,0.0,1.0,0.0,0.0,0.0,1.0,15.2439022064,-31.6463413239,-1.03658533096,1.0,0.0,0.0,0.0,1.0,0.0,0.0,0.0,1.0,-2.79642753906,0.0430956298828,-10.0556469727,1.0,0.0,0.0,0.0,1.0,0.0,0.0,0.0,1.0
1463510848776621065,826,1463510847921908225,,1.52623176575,-13.0055084229,-87.1831893921,0.010108999908,1.0,0.0,0.0,0.0,1.0,0.0,0.0,0.0,1.0,14.2682924271,-30.4878044128,-0.670731723309,1.0,0.0,0.0,0.0,1.0,0.0,0.0,0.0,1.0,-2.77727392578,-0.134075302102,-10.0795889893,1.0,0.0,0.0,0.0,1.0,0.0,0.0,0.0,1.0
1463510848776878655,827,1463510847931422054,,1.65014505386,-13.3101377487,-87.2012786865,0.010095000267,1.0,0.0,0.0,0.0,1.0,0.0,0.0,0.0,1.0,12.5609760284,-28.5975608826,-0.0,1.0,0.0,0.0,0.0,1.0,0.0,0.0,0.0,1.0,-3.00711728516,-0.239420166016,-9.95987890625,1.0,0.0,0.0,0.0,1.0,0.0,0.0,0.0,1.0
1463510848777148379,828,1463510847941765210,,1.73462998867,-13.5965528488,-87.2066497803,0.0101100001484,1.0,0.0,0.0,0.0,1.0,0.0,0.0,0.0,1.0,11.9512195587,-26.4024391174,0.487804889679,1.0,0.0,0.0,0.0,1.0,0.0,0.0,0.0,1.0,-3.21780703125,0.320823022461,-10.2519715088,1.0,0.0,0.0,0.0,1.0,0.0,0.0,0.0,1.0
1463510848777394354,829,1463510847952305022,,1.83128774166,-13.8549051285,-87.2043075562,0.0101290000603,1.0,0.0,0.0,0.0,1.0,0.0,0.0,0.0,1.0,12.3780488968,-23.9634151459,1.40243899822,1.0,0.0,0.0,0.0,1.0,0.0,0.0,0.0,1.0,-3.1124621582,0.119710083008,-9.99339772949,1.0,0.0,0.0,0.0,1.0,0.0,0.0,0.0,1.0
1463510848777633455,830,1463510847961641361,,1.92188251019,-14.0842494965,-87.1949386597,0.0100579997525,1.0,0.0,0.0,0.0,1.0,0.0,0.0,0.0,1.0,12.3780488968,-22.0121955872,1.95121955872,1.0,0.0,0.0,0.0,1.0,0.0,0.0,0.0,1.0,-3.03105930176,0.172382519531,-10.0556469727,1.0,0.0,0.0,0.0,1.0,0.0,0.0,0.0,1.0
1463510848777905523,831,1463510847971169512,,2.01788759232,-14.2941188812,-87.1843795776,0.0101749999449,1.0,0.0,0.0,0.0,1.0,0.0,0.0,0.0,1.0,12.8658542633,-20.3658542633,2.01219511032,1.0,0.0,0.0,0.0,1.0,0.0,0.0,0.0,1.0,-2.9927520752,0.162805712891,-10.1274730225,1.0,0.0,0.0,0.0,1.0,0.0,0.0,0.0,1.0
1463510848778201496,832,1463510847981711615,,2.12413167953,-14.4829015732,-87.1721115112,0.0100130001083,1.0,0.0,0.0,0.0,1.0,0.0,0.0,0.0,1.0,13.9024391174,-18.4146347046,2.19512200356,1.0,0.0,0.0,0.0,1.0,0.0,0.0,0.0,1.0,-3.05500131836,0.110133276367,-10.0891657959,1.0,0.0,0.0,0.0,1.0,0.0,0.0,0.0,1.0
1463510848778477209,833,1463510847991523396,,2.23001384735,-14.6639957428,-87.1578979492,0.0100959995762,1.0,0.0,0.0,0.0,1.0,0.0,0.0,0.0,1.0,14.6341466904,-17.134147644,2.13414645195,1.0,0.0,0.0,0.0,1.0,0.0,0.0,0.0,1.0,-3.16992299805,0.248996972656,-10.1178962158,1.0,0.0,0.0,0.0,1.0,0.0,0.0,0.0,1.0
1463510848781114923,834,1463510848001651409,,2.35030460358,-14.8175611496,-87.1378479004,0.0102040003985,1.0,0.0,0.0,0.0,1.0,0.0,0.0,0.0,1.0,16.4024391174,-14.4512205124,2.5,1.0,0.0,0.0,0.0,1.0,0.0,0.0,0.0,1.0,-3.20823022461,0.296881024126,-10.2711251221,1.0,0.0,0.0,0.0,1.0,0.0,0.0,0.0,1.0
1463510848781578282,835,1463510848011458299,,2.48511600494,-14.9433393478,-87.1201705933,0.0100389998406,1.0,0.0,0.0,0.0,1.0,0.0,0.0,0.0,1.0,17.7439022064,-12.7439022064,2.31707310677,1.0,0.0,0.0,0.0,1.0,0.0,0.0,0.0,1.0,-3.09809694824,0.225054956055,-10.3381627686,1.0,0.0,0.0,0.0,1.0,0.0,0.0,0.0,1.0
1463510848781935189,836,1463510848022446578,,2.63407349586,-15.0513353348,-87.1002883911,0.0100670000538,1.0,0.0,0.0,0.0,1.0,0.0,0.0,0.0,1.0,18.0487823486,-10.4878053665,2.74390244484,1.0,0.0,0.0,0.0,1.0,0.0,0.0,0.0,1.0,-3.20823022461,-0.0191536132812,-10.3285859619,1.0,0.0,0.0,0.0,1.0,0.0,0.0,0.0,1.0
1463510848782243088,837,1463510848033077481,,2.78404545784,-15.1372117996,-87.0711517334,0.0101659996435,1.0,0.0,0.0,0.0,1.0,0.0,0.0,0.0,1.0,17.8658542633,-7.80487823486,3.59756112099,1.0,0.0,0.0,0.0,1.0,0.0,0.0,0.0,1.0,-3.31836350098,-0.119710083008,-10.3812583984,1.0,0.0,0.0,0.0,1.0,0.0,0.0,0.0,1.0
1463510848782523593,838,1463510848042772605,,2.91782951355,-15.1885042191,-87.0298080444,0.0100440001115,1.0,0.0,0.0,0.0,1.0,0.0,0.0,0.0,1.0,16.341463089,-4.32926845551,4.75609779358,1.0,0.0,0.0,0.0,1.0,0.0,0.0,0.0,1.0,-3.33751711426,-0.229843359375,-10.3429511719,1.0,0.0,0.0,0.0,1.0,0.0,0.0,0.0,1.0
1463510848783715556,839,1463510848052969002,,3.0288028717,-15.2069597244,-86.9747390747,0.0102369999513,1.0,0.0,0.0,0.0,1.0,0.0,0.0,0.0,1.0,14.6951217651,-1.03658533096,5.67073154449,1.0,0.0,0.0,0.0,1.0,0.0,0.0,0.0,1.0,-3.2992098877,-0.15322890625,-10.2423947021,1.0,0.0,0.0,0.0,1.0,0.0,0.0,0.0,1.0
1463510848784122981,840,1463510848062036140,,3.12243318558,-15.1929454803,-86.9097366333,0.00998399965465,1.0,0.0,0.0,0.0,1.0,0.0,0.0,0.0,1.0,13.5975618362,1.8902438879,6.58536624908,1.0,0.0,0.0,0.0,1.0,0.0,0.0,0.0,1.0,-3.18428820801,-0.15801730957,-10.0843773926,1.0,0.0,0.0,0.0,1.0,0.0,0.0,0.0,1.0
1463510848784433171,841,1463510848072958589,,3.19701075554,-15.150384903,-86.8346176147,0.0101840002462,1.0,0.0,0.0,0.0,1.0,0.0,0.0,0.0,1.0,12.8658542633,4.87804889679,6.95121955872,1.0,0.0,0.0,0.0,1.0,0.0,0.0,0.0,1.0,-3.17471140137,0.0383072265625,-9.96466730957,1.0,0.0,0.0,0.0,1.0,0.0,0.0,0.0,1.0
1463510848784743831,842,1463510848082887033,,3.25600123405,-15.0785980225,-86.7523498535,0.0101150004193,1.0,0.0,0.0,0.0,1.0,0.0,0.0,0.0,1.0,11.8902444839,7.56097555161,7.43902492523,1.0,0.0,0.0,0.0,1.0,0.0,0.0,0.0,1.0,-3.10767375488,0.0861912597656,-9.95030209961,1.0,0.0,0.0,0.0,1.0,0.0,0.0,0.0,1.0
1463510848785042876,843,1463510848093407942,,3.32529044151,-14.9838380814,-86.6723480225,0.0100159998983,1.0,0.0,0.0,0.0,1.0,0.0,0.0,0.0,1.0,11.6463422775,10.1219511032,7.50000047684,1.0,0.0,0.0,0.0,1.0,0.0,0.0,0.0,1.0,-3.11725056152,-0.167594116211,-9.90241806641,1.0,0.0,0.0,0.0,1.0,0.0,0.0,0.0,1.0
1463510848785318954,844,1463510848102600959,,3.38002848625,-14.8700857162,-86.5843276978,0.0100849997252,1.0,0.0,0.0,0.0,1.0,0.0,0.0,0.0,1.0,11.0975618362,12.4390249252,7.86585378647,1.0,0.0,0.0,0.0,1.0,0.0,0.0,0.0,1.0,-3.18907661133,-0.0335188255255,-9.91199487305,1.0,0.0,0.0,0.0,1.0,0.0,0.0,0.0,1.0
1463510848785592480,845,1463510848113041561,,3.42773151398,-14.7185668945,-86.4916687012,0.0101410001516,1.0,0.0,0.0,0.0,1.0,0.0,0.0,0.0,1.0,10.9146347046,16.0365848541,7.92682981491,1.0,0.0,0.0,0.0,1.0,0.0,0.0,0.0,1.0,-3.18907661133,0.0430956298828,-10.0364933594,1.0,0.0,0.0,0.0,1.0,0.0,0.0,0.0,1.0
1463510848785866996,846,1463510848122895477,,3.48543691635,-14.5436201096,-86.3959655762,0.0100670000538,1.0,0.0,0.0,0.0,1.0,0.0,0.0,0.0,1.0,10.4268293381,18.841463089,8.5365858078,1.0,0.0,0.0,0.0,1.0,0.0,0.0,0.0,1.0,-3.20344182129,-0.268150604204,-9.96466730957,1.0,0.0,0.0,0.0,1.0,0.0,0.0,0.0,1.0
1463510848787179629,847,1463510848133640489,,3.52918553352,-14.3398542404,-86.2925262451,0.0101349996403,1.0,0.0,0.0,0.0,1.0,0.0,0.0,0.0,1.0,8.23170757294,21.8292694092,9.26829242706,1.0,0.0,0.0,0.0,1.0,0.0,0.0,0.0,1.0,-3.17949980469,-0.450109912109,-9.86411083984,1.0,0.0,0.0,0.0,1.0,0.0,0.0,0.0,1.0
1463510848787540963,848,1463510848143200516,,3.55136990547,-14.1019039154,-86.1779022217,0.0100689996034,1.0,0.0,0.0,0.0,1.0,0.0,0.0,0.0,1.0,6.58536624908,24.6341457367,10.1829271317,1.0,0.0,0.0,0.0,1.0,0.0,0.0,0.0,1.0,-2.97838686523,-0.416591088867,-9.8305920166,1.0,0.0,0.0,0.0,1.0,0.0,0.0,0.0,1.0
1463510848787844591,849,1463510848153542686,,3.53589344025,-13.8370609283,-86.0536956787,0.0100889997557,1.0,0.0,0.0,0.0,1.0,0.0,0.0,0.0,1.0,3.17073178291,26.9512195587,10.9146347046,1.0,0.0,0.0,0.0,1.0,0.0,0.0,0.0,1.0,-2.89698400879,-0.397437475586,-9.93593688965,1.0,0.0,0.0,0.0,1.0,0.0,0.0,0.0,1.0
1463510848788110461,850,1463510848163416862,,3.50487375259,-13.5442810059,-85.9175720215,0.0102070001885,1.0,0.0,0.0,0.0,1.0,0.0,0.0,0.0,1.0,2.13414645195,28.6585388184,11.7682924271,1.0,0.0,0.0,0.0,1.0,0.0,0.0,0.0,1.0,-2.67671745605,-0.339976635742,-9.8545340332,1.0,0.0,0.0,0.0,1.0,0.0,0.0,0.0,1.0
1463510848788382373,851,1463510848174060681,,3.44868183136,-13.2420444489,-85.7767105103,0.00997000001371,1.0,0.0,0.0,0.0,1.0,0.0,0.0,0.0,1.0,0.487804889679,29.7560997009,12.3170728683,1.0,0.0,0.0,0.0,1.0,0.0,0.0,0.0,1.0,-2.58573779297,-0.186747729492,-10.1274730225,1.0,0.0,0.0,0.0,1.0,0.0,0.0,0.0,1.0
1463510848788654284,852,1463510848183224324,,3.38152933121,-12.9241704941,-85.626991272,0.0101140001789,1.0,0.0,0.0,0.0,1.0,0.0,0.0,0.0,1.0,-0.18292683363,30.6097583771,12.9268293381,1.0,0.0,0.0,0.0,1.0,0.0,0.0,0.0,1.0,-2.54743056641,-0.134075302102,-10.4291424316,1.0,0.0,0.0,0.0,1.0,0.0,0.0,0.0,1.0
1463510848788957236,853,1463510848196435237,,3.29769158363,-12.4969234467,-85.4212875366,0.0133899999782,1.0,0.0,0.0,0.0,1.0,0.0,0.0,0.0,1.0,0.853658556938,31.4634151459,13.3536586761,1.0,0.0,0.0,0.0,1.0,0.0,0.0,0.0,1.0,-2.48039291992,0.0,-10.1226846191,1.0,0.0,0.0,0.0,1.0,0.0,0.0,0.0,1.0
1463510848791304289,854,1463510848204217344,,3.26273274422,-12.2744216919,-85.3129196167,0.00690199993551,1.0,0.0,0.0,0.0,1.0,0.0,0.0,0.0,1.0,1.64634156227,31.5853652954,13.841463089,1.0,0.0,0.0,0.0,1.0,0.0,0.0,0.0,1.0,-2.39420180629,-0.0622492431641,-10.2711251221,1.0,0.0,0.0,0.0,1.0,0.0,0.0,0.0,1.0
1463510848791683226,855,1463510848213563477,,3.21797585487,-11.9513540268,-85.1525497437,0.0100389998406,1.0,0.0,0.0,0.0,1.0,0.0,0.0,0.0,1.0,1.70731711388,31.7682914734,14.2682924271,1.0,0.0,0.0,0.0,1.0,0.0,0.0,0.0,1.0,-2.40377861293,-0.15801730957,-10.3046439453,1.0,0.0,0.0,0.0,1.0,0.0,0.0,0.0,1.0
1463510848791993208,856,1463510848224994335,,3.16857933998,-11.6186408997,-84.9858016968,0.0102880001068,1.0,0.0,0.0,0.0,1.0,0.0,0.0,0.0,1.0,1.09756100178,32.2560958862,14.5731706619,1.0,0.0,0.0,0.0,1.0,0.0,0.0,0.0,1.0,-2.38462499965,-0.191536132812,-10.2184526855,1.0,0.0,0.0,0.0,1.0,0.0,0.0,0.0,1.0
1463510848792274703,857,1463510848234100638,,3.118237257,-11.2912445068,-84.8153839111,0.00993600022048,1.0,0.0,0.0,0.0,1.0,0.0,0.0,0.0,1.0,0.426829278469,32.134147644,15.6707315445,1.0,0.0,0.0,0.0,1.0,0.0,0.0,0.0,1.0,-2.16435844691,-0.277727392578,-10.165780249,1.0,0.0,0.0,0.0,1.0,0.0,0.0,0.0,1.0
1463510848792564217,858,1463510848244205530,,3.05628299713,-10.9570226669,-84.6412277222,0.0101209999993,1.0,0.0,0.0,0.0,1.0,0.0,0.0,0.0,1.0,0.12195122242,31.158536911,15.6707315445,1.0,0.0,0.0,0.0,1.0,0.0,0.0,0.0,1.0,-1.91536132812,-0.114921679688,-10.1945106689,1.0,0.0,0.0,0.0,1.0,0.0,0.0,0.0,1.0
1463510848792861284,859,1463510848253866176,,3.003469944,-10.6401815414,-84.4763336182,0.0100239999592,1.0,0.0,0.0,0.0,1.0,0.0,0.0,0.0,1.0,1.40243899822,29.6951236725,14.9390249252,1.0,0.0,0.0,0.0,1.0,0.0,0.0,0.0,1.0,-1.85311208496,0.0191536132812,-10.1897222656,1.0,0.0,0.0,0.0,1.0,0.0,0.0,0.0,1.0
1463510848793194806,860,1463510848264390887,,2.96901011467,-10.339015007,-84.3087768555,0.0101110003889,1.0,0.0,0.0,0.0,1.0,0.0,0.0,0.0,1.0,2.37804889679,27.8658542633,15.3658533096,1.0,0.0,0.0,0.0,1.0,0.0,0.0,0.0,1.0,-1.78607443848,-0.124498486328,-10.1466266357,1.0,0.0,0.0,0.0,1.0,0.0,0.0,0.0,1.0
1463510848793474426,861,1463510848283826444,,2.90474200249,-9.97410583496,-84.0612640381,0.0143680004403,1.0,0.0,0.0,0.0,1.0,0.0,0.0,0.0,1.0,2.56097555161,23.9634151459,16.0365848541,1.0,0.0,0.0,0.0,1.0,0.0,0.0,0.0,1.0,-1.84353527832,0.110133276367,-10.299855542,1.0,0.0,0.0,0.0,1.0,0.0,0.0,0.0,1.0
1463510848793750348,862,1463510848299088437,,2.89055037498,-9.56953620911,-83.78150177,0.0168919991702,1.0,0.0,0.0,0.0,1.0,0.0,0.0,0.0,1.0,3.53658556938,21.9512195587,15.975610733,1.0,0.0,0.0,0.0,1.0,0.0,0.0,0.0,1.0,-1.67594116211,-0.335188232422,-10.2902787354,1.0,0.0,0.0,0.0,1.0,0.0,0.0,0.0,1.0
