%time,field.header.seq,field.header.stamp,field.header.frame_id,field.orientation.x,field.orientation.y,field.orientation.z,field.orientation.w,field.orientation_covariance0,field.orientation_covariance1,field.orientation_covariance2,field.orientation_covariance3,field.orientation_covariance4,field.orientation_covariance5,field.orientation_covariance6,field.orientation_covariance7,field.orientation_covariance8,field.angular_velocity.x,field.angular_velocity.y,field.angular_velocity.z,field.angular_velocity_covariance0,field.angular_velocity_covariance1,field.angular_velocity_covariance2,field.angular_velocity_covariance3,field.angular_velocity_covariance4,field.angular_velocity_covariance5,field.angular_velocity_covariance6,field.angular_velocity_covariance7,field.angular_velocity_covariance8,field.linear_acceleration.x,field.linear_acceleration.y,field.linear_acceleration.z,field.linear_acceleration_covariance0,field.linear_acceleration_covariance1,field.linear_acceleration_covariance2,field.linear_acceleration_covariance3,field.linear_acceleration_covariance4,field.linear_acceleration_covariance5,field.linear_acceleration_covariance6,field.linear_acceleration_covariance7,field.linear_acceleration_covariance8
1463503076446351787,384,1463503076338707561,,14.4650688171,9.11898899078,79.3006286621,0.00996000040323,1.0,0.0,0.0,0.0,1.0,0.0,0.0,0.0,1.0,-18.3536586761,-24.0243911743,-20.1219520569,1.0,0.0,0.0,0.0,1.0,0.0,0.0,0.0,1.0,3.50989963379,-2.39899020961,-12.0141039307,1.0,0.0,0.0,0.0,1.0,0.0,0.0,0.0,1.0
1463503076446387785,385,1463503076348220647,,14.1723556519,8.96387863159,78.7835922241,0.0100010000169,1.0,0.0,0.0,0.0,1.0,0.0,0.0,0.0,1.0,-22.6219520569,-31.5853652954,-24.1463432312,1.0,0.0,0.0,0.0,1.0,0.0,0.0,0.0,1.0,3.62003291016,-2.06859023437,-11.9183358643,1.0,0.0,0.0,0.0,1.0,0.0,0.0,0.0,1.0
1463503076446423522,386,1463503076358273650,,13.8234891891,8.7440404892,78.1979370117,0.0100020002574,1.0,0.0,0.0,0.0,1.0,0.0,0.0,0.0,1.0,-26.4024391174,-40.4878044128,-28.9024410248,1.0,0.0,0.0,0.0,1.0,0.0,0.0,0.0,1.0,3.93127912598,-1.81001645508,-12.1050835937,1.0,0.0,0.0,0.0,1.0,0.0,0.0,0.0,1.0
1463503076446509323,387,1463503076368189434,,13.4378614426,8.42038345337,77.5347366333,0.00999299995601,1.0,0.0,0.0,0.0,1.0,0.0,0.0,0.0,1.0,-27.3780498505,-50.0,-34.5121955872,1.0,0.0,0.0,0.0,1.0,0.0,0.0,0.0,1.0,3.6056677002,-1.43173259277,-13.0388222412,1.0,0.0,0.0,0.0,1.0,0.0,0.0,0.0,1.0
1463503076446659879,388,1463503076378258846,,13.0232009888,7.99162006378,76.7996139526,0.00999299995601,1.0,0.0,0.0,0.0,1.0,0.0,0.0,0.0,1.0,-27.682926178,-58.9024391174,-39.817073822,1.0,0.0,0.0,0.0,1.0,0.0,0.0,0.0,1.0,2.99754047852,-0.92416184082,-13.6756798828,1.0,0.0,0.0,0.0,1.0,0.0,0.0,0.0,1.0
1463503076446708588,389,1463503076388266005,,12.5754795074,7.49071836472,76.0466003418,0.00999800022691,1.0,0.0,0.0,0.0,1.0,0.0,0.0,0.0,1.0,-31.0365867615,-61.707321167,-41.4634170532,1.0,0.0,0.0,0.0,1.0,0.0,0.0,0.0,1.0,1.93930334473,-0.837970581055,-14.575899707,1.0,0.0,0.0,0.0,1.0,0.0,0.0,0.0,1.0
1463503076446748128,390,1463503076398214609,,12.1318407059,6.98747396469,75.2877655029,0.0100010000169,1.0,0.0,0.0,0.0,1.0,0.0,0.0,0.0,1.0,-30.4878044128,-60.1219520569,-42.8658561707,1.0,0.0,0.0,0.0,1.0,0.0,0.0,0.0,1.0,1.42215578613,-0.550666381836,-14.6573025635,1.0,0.0,0.0,0.0,1.0,0.0,0.0,0.0,1.0
1463503076446795014,391,1463503076408261777,,11.7599811554,6.50778722763,74.5406570435,0.0100029995665,1.0,0.0,0.0,0.0,1.0,0.0,0.0,0.0,1.0,-25.4268302917,-55.4878082275,-43.3536567688,1.0,0.0,0.0,0.0,1.0,0.0,0.0,0.0,1.0,0.833182177734,-0.790086547852,-14.3987287842,1.0,0.0,0.0,0.0,1.0,0.0,0.0,0.0,1.0
1463503076446846797,392,1463503076418247837,,11.4521389008,6.07226228714,73.8303527832,0.0100010000169,1.0,0.0,0.0,0.0,1.0,0.0,0.0,0.0,1.0,-20.3048782349,-51.4634170532,-40.9146385193,1.0,0.0,0.0,0.0,1.0,0.0,0.0,0.0,1.0,1.03908344744,-0.746990917969,-13.977349292,1.0,0.0,0.0,0.0,1.0,0.0,0.0,0.0,1.0
1463503076446882430,393,1463503076428242962,,11.2080430984,5.67176198959,73.159072876,0.0100050000474,1.0,0.0,0.0,0.0,1.0,0.0,0.0,0.0,1.0,-13.2926826477,-47.0121994019,-37.9878044128,1.0,0.0,0.0,0.0,1.0,0.0,0.0,0.0,1.0,0.861912597656,-0.258573779297,-12.7994020752,1.0,0.0,0.0,0.0,1.0,0.0,0.0,0.0,1.0
1463503076446924575,394,1463503076438232408,,11.0600509644,5.2976603508,72.5342636108,0.0099950004369,1.0,0.0,0.0,0.0,1.0,0.0,0.0,0.0,1.0,-5.97560977936,-44.6341438293,-34.2073173523,1.0,0.0,0.0,0.0,1.0,0.0,0.0,0.0,1.0,1.01514150391,-0.502782348633,-12.2870429199,1.0,0.0,0.0,0.0,1.0,0.0,0.0,0.0,1.0
1463503076449709439,395,1463503076448215239,,10.9231920242,4.94307088852,71.9684524536,0.0100180003792,1.0,0.0,0.0,0.0,1.0,0.0,0.0,0.0,1.0,-2.62195134163,-43.3536567688,-28.2317066193,1.0,0.0,0.0,0.0,1.0,0.0,0.0,0.0,1.0,1.35032973633,0.229843359375,-12.0571995605,1.0,0.0,0.0,0.0,1.0,0.0,0.0,0.0,1.0
1463503076459562603,396,1463503076458165666,,10.8869132996,4.60701942444,71.476890564,0.00997000001371,1.0,0.0,0.0,0.0,1.0,0.0,0.0,0.0,1.0,6.46341466904,-40.9756088257,-21.5853652954,1.0,0.0,0.0,0.0,1.0,0.0,0.0,0.0,1.0,1.31202250977,0.234631762695,-11.0899420898,1.0,0.0,0.0,0.0,1.0,0.0,0.0,0.0,1.0
1463503076472614529,397,1463503076468580575,,10.9436883926,4.26326990128,71.0374221802,0.0100130001083,1.0,0.0,0.0,0.0,1.0,0.0,0.0,0.0,1.0,13.9024391174,-42.5609779358,-15.975610733,1.0,0.0,0.0,0.0,1.0,0.0,0.0,0.0,1.0,1.64721074219,0.0143652099609,-11.0947304932,1.0,0.0,0.0,0.0,1.0,0.0,0.0,0.0,1.0
1463503076484312652,398,1463503076480128663,,11.0764789581,3.8909535408,70.6548614502,0.0100140003487,1.0,0.0,0.0,0.0,1.0,0.0,0.0,0.0,1.0,17.6219520569,-45.0,-10.0,1.0,0.0,0.0,0.0,1.0,0.0,0.0,0.0,1.0,1.62805712891,-0.60812722168,-10.539275708,1.0,0.0,0.0,0.0,1.0,0.0,0.0,0.0,1.0
1463503076491115215,399,1463503076488205532,,11.2188215256,3.50268959999,70.3174591064,0.00998799968511,1.0,0.0,0.0,0.0,1.0,0.0,0.0,0.0,1.0,18.4146347046,-45.4268302917,-5.36585378647,1.0,0.0,0.0,0.0,1.0,0.0,0.0,0.0,1.0,1.45088620605,-0.565031591797,-10.4147772217,1.0,0.0,0.0,0.0,1.0,0.0,0.0,0.0,1.0
1463503076501057567,400,1463503076498138350,,11.3627748489,3.07989621162,70.0091781616,0.00998600013554,1.0,0.0,0.0,0.0,1.0,0.0,0.0,0.0,1.0,19.7560977936,-47.317073822,-1.8902438879,1.0,0.0,0.0,0.0,1.0,0.0,0.0,0.0,1.0,1.15879360352,-0.292092584273,-10.180145459,1.0,0.0,0.0,0.0,1.0,0.0,0.0,0.0,1.0
1463503076511131044,401,1463503076508112064,,11.5255327225,2.64248299599,69.7298583984,0.00999999977648,1.0,0.0,0.0,0.0,1.0,0.0,0.0,0.0,1.0,19.5731716156,-47.8658561707,1.15853655338,1.0,0.0,0.0,0.0,1.0,0.0,0.0,0.0,1.0,0.952892260742,-0.579396801758,-9.45230756977,1.0,0.0,0.0,0.0,1.0,0.0,0.0,0.0,1.0
1463503076521050891,402,1463503076518114222,,11.6730976105,2.18964314461,69.4707260132,0.00999999977648,1.0,0.0,0.0,0.0,1.0,0.0,0.0,0.0,1.0,18.3536586761,-47.8048782349,3.29268312454,1.0,0.0,0.0,0.0,1.0,0.0,0.0,0.0,1.0,0.646434448242,-0.493205541992,-9.13627353516,1.0,0.0,0.0,0.0,1.0,0.0,0.0,0.0,1.0
1463503076531247520,403,1463503076528174466,,11.8092241287,1.73048448563,69.221496582,0.0100010000169,1.0,0.0,0.0,0.0,1.0,0.0,0.0,0.0,1.0,17.2560977936,-47.3780517578,4.2682929039,1.0,0.0,0.0,0.0,1.0,0.0,0.0,0.0,1.0,0.407014282227,-0.450109912109,-8.71489404297,1.0,0.0,0.0,0.0,1.0,0.0,0.0,0.0,1.0
1463503076541125431,404,1463503076538160786,,11.9287290573,1.24839270115,68.9756088257,0.00999699998647,1.0,0.0,0.0,0.0,1.0,0.0,0.0,0.0,1.0,15.2439022064,-45.9756088257,4.32926845551,1.0,0.0,0.0,0.0,1.0,0.0,0.0,0.0,1.0,-0.229843359375,-0.478840332031,-8.45631967915,1.0,0.0,0.0,0.0,1.0,0.0,0.0,0.0,1.0
1463503076551134465,405,1463503076548168049,,12.0459718704,0.771503448486,68.7424240112,0.0100050000474,1.0,0.0,0.0,0.0,1.0,0.0,0.0,0.0,1.0,13.2926826477,-42.4390258789,4.87804889679,1.0,0.0,0.0,0.0,1.0,0.0,0.0,0.0,1.0,-0.727837304687,-0.718260498047,-8.45153127583,1.0,0.0,0.0,0.0,1.0,0.0,0.0,0.0,1.0
1463503076561142249,406,1463503076558175990,,12.1272144318,0.338875830173,68.5196380615,0.00999199971557,1.0,0.0,0.0,0.0,1.0,0.0,0.0,0.0,1.0,10.3048782349,-37.2560958862,4.81707286835,1.0,0.0,0.0,0.0,1.0,0.0,0.0,0.0,1.0,-0.885854614258,-0.593762048251,-8.2025348877,1.0,0.0,0.0,0.0,1.0,0.0,0.0,0.0,1.0
1463503076571120078,407,1463503076568155017,,12.2202625275,-0.0563042461872,68.2965011597,0.0100079998374,1.0,0.0,0.0,0.0,1.0,0.0,0.0,0.0,1.0,9.02439117432,-32.2560958862,3.71951246262,1.0,0.0,0.0,0.0,1.0,0.0,0.0,0.0,1.0,-1.14921679688,-0.938527050781,-8.18338127441,1.0,0.0,0.0,0.0,1.0,0.0,0.0,0.0,1.0
1463503076581141771,408,1463503076578183327,,12.2518081665,-0.353932410479,68.0756530762,0.00999599974602,1.0,0.0,0.0,0.0,1.0,0.0,0.0,0.0,1.0,6.09756088257,-26.0365848541,2.56097555161,1.0,0.0,0.0,0.0,1.0,0.0,0.0,0.0,1.0,-0.699106884766,-0.45968671875,-8.12592043457,1.0,0.0,0.0,0.0,1.0,0.0,0.0,0.0,1.0
1463503076592703509,409,1463503076591183522,,12.2193422318,-0.575302839279,67.8530273438,0.0100210001692,1.0,0.0,0.0,0.0,1.0,0.0,0.0,0.0,1.0,5.54878091812,-21.9512195587,1.46341466904,1.0,0.0,0.0,0.0,1.0,0.0,0.0,0.0,1.0,-0.234631762695,0.397437475586,-7.9439611084,1.0,0.0,0.0,0.0,1.0,0.0,0.0,0.0,1.0
1463503076600267446,410,1463503076598194102,,12.1832103729,-0.761843383312,67.6198577881,0.00998300034553,1.0,0.0,0.0,0.0,1.0,0.0,0.0,0.0,1.0,5.73170757294,-20.3658542633,-0.12195122242,1.0,0.0,0.0,0.0,1.0,0.0,0.0,0.0,1.0,-0.0478840332031,0.488417138672,-7.80988581543,1.0,0.0,0.0,0.0,1.0,0.0,0.0,0.0,1.0
1463503076610718874,411,1463503076608174692,,12.1276197433,-0.939289987087,67.3964767456,0.00999999977648,1.0,0.0,0.0,0.0,1.0,0.0,0.0,0.0,1.0,3.7804877758,-18.4146347046,0.426829278469,1.0,0.0,0.0,0.0,1.0,0.0,0.0,0.0,1.0,-0.210689746094,0.560243188477,-8.79150849609,1.0,0.0,0.0,0.0,1.0,0.0,0.0,0.0,1.0
1463503076620806677,412,1463503076618112824,,12.0727920532,-1.09871137142,67.1793670654,0.00999599974602,1.0,0.0,0.0,0.0,1.0,0.0,0.0,0.0,1.0,2.74390244484,-16.8292694092,0.670731723309,1.0,0.0,0.0,0.0,1.0,0.0,0.0,0.0,1.0,-0.172382519531,0.368707055664,-8.06367119141,1.0,0.0,0.0,0.0,1.0,0.0,0.0,0.0,1.0
1463503076631099735,413,1463503076628128839,,11.9698734283,-1.23340547085,66.9833068848,0.0100050000474,1.0,0.0,0.0,0.0,1.0,0.0,0.0,0.0,1.0,1.2804877758,-12.4390249252,1.76829278469,1.0,0.0,0.0,0.0,1.0,0.0,0.0,0.0,1.0,-0.416591088867,0.885854614258,-8.11155522461,1.0,0.0,0.0,0.0,1.0,0.0,0.0,0.0,1.0
1463503076641146486,414,1463503076638169079,,11.9084444046,-1.34528625011,66.7784194946,0.0099950004369,1.0,0.0,0.0,0.0,1.0,0.0,0.0,0.0,1.0,1.46341466904,-9.75609779358,0.304878056049,1.0,0.0,0.0,0.0,1.0,0.0,0.0,0.0,1.0,-0.517147558594,0.31124621582,-7.96311472168,1.0,0.0,0.0,0.0,1.0,0.0,0.0,0.0,1.0
1463503076650610447,415,1463503076648166756,,11.8284244537,-1.42549908161,66.5650024414,0.00999800022691,1.0,0.0,0.0,0.0,1.0,0.0,0.0,0.0,1.0,0.609756112099,-6.64634132385,-1.2804877758,1.0,0.0,0.0,0.0,1.0,0.0,0.0,0.0,1.0,-0.560243188477,0.478840332031,-8.02057556152,1.0,0.0,0.0,0.0,1.0,0.0,0.0,0.0,1.0
1463503076661099696,416,1463503076658139741,,11.7362699509,-1.44270288944,66.3370361328,0.00999999977648,1.0,0.0,0.0,0.0,1.0,0.0,0.0,0.0,1.0,0.304878056049,-2.31707310677,-3.71951246262,1.0,0.0,0.0,0.0,1.0,0.0,0.0,0.0,1.0,-0.349553442383,0.641646044922,-8.18338127441,1.0,0.0,0.0,0.0,1.0,0.0,0.0,0.0,1.0
1463503076671211879,417,1463503076668184408,,11.6394042969,-1.44842803478,66.0941619873,0.0100029995665,1.0,0.0,0.0,0.0,1.0,0.0,0.0,0.0,1.0,-1.15853655338,-0.12195122242,-5.67073154449,1.0,0.0,0.0,0.0,1.0,0.0,0.0,0.0,1.0,-0.569819995117,0.531512805087,-8.48505126812,1.0,0.0,0.0,0.0,1.0,0.0,0.0,0.0,1.0
1463503076679956663,418,1463503076678160883,,11.5212974548,-1.40164256096,65.8365325928,0.010006999597,1.0,0.0,0.0,0.0,1.0,0.0,0.0,0.0,1.0,-4.39024400711,4.32926845551,-8.04878044128,1.0,0.0,0.0,0.0,1.0,0.0,0.0,0.0,1.0,-0.497993945312,0.373495458984,-8.41322404927,1.0,0.0,0.0,0.0,1.0,0.0,0.0,0.0,1.0
1463503076691363312,419,1463503076688178304,,11.3741140366,-1.33027923107,65.5698623657,0.00999100040644,1.0,0.0,0.0,0.0,1.0,0.0,0.0,0.0,1.0,-6.89024400711,7.74390268326,-9.69512176514,1.0,0.0,0.0,0.0,1.0,0.0,0.0,0.0,1.0,-0.684741674805,0.474051928711,-8.70531723633,1.0,0.0,0.0,0.0,1.0,0.0,0.0,0.0,1.0
1463503076701090458,420,1463503076698144308,,11.1893110275,-1.21622228622,65.2800292969,0.0100010000169,1.0,0.0,0.0,0.0,1.0,0.0,0.0,0.0,1.0,-9.32926845551,11.4024391174,-12.7439022064,1.0,0.0,0.0,0.0,1.0,0.0,0.0,0.0,1.0,-0.646434448242,0.703895288086,-8.66222219097,1.0,0.0,0.0,0.0,1.0,0.0,0.0,0.0,1.0
1463503076710768478,421,1463503076708188767,,11.008140564,-1.04931151867,64.9740447998,0.00999800022691,1.0,0.0,0.0,0.0,1.0,0.0,0.0,0.0,1.0,-9.51219558716,15.2439022064,-15.0609760284,1.0,0.0,0.0,0.0,1.0,0.0,0.0,0.0,1.0,-0.46447512207,0.656011254883,-8.94952580566,1.0,0.0,0.0,0.0,1.0,0.0,0.0,0.0,1.0
1463503076720554180,422,1463503076718187122,,10.820435524,-0.854797840118,64.6452484131,0.0100050000474,1.0,0.0,0.0,0.0,1.0,0.0,0.0,0.0,1.0,-10.1219511032,16.2195110321,-17.4390239716,1.0,0.0,0.0,0.0,1.0,0.0,0.0,0.0,1.0,-0.220266552734,0.708683691406,-9.33259748677,1.0,0.0,0.0,0.0,1.0,0.0,0.0,0.0,1.0
1463503076730063671,423,1463503076728239395,,10.6313180923,-0.643466413021,64.3048934937,0.0100010000169,1.0,0.0,0.0,0.0,1.0,0.0,0.0,0.0,1.0,-10.7926826477,17.6829280853,-18.7804889679,1.0,0.0,0.0,0.0,1.0,0.0,0.0,0.0,1.0,-0.177170922852,0.656011254883,-9.65342167827,1.0,0.0,0.0,0.0,1.0,0.0,0.0,0.0,1.0
1463503076739969921,424,1463503076738174558,,10.4386882782,-0.418141067028,63.9581947327,0.0100039998069,1.0,0.0,0.0,0.0,1.0,0.0,0.0,0.0,1.0,-11.341463089,18.9024391174,-19.5121955872,1.0,0.0,0.0,0.0,1.0,0.0,0.0,0.0,1.0,-0.119710083008,0.665588061523,-10.2567599121,1.0,0.0,0.0,0.0,1.0,0.0,0.0,0.0,1.0
1463503076749934258,425,1463503076748197710,,10.24031353,-0.19640545547,63.6114196777,0.00999599974602,1.0,0.0,0.0,0.0,1.0,0.0,0.0,0.0,1.0,-11.5243911743,19.0853652954,-19.4512195587,1.0,0.0,0.0,0.0,1.0,0.0,0.0,0.0,1.0,-0.15801730957,0.785298144531,-10.7260234375,1.0,0.0,0.0,0.0,1.0,0.0,0.0,0.0,1.0
1463503076759962203,426,1463503076758179186,,10.0662231445,0.0208683628589,63.2628898621,0.00999999977648,1.0,0.0,0.0,0.0,1.0,0.0,0.0,0.0,1.0,-10.3658542633,19.9390239716,-19.6341457367,1.0,0.0,0.0,0.0,1.0,0.0,0.0,0.0,1.0,-0.363918652344,0.574608398438,-11.2288057861,1.0,0.0,0.0,0.0,1.0,0.0,0.0,0.0,1.0
1463503076770035679,427,1463503076768225260,,9.89383220673,0.220243409276,62.9287528992,0.0100020002574,1.0,0.0,0.0,0.0,1.0,0.0,0.0,0.0,1.0,-11.0365858078,20.6097564697,-18.1707305908,1.0,0.0,0.0,0.0,1.0,0.0,0.0,0.0,1.0,-0.77093293457,0.435744702148,-11.7172229248,1.0,0.0,0.0,0.0,1.0,0.0,0.0,0.0,1.0
1463503076779924373,428,1463503076778137345,,9.74543952942,0.419385045767,62.6113586426,0.0099950004369,1.0,0.0,0.0,0.0,1.0,0.0,0.0,0.0,1.0,-10.3048782349,22.0731716156,-16.6463413239,1.0,0.0,0.0,0.0,1.0,0.0,0.0,0.0,1.0,-0.995987890625,0.105344873047,-12.1721212402,1.0,0.0,0.0,0.0,1.0,0.0,0.0,0.0,1.0
1463503076789928198,429,1463503076788113351,,9.61249542236,0.602958440781,62.3175697327,0.0100050000474,1.0,0.0,0.0,0.0,1.0,0.0,0.0,0.0,1.0,-8.96341514587,23.2317085266,-14.3292694092,1.0,0.0,0.0,0.0,1.0,0.0,0.0,0.0,1.0,-1.49398183594,0.0814028564453,-12.5887123291,1.0,0.0,0.0,0.0,1.0,0.0,0.0,0.0,1.0
1463503076799917436,430,1463503076798139889,,9.52192687988,0.809195995331,62.0555419922,0.00999899953604,1.0,0.0,0.0,0.0,1.0,0.0,0.0,0.0,1.0,-5.91463422775,27.0731716156,-11.7073173523,1.0,0.0,0.0,0.0,1.0,0.0,0.0,0.0,1.0,-1.72382519531,-0.172382519531,-12.8903817383,1.0,0.0,0.0,0.0,1.0,0.0,0.0,0.0,1.0
1463503076809945953,431,1463503076808144235,,9.47621250153,1.06846106052,61.8203887939,0.0100039998069,1.0,0.0,0.0,0.0,1.0,0.0,0.0,0.0,1.0,-2.07317066193,30.6707305908,-9.51219558716,1.0,0.0,0.0,0.0,1.0,0.0,0.0,0.0,1.0,-1.16358193377,-0.320823022461,-12.7084224121,1.0,0.0,0.0,0.0,1.0,0.0,0.0,0.0,1.0
1463503076819939984,432,1463503076818152956,,9.50144100189,1.35385370255,61.6332092285,0.00999800022691,1.0,0.0,0.0,0.0,1.0,0.0,0.0,0.0,1.0,0.914634168148,29.5731697083,-4.51219558716,1.0,0.0,0.0,0.0,1.0,0.0,0.0,0.0,1.0,-0.076614453125,-1.20188930646,-12.2056400635,1.0,0.0,0.0,0.0,1.0,0.0,0.0,0.0,1.0
1463503076830043103,433,1463503076828210856,,9.50067710876,1.57874953747,61.4759025574,0.010006999597,1.0,0.0,0.0,0.0,1.0,0.0,0.0,0.0,1.0,1.76829278469,25.7317085266,-0.731707334518,1.0,0.0,0.0,0.0,1.0,0.0,0.0,0.0,1.0,-0.402225878906,-0.488417138672,-13.0579758545,1.0,0.0,0.0,0.0,1.0,0.0,0.0,0.0,1.0
1463503076840018275,434,1463503076838209940,,9.51071929932,1.76929032803,61.3538284302,0.0100060002878,1.0,0.0,0.0,0.0,1.0,0.0,0.0,0.0,1.0,3.47560977936,21.8292694092,3.53658556938,1.0,0.0,0.0,0.0,1.0,0.0,0.0,0.0,1.0,-0.0957680664062,-0.344765039063,-13.5080857666,1.0,0.0,0.0,0.0,1.0,0.0,0.0,0.0,1.0
1463503076849956876,435,1463503076848171359,,9.53113269806,1.89141118526,61.2529602051,0.00999800022691,1.0,0.0,0.0,0.0,1.0,0.0,0.0,0.0,1.0,8.78048801422,20.2439022064,6.09756088257,1.0,0.0,0.0,0.0,1.0,0.0,0.0,0.0,1.0,-1.28808049316,0.746990917969,-14.2598650879,1.0,0.0,0.0,0.0,1.0,0.0,0.0,0.0,1.0
1463503076859878703,436,1463503076858137258,,9.60406112671,2.01282429695,61.2077255249,0.00999199971557,1.0,0.0,0.0,0.0,1.0,0.0,0.0,0.0,1.0,12.4390249252,19.4512195587,11.8292684555,1.0,0.0,0.0,0.0,1.0,0.0,0.0,0.0,1.0,-0.828393774414,0.363918652344,-14.2263462646,1.0,0.0,0.0,0.0,1.0,0.0,0.0,0.0,1.0
1463503076869824598,437,1463503076868112066,,9.69625473022,2.16014790535,61.2387580872,0.00999400019646,1.0,0.0,0.0,0.0,1.0,0.0,0.0,0.0,1.0,15.2439022064,23.5365848541,18.9024391174,1.0,0.0,0.0,0.0,1.0,0.0,0.0,0.0,1.0,-0.847547387695,0.627280834961,-13.9486188721,1.0,0.0,0.0,0.0,1.0,0.0,0.0,0.0,1.0
1463503076879918756,438,1463503076878102815,,9.91865921021,2.33528161049,61.3001060486,0.00999599974602,1.0,0.0,0.0,0.0,1.0,0.0,0.0,0.0,1.0,23.1097564697,23.475610733,21.7682933807,1.0,0.0,0.0,0.0,1.0,0.0,0.0,0.0,1.0,0.0191536132812,-0.61770402832,-13.0962830811,1.0,0.0,0.0,0.0,1.0,0.0,0.0,0.0,1.0
1463503076889874496,439,1463503076888122477,,10.1962013245,2.50203347206,61.4025039673,0.0100100003183,1.0,0.0,0.0,0.0,1.0,0.0,0.0,0.0,1.0,25.0609760284,22.682926178,25.8536586761,1.0,0.0,0.0,0.0,1.0,0.0,0.0,0.0,1.0,0.205901342773,-1.37906015625,-12.4642138428,1.0,0.0,0.0,0.0,1.0,0.0,0.0,0.0,1.0
1463503076899912444,440,1463503076898110308,,10.4446315765,2.65140366554,61.5490379333,0.00998799968511,1.0,0.0,0.0,0.0,1.0,0.0,0.0,0.0,1.0,23.5365848541,18.9024391174,31.0365867615,1.0,0.0,0.0,0.0,1.0,0.0,0.0,0.0,1.0,0.857124194336,-1.03429511719,-11.8273562012,1.0,0.0,0.0,0.0,1.0,0.0,0.0,0.0,1.0
1463503076911821605,441,1463503076908104756,,10.6824436188,2.75602459908,61.7081260681,0.0100039998069,1.0,0.0,0.0,0.0,1.0,0.0,0.0,0.0,1.0,22.9878044128,13.1097564697,33.3536605835,1.0,0.0,0.0,0.0,1.0,0.0,0.0,0.0,1.0,1.20667770978,-0.9193734375,-11.4873795654,1.0,0.0,0.0,0.0,1.0,0.0,0.0,0.0,1.0
1463503076921827514,442,1463503076918130773,,10.8849430084,2.81282877922,61.8674583435,0.00999999977648,1.0,0.0,0.0,0.0,1.0,0.0,0.0,0.0,1.0,20.5487823486,5.79268312454,34.817073822,1.0,0.0,0.0,0.0,1.0,0.0,0.0,0.0,1.0,1.70467158203,-0.694318481445,-10.9223479736,1.0,0.0,0.0,0.0,1.0,0.0,0.0,0.0,1.0
1463503076931991427,443,1463503076928123345,,11.0026340485,2.75261545181,62.0465888977,0.0100010000169,1.0,0.0,0.0,0.0,1.0,0.0,0.0,0.0,1.0,14.6341466904,1.8292683363,37.7439041138,1.0,0.0,0.0,0.0,1.0,0.0,0.0,0.0,1.0,0.3064578125,-0.229843359375,-11.0133276367,1.0,0.0,0.0,0.0,1.0,0.0,0.0,0.0,1.0
1463503076942045941,444,1463503076938329977,,11.0478248596,2.63246870041,62.2512931824,0.0102089997381,1.0,0.0,0.0,0.0,1.0,0.0,0.0,0.0,1.0,8.29268264771,-2.37804889679,40.7926826477,1.0,0.0,0.0,0.0,1.0,0.0,0.0,0.0,1.0,0.0909796630859,-0.0383072265625,-10.3668931885,1.0,0.0,0.0,0.0,1.0,0.0,0.0,0.0,1.0
1463503076951854981,445,1463503076948112084,,11.0238857269,2.4893450737,62.4708213806,0.00979200005531,1.0,0.0,0.0,0.0,1.0,0.0,0.0,0.0,1.0,2.25609779358,-2.43902444839,43.2317085266,1.0,0.0,0.0,0.0,1.0,0.0,0.0,0.0,1.0,-0.363918652344,0.124498486328,-10.5919481445,1.0,0.0,0.0,0.0,1.0,0.0,0.0,0.0,1.0
1463503076961826090,446,1463503076958103770,,10.985956192,2.32251739502,62.678024292,0.00999699998647,1.0,0.0,0.0,0.0,1.0,0.0,0.0,0.0,1.0,-0.914634168148,-4.69512224197,41.8292694092,1.0,0.0,0.0,0.0,1.0,0.0,0.0,0.0,1.0,-0.387860668945,-0.225054956055,-9.91678327637,1.0,0.0,0.0,0.0,1.0,0.0,0.0,0.0,1.0
1463503076971759534,447,1463503076968104574,,10.91563797,2.16823768616,62.8524246216,0.00999999977648,1.0,0.0,0.0,0.0,1.0,0.0,0.0,0.0,1.0,-4.08536577225,-3.29268312454,38.1707305908,1.0,0.0,0.0,0.0,1.0,0.0,0.0,0.0,1.0,-0.531512805087,-0.225054956055,-9.36132790669,1.0,0.0,0.0,0.0,1.0,0.0,0.0,0.0,1.0
1463503076980314482,448,1463503076978105325,,10.867017746,2.00836014748,62.9809989929,0.00999800022691,1.0,0.0,0.0,0.0,1.0,0.0,0.0,0.0,1.0,-6.46341466904,-1.40243899822,32.9268302917,1.0,0.0,0.0,0.0,1.0,0.0,0.0,0.0,1.0,-1.11569797363,-0.991199487305,-9.20331118164,1.0,0.0,0.0,0.0,1.0,0.0,0.0,0.0,1.0
1463503076992278499,449,1463503076988116547,,10.7464075089,1.86266410351,63.0637817383,0.0100020002574,1.0,0.0,0.0,0.0,1.0,0.0,0.0,0.0,1.0,-11.4024391174,-0.975609779358,28.2317066193,1.0,0.0,0.0,0.0,1.0,0.0,0.0,0.0,1.0,-1.04866025408,-0.598550451572,-8.60476135112,1.0,0.0,0.0,0.0,1.0,0.0,0.0,0.0,1.0
1463503077001626964,450,1463503076998161475,,10.5311450958,1.7497959137,63.0794868469,0.0100029995665,1.0,0.0,0.0,0.0,1.0,0.0,0.0,0.0,1.0,-16.8902435303,0.853658556938,21.158536911,1.0,0.0,0.0,0.0,1.0,0.0,0.0,0.0,1.0,-1.09175595703,0.0,-8.97346782227,1.0,0.0,0.0,0.0,1.0,0.0,0.0,0.0,1.0
1463503077009823027,451,1463503077008168425,,10.2889347076,1.66461598873,63.0277481079,0.00999400019646,1.0,0.0,0.0,0.0,1.0,0.0,0.0,0.0,1.0,-20.975610733,1.95121955872,14.0243902206,1.0,0.0,0.0,0.0,1.0,0.0,0.0,0.0,1.0,-1.01992990723,-0.215478149414,-8.74362446289,1.0,0.0,0.0,0.0,1.0,0.0,0.0,0.0,1.0
1463503077019846960,452,1463503077018173396,,9.97853279114,1.6288715601,62.9085922241,0.0100020002574,1.0,0.0,0.0,0.0,1.0,0.0,0.0,0.0,1.0,-25.7317085266,2.86585378647,7.07317113876,1.0,0.0,0.0,0.0,1.0,0.0,0.0,0.0,1.0,-0.574608398438,0.105344873047,-8.53772370464,1.0,0.0,0.0,0.0,1.0,0.0,0.0,0.0,1.0
1463503077029930647,453,1463503077028235776,,9.61303520203,1.62450921535,62.7275886536,0.00999599974602,1.0,0.0,0.0,0.0,1.0,0.0,0.0,0.0,1.0,-29.3902435303,1.8292683363,1.03658533096,1.0,0.0,0.0,0.0,1.0,0.0,0.0,0.0,1.0,-0.0957680664062,0.402225878906,-8.34139799946,1.0,0.0,0.0,0.0,1.0,0.0,0.0,0.0,1.0
1463503077040008552,454,1463503077038189277,,9.19318580627,1.67380821705,62.5042915344,0.0100090000778,1.0,0.0,0.0,0.0,1.0,0.0,0.0,0.0,1.0,-30.975610733,2.37804889679,-3.17073178291,1.0,0.0,0.0,0.0,1.0,0.0,0.0,0.0,1.0,0.493205541992,0.952892260742,-7.74763657227,1.0,0.0,0.0,0.0,1.0,0.0,0.0,0.0,1.0
1463503077049841399,455,1463503077048221181,,8.81646537781,1.70869386196,62.2063522339,0.0100130001083,1.0,0.0,0.0,0.0,1.0,0.0,0.0,0.0,1.0,-29.0853672028,0.0,-10.3658542633,1.0,0.0,0.0,0.0,1.0,0.0,0.0,0.0,1.0,0.483628735352,0.61770402832,-7.6375032959,1.0,0.0,0.0,0.0,1.0,0.0,0.0,0.0,1.0
1463503077060341381,456,1463503077058191404,,8.47161388397,1.71273100376,61.8546485901,0.00999699998647,1.0,0.0,0.0,0.0,1.0,0.0,0.0,0.0,1.0,-27.0731716156,-2.92682933807,-15.4268302917,1.0,0.0,0.0,0.0,1.0,0.0,0.0,0.0,1.0,0.378283862305,0.478840332031,-7.50821640625,1.0,0.0,0.0,0.0,1.0,0.0,0.0,0.0,1.0
1463503077069939695,457,1463503077068268996,,8.12228012085,1.73907053471,61.4612464905,0.0099849998951,1.0,0.0,0.0,0.0,1.0,0.0,0.0,0.0,1.0,-26.2804889679,-2.19512200356,-19.7560977936,1.0,0.0,0.0,0.0,1.0,0.0,0.0,0.0,1.0,0.521935925381,0.679953271484,-7.46512077637,1.0,0.0,0.0,0.0,1.0,0.0,0.0,0.0,1.0
1463503077080012285,458,1463503077078187905,,7.77024126053,1.73363780975,61.0467987061,0.0100020002574,1.0,0.0,0.0,0.0,1.0,0.0,0.0,0.0,1.0,-25.0,-3.47560977936,-21.5853652954,1.0,0.0,0.0,0.0,1.0,0.0,0.0,0.0,1.0,0.263362164351,0.900219824219,-7.31668027344,1.0,0.0,0.0,0.0,1.0,0.0,0.0,0.0,1.0
1463503077090226002,459,1463503077088462469,,7.46131563187,1.7176015377,60.623336792,0.0100010000169,1.0,0.0,0.0,0.0,1.0,0.0,0.0,0.0,1.0,-23.5365848541,-2.86585378647,-22.682926178,1.0,0.0,0.0,0.0,1.0,0.0,0.0,0.0,1.0,0.0574608398438,0.531512805087,-6.96233842773,1.0,0.0,0.0,0.0,1.0,0.0,0.0,0.0,1.0
1463503077099832339,460,1463503077098198576,,7.11923313141,1.70060050488,60.2054252625,0.00999899953604,1.0,0.0,0.0,0.0,1.0,0.0,0.0,0.0,1.0,-21.0975627899,-1.09756100178,-22.1951236725,1.0,0.0,0.0,0.0,1.0,0.0,0.0,0.0,1.0,-0.15322890625,1.41257897949,-7.4268135498,1.0,0.0,0.0,0.0,1.0,0.0,0.0,0.0,1.0
1463503077109793758,461,1463503077108151556,,6.81412887573,1.68640375137,59.7963638306,0.00999400019646,1.0,0.0,0.0,0.0,1.0,0.0,0.0,0.0,1.0,-17.5000019073,-1.46341466904,-21.2804889679,1.0,0.0,0.0,0.0,1.0,0.0,0.0,0.0,1.0,-0.0239420166016,1.47961662598,-7.57046564941,1.0,0.0,0.0,0.0,1.0,0.0,0.0,0.0,1.0
1463503077119832227,462,1463503077118147670,,6.5738401413,1.69196677208,59.3903579712,0.0100010000169,1.0,0.0,0.0,0.0,1.0,0.0,0.0,0.0,1.0,-12.5609760284,0.975609779358,-21.2804889679,1.0,0.0,0.0,0.0,1.0,0.0,0.0,0.0,1.0,-0.0574608398438,1.28808049316,-7.52258161621,1.0,0.0,0.0,0.0,1.0,0.0,0.0,0.0,1.0
1463503077129824226,463,1463503077128164675,,6.3973608017,1.71737718582,58.9778213501,0.0100020002574,1.0,0.0,0.0,0.0,1.0,0.0,0.0,0.0,1.0,-7.74390268326,0.853658556938,-21.9512195587,1.0,0.0,0.0,0.0,1.0,0.0,0.0,0.0,1.0,0.258573779297,1.19231249982,-8.19295808105,1.0,0.0,0.0,0.0,1.0,0.0,0.0,0.0,1.0
1463503077139827894,464,1463503077138170532,,6.30195379257,1.80027449131,58.5650939941,0.00999800022691,1.0,0.0,0.0,0.0,1.0,0.0,0.0,0.0,1.0,-1.8292683363,2.80487799644,-22.2560977936,1.0,0.0,0.0,0.0,1.0,0.0,0.0,0.0,1.0,0.814028564453,0.871489404297,-8.03015236816,1.0,0.0,0.0,0.0,1.0,0.0,0.0,0.0,1.0
1463503077149782749,465,1463503077148148361,,6.21021413803,1.86473405361,58.1634941101,0.0100010000169,1.0,0.0,0.0,0.0,1.0,0.0,0.0,0.0,1.0,-0.487804889679,1.95121955872,-20.975610733,1.0,0.0,0.0,0.0,1.0,0.0,0.0,0.0,1.0,0.756567724609,1.08696755371,-8.53772370464,1.0,0.0,0.0,0.0,1.0,0.0,0.0,0.0,1.0
1463503077159789856,466,1463503077158164271,,6.11190843582,1.93772923946,57.7918548584,0.0100010000169,1.0,0.0,0.0,0.0,1.0,0.0,0.0,0.0,1.0,-0.243902444839,0.975609779358,-17.8048782349,1.0,0.0,0.0,0.0,1.0,0.0,0.0,0.0,1.0,1.13485158691,1.28808049316,-8.71968244629,1.0,0.0,0.0,0.0,1.0,0.0,0.0,0.0,1.0
1463503077169806548,467,1463503077168158198,,6.01573514938,1.988052845,57.4395980835,0.00999699998647,1.0,0.0,0.0,0.0,1.0,0.0,0.0,0.0,1.0,0.18292683363,-1.2195122242,-15.6097564697,1.0,0.0,0.0,0.0,1.0,0.0,0.0,0.0,1.0,1.23061965332,1.40300217285,-9.08838950195,1.0,0.0,0.0,0.0,1.0,0.0,0.0,0.0,1.0
1463503077179772239,468,1463503077178154573,,5.94321775436,2.02806615829,57.1028556824,0.0100020002574,1.0,0.0,0.0,0.0,1.0,0.0,0.0,0.0,1.0,1.64634156227,-3.23170733452,-13.841463089,1.0,0.0,0.0,0.0,1.0,0.0,0.0,0.0,1.0,1.4604630127,1.2976572998,-9.22725319824,1.0,0.0,0.0,0.0,1.0,0.0,0.0,0.0,1.0
1463503077190449813,469,1463503077188228102,,5.90176486969,2.01994919777,56.7818336487,0.00999999977648,1.0,0.0,0.0,0.0,1.0,0.0,0.0,0.0,1.0,2.74390244484,-6.34146356583,-12.0121955872,1.0,0.0,0.0,0.0,1.0,0.0,0.0,0.0,1.0,1.2497732666,0.995987890625,-9.5193463853,1.0,0.0,0.0,0.0,1.0,0.0,0.0,0.0,1.0
1463503077199760405,470,1463503077198175820,,5.88893461227,1.99766814709,56.4881744385,0.0100039998069,1.0,0.0,0.0,0.0,1.0,0.0,0.0,0.0,1.0,2.68292689323,-7.25609779358,-9.26829242706,1.0,0.0,0.0,0.0,1.0,0.0,0.0,0.0,1.0,1.22104284668,0.517147558594,-9.60074924175,1.0,0.0,0.0,0.0,1.0,0.0,0.0,0.0,1.0
1463503077211055622,471,1463503077208162661,,5.87543582916,1.95509946346,56.2118034363,0.00999400019646,1.0,0.0,0.0,0.0,1.0,0.0,0.0,0.0,1.0,1.09756100178,-7.80487823486,-7.56097555161,1.0,0.0,0.0,0.0,1.0,0.0,0.0,0.0,1.0,1.03908344744,0.277727392578,-10.060435376,1.0,0.0,0.0,0.0,1.0,0.0,0.0,0.0,1.0
1463503077220221336,472,1463503077218168153,,5.85379123688,1.92326831818,55.9492073059,0.0100039998069,1.0,0.0,0.0,0.0,1.0,0.0,0.0,0.0,1.0,-0.487804889679,-8.04878044128,-6.15853643417,1.0,0.0,0.0,0.0,1.0,0.0,0.0,0.0,1.0,1.31202250977,0.15801730957,-10.1753570557,1.0,0.0,0.0,0.0,1.0,0.0,0.0,0.0,1.0
1463503077230110447,473,1463503077228203756,,5.82846784592,1.86853861809,55.6893119812,0.0100299995393,1.0,0.0,0.0,0.0,1.0,0.0,0.0,0.0,1.0,-1.76829278469,-8.10975551605,-5.85365867615,1.0,0.0,0.0,0.0,1.0,0.0,0.0,0.0,1.0,0.957680664062,-0.00478840332031,-10.6972930176,1.0,0.0,0.0,0.0,1.0,0.0,0.0,0.0,1.0
1463503077241893537,474,1463503077238175750,,5.80029678345,1.802095294,55.4321098328,0.00997100025415,1.0,0.0,0.0,0.0,1.0,0.0,0.0,0.0,1.0,-1.34146344662,-6.82926845551,-5.85365867615,1.0,0.0,0.0,0.0,1.0,0.0,0.0,0.0,1.0,0.488417138672,0.143652099609,-10.9079827637,1.0,0.0,0.0,0.0,1.0,0.0,0.0,0.0,1.0
1463503077250058760,475,1463503077248233963,,5.7910284996,1.75080192089,55.1674842834,0.0100090000778,1.0,0.0,0.0,0.0,1.0,0.0,0.0,0.0,1.0,-0.853658556938,-4.75609779358,-6.7682929039,1.0,0.0,0.0,0.0,1.0,0.0,0.0,0.0,1.0,0.378283862305,-0.129286889648,-11.4682259521,1.0,0.0,0.0,0.0,1.0,0.0,0.0,0.0,1.0
1463503077260705806,476,1463503077258154747,,5.7674036026,1.71953117847,54.8956718445,0.00998600013554,1.0,0.0,0.0,0.0,1.0,0.0,0.0,0.0,1.0,-0.487804889679,-2.98780488968,-7.68292665482,1.0,0.0,0.0,0.0,1.0,0.0,0.0,0.0,1.0,0.411802685547,0.248996972656,-11.884817041,1.0,0.0,0.0,0.0,1.0,0.0,0.0,0.0,1.0
1463503077270024056,477,1463503077268177274,,5.76320981979,1.72013700008,54.6107406616,0.00999899953604,1.0,0.0,0.0,0.0,1.0,0.0,0.0,0.0,1.0,0.731707334518,-0.853658556938,-9.20731735229,1.0,0.0,0.0,0.0,1.0,0.0,0.0,0.0,1.0,0.60812722168,0.0957680664062,-12.0476227539,1.0,0.0,0.0,0.0,1.0,0.0,0.0,0.0,1.0
1463503077282051734,478,1463503077278155833,,5.78034257889,1.73394870758,54.3123435974,0.00999699998647,1.0,0.0,0.0,0.0,1.0,0.0,0.0,0.0,1.0,0.243902444839,-1.2195122242,-10.6097564697,1.0,0.0,0.0,0.0,1.0,0.0,0.0,0.0,1.0,0.962469067383,-0.483628735352,-12.3397153564,1.0,0.0,0.0,0.0,1.0,0.0,0.0,0.0,1.0
1463503077290393716,479,1463503077288198833,,5.7675948143,1.73095858097,54.0013313293,0.0100170001388,1.0,0.0,0.0,0.0,1.0,0.0,0.0,0.0,1.0,-1.64634156227,-1.95121955872,-11.7073173523,1.0,0.0,0.0,0.0,1.0,0.0,0.0,0.0,1.0,0.737414111328,-0.258573779297,-12.4450602295,1.0,0.0,0.0,0.0,1.0,0.0,0.0,0.0,1.0
1463503077300980123,480,1463503077298169421,,5.75864458084,1.7182996273,53.677444458,0.00999400019646,1.0,0.0,0.0,0.0,1.0,0.0,0.0,0.0,1.0,-2.92682933807,-3.90243911743,-12.9268293381,1.0,0.0,0.0,0.0,1.0,0.0,0.0,0.0,1.0,0.92416184082,-0.627280834961,-12.4019645996,1.0,0.0,0.0,0.0,1.0,0.0,0.0,0.0,1.0
1463503077311544651,481,1463503077308169234,,5.74318885803,1.6928999424,53.3272361755,0.0099950004369,1.0,0.0,0.0,0.0,1.0,0.0,0.0,0.0,1.0,-4.69512224197,-6.28048801422,-15.3658533096,1.0,0.0,0.0,0.0,1.0,0.0,0.0,0.0,1.0,1.11090957031,-0.885854614258,-12.3971761963,1.0,0.0,0.0,0.0,1.0,0.0,0.0,0.0,1.0
1463503077322001236,482,1463503077318177070,,5.70327043533,1.64350104332,52.9375953674,0.00999899953604,1.0,0.0,0.0,0.0,1.0,0.0,0.0,0.0,1.0,-5.54878091812,-9.32926845551,-18.9634151459,1.0,0.0,0.0,0.0,1.0,0.0,0.0,0.0,1.0,1.1875240965,-0.560243188477,-12.6126543457,1.0,0.0,0.0,0.0,1.0,0.0,0.0,0.0,1.0
1463503077331937337,483,1463503077328773636,,5.6675786972,1.55886602402,52.4829025269,0.0100149996579,1.0,0.0,0.0,0.0,1.0,0.0,0.0,0.0,1.0,-3.90243911743,-12.7439022064,-25.0609760284,1.0,0.0,0.0,0.0,1.0,0.0,0.0,0.0,1.0,1.02471831055,-0.31124621582,-12.6844803955,1.0,0.0,0.0,0.0,1.0,0.0,0.0,0.0,1.0
1463503077341450111,484,1463503077338229366,,5.68654203415,1.44912791252,51.962600708,0.00999100040644,1.0,0.0,0.0,0.0,1.0,0.0,0.0,0.0,1.0,0.243902444839,-15.6707315445,-31.5243930817,1.0,0.0,0.0,0.0,1.0,0.0,0.0,0.0,1.0,0.948103857422,-0.622492431641,-12.6701151855,1.0,0.0,0.0,0.0,1.0,0.0,0.0,0.0,1.0
1463503077351376209,485,1463503077348218031,,5.7138338089,1.28964388371,51.3673400879,0.00999299995601,1.0,0.0,0.0,0.0,1.0,0.0,0.0,0.0,1.0,1.40243899822,-18.9024391174,-38.7195129395,1.0,0.0,0.0,0.0,1.0,0.0,0.0,0.0,1.0,0.368707055664,-0.579396801758,-12.9191121582,1.0,0.0,0.0,0.0,1.0,0.0,0.0,0.0,1.0
1463503077362253153,486,1463503077358239724,,5.72680854797,1.12136769295,50.7280044556,0.0100029995665,1.0,0.0,0.0,0.0,1.0,0.0,0.0,0.0,1.0,1.15853655338,-17.2560977936,-43.2317085266,1.0,0.0,0.0,0.0,1.0,0.0,0.0,0.0,1.0,-0.359130249023,-0.3064578125,-13.3979524902,1.0,0.0,0.0,0.0,1.0,0.0,0.0,0.0,1.0
1463503077371724041,487,1463503077368187077,,5.73549461365,0.976116657257,50.0442695618,0.0100010000169,1.0,0.0,0.0,0.0,1.0,0.0,0.0,0.0,1.0,0.365853667259,-15.2439022064,-47.9268302917,1.0,0.0,0.0,0.0,1.0,0.0,0.0,0.0,1.0,-0.426167895508,-0.359130249023,-12.8999585449,1.0,0.0,0.0,0.0,1.0,0.0,0.0,0.0,1.0
1463503077381658163,488,1463503077378197727,,5.73604536057,0.877781748772,49.3506393433,0.00999899953604,1.0,0.0,0.0,0.0,1.0,0.0,0.0,0.0,1.0,-0.304878056049,-12.6219520569,-49.207321167,1.0,0.0,0.0,0.0,1.0,0.0,0.0,0.0,1.0,-0.0143652099609,-0.292092584273,-12.5935007324,1.0,0.0,0.0,0.0,1.0,0.0,0.0,0.0,1.0
1463503077391380828,489,1463503077388196290,,5.73581647873,0.788185596466,48.641418457,0.0100010000169,1.0,0.0,0.0,0.0,1.0,0.0,0.0,0.0,1.0,-0.243902444839,-11.7682924271,-50.8536605835,1.0,0.0,0.0,0.0,1.0,0.0,0.0,0.0,1.0,-0.0622492431641,-0.225054956055,-11.7459533447,1.0,0.0,0.0,0.0,1.0,0.0,0.0,0.0,1.0
1463503077401311824,490,1463503077398195478,,5.77471733093,0.707241773605,47.9104309082,0.00999699998647,1.0,0.0,0.0,0.0,1.0,0.0,0.0,0.0,1.0,3.90243911743,-11.4024391174,-53.1097602844,1.0,0.0,0.0,0.0,1.0,0.0,0.0,0.0,1.0,-0.0287304199219,-0.15801730957,-11.4825911621,1.0,0.0,0.0,0.0,1.0,0.0,0.0,0.0,1.0
1463503077411459015,491,1463503077408194197,,5.85847663879,0.641631126404,47.1406936646,0.00999899953604,1.0,0.0,0.0,0.0,1.0,0.0,0.0,0.0,1.0,8.04878044128,-12.4390249252,-56.8902435303,1.0,0.0,0.0,0.0,1.0,0.0,0.0,0.0,1.0,0.363918652344,-0.215478149414,-10.9606552002,1.0,0.0,0.0,0.0,1.0,0.0,0.0,0.0,1.0
1463503077421810316,492,1463503077418156137,,5.99085426331,0.574688971043,46.3409614563,0.0100020002574,1.0,0.0,0.0,0.0,1.0,0.0,0.0,0.0,1.0,14.0243902206,-11.7073173523,-59.9390258789,1.0,0.0,0.0,0.0,1.0,0.0,0.0,0.0,1.0,0.0957680664062,-0.00478840332031,-10.9510783936,1.0,0.0,0.0,0.0,1.0,0.0,0.0,0.0,1.0
1463503077432341554,493,1463503077428673466,,6.17794895172,0.534848093987,45.5291748047,0.00999899953604,1.0,0.0,0.0,0.0,1.0,0.0,0.0,0.0,1.0,18.9634151459,-11.2804880142,-61.2195167542,1.0,0.0,0.0,0.0,1.0,0.0,0.0,0.0,1.0,0.445321508789,-0.119710083008,-10.7164466309,1.0,0.0,0.0,0.0,1.0,0.0,0.0,0.0,1.0
1463503077443787327,494,1463503077438378837,,6.34237384796,0.509364247322,44.7286567688,0.0100010000169,1.0,0.0,0.0,0.0,1.0,0.0,0.0,0.0,1.0,21.0365848541,-8.65853691101,-60.3048782349,1.0,0.0,0.0,0.0,1.0,0.0,0.0,0.0,1.0,0.186747729492,0.679953271484,-10.6494089844,1.0,0.0,0.0,0.0,1.0,0.0,0.0,0.0,1.0
1463503077455557863,495,1463503077450795407,,6.59443950653,0.513599336147,43.7910575867,0.0124380001798,1.0,0.0,0.0,0.0,1.0,0.0,0.0,0.0,1.0,24.2073173523,-7.13414621353,-55.7926826477,1.0,0.0,0.0,0.0,1.0,0.0,0.0,0.0,1.0,0.469263525391,0.521935925381,-10.3668931885,1.0,0.0,0.0,0.0,1.0,0.0,0.0,0.0,1.0
1463503077463271835,496,1463503077458171905,,6.75448179245,0.538893640041,43.2342262268,0.00756900012493,1.0,0.0,0.0,0.0,1.0,0.0,0.0,0.0,1.0,26.2195129395,-4.93902444839,-54.207321167,1.0,0.0,0.0,0.0,1.0,0.0,0.0,0.0,1.0,0.598550451572,0.679953271484,-10.2471831055,1.0,0.0,0.0,0.0,1.0,0.0,0.0,0.0,1.0
1463503077473092492,497,1463503077468153589,,7.00404787064,0.585270106792,42.5330429077,0.00999100040644,1.0,0.0,0.0,0.0,1.0,0.0,0.0,0.0,1.0,30.3048782349,-5.0,-50.7926826477,1.0,0.0,0.0,0.0,1.0,0.0,0.0,0.0,1.0,0.866701000977,0.689530078125,-10.1131078125,1.0,0.0,0.0,0.0,1.0,0.0,0.0,0.0,1.0
1463503077483248904,498,1463503077478177158,,7.3167052269,0.634336054325,41.8577461243,0.0100020002574,1.0,0.0,0.0,0.0,1.0,0.0,0.0,0.0,1.0,35.3658561707,-4.08536577225,-48.2317085266,1.0,0.0,0.0,0.0,1.0,0.0,0.0,0.0,1.0,0.756567724609,0.416591088867,-10.1514150391,1.0,0.0,0.0,0.0,1.0,0.0,0.0,0.0,1.0
1463503077493319828,499,1463503077488174784,,7.70757246017,0.666387498379,41.185962677,0.0100050000474,1.0,0.0,0.0,0.0,1.0,0.0,0.0,0.0,1.0,39.5121955872,-4.32926845551,-47.8658561707,1.0,0.0,0.0,0.0,1.0,0.0,0.0,0.0,1.0,0.416591088867,-0.296881024126,-9.66778688823,1.0,0.0,0.0,0.0,1.0,0.0,0.0,0.0,1.0
1463503077503467436,500,1463503077498174753,,8.15404415131,0.696753442287,40.5111732483,0.00999400019646,1.0,0.0,0.0,0.0,1.0,0.0,0.0,0.0,1.0,41.4634170532,-2.56097555161,-48.5365867615,1.0,0.0,0.0,0.0,1.0,0.0,0.0,0.0,1.0,-0.00478840332031,-1.01992990723,-9.8545340332,1.0,0.0,0.0,0.0,1.0,0.0,0.0,0.0,1.0
1463503077512686965,501,1463503077508155291,,8.58218574524,0.735755801201,39.846988678,0.00999899953604,1.0,0.0,0.0,0.0,1.0,0.0,0.0,0.0,1.0,40.3658561707,-2.25609779358,-47.5,1.0,0.0,0.0,0.0,1.0,0.0,0.0,0.0,1.0,0.0335188255255,-0.938527050781,-9.5432884019,1.0,0.0,0.0,0.0,1.0,0.0,0.0,0.0,1.0
1463503077521688839,502,1463503077518179537,,8.93522930145,0.770388484001,39.2134857178,0.0100039998069,1.0,0.0,0.0,0.0,1.0,0.0,0.0,0.0,1.0,38.4146347046,-2.19512200356,-44.3292694092,1.0,0.0,0.0,0.0,1.0,0.0,0.0,0.0,1.0,-0.0383072265625,-0.0622492431641,-9.14106193848,1.0,0.0,0.0,0.0,1.0,0.0,0.0,0.0,1.0
1463503077531854368,503,1463503077528683374,,9.29724216461,0.763662278652,38.5711936951,0.0100029995665,1.0,0.0,0.0,0.0,1.0,0.0,0.0,0.0,1.0,40.7317085266,-7.43902492523,-44.390247345,1.0,0.0,0.0,0.0,1.0,0.0,0.0,0.0,1.0,0.0718260498047,0.114921679688,-9.53849999858,1.0,0.0,0.0,0.0,1.0,0.0,0.0,0.0,1.0
1463503077543782596,504,1463503077538170881,,9.67057800293,0.739511430264,37.9501075745,0.0099950004369,1.0,0.0,0.0,0.0,1.0,0.0,0.0,0.0,1.0,41.3414649963,-8.78048801422,-42.0731697083,1.0,0.0,0.0,0.0,1.0,0.0,0.0,0.0,1.0,-0.00478840332031,-0.0335188255255,-9.24640681152,1.0,0.0,0.0,0.0,1.0,0.0,0.0,0.0,1.0
1463503077553386015,505,1463503077548151992,,10.0506782532,0.659440517426,37.3616371155,0.00999899953604,1.0,0.0,0.0,0.0,1.0,0.0,0.0,0.0,1.0,40.0,-11.7682924271,-38.2317085266,1.0,0.0,0.0,0.0,1.0,0.0,0.0,0.0,1.0,-0.411802685547,-0.416591088867,-9.4954043687,1.0,0.0,0.0,0.0,1.0,0.0,0.0,0.0,1.0
1463503077563101701,506,1463503077558149149,,10.3975448608,0.560902178288,36.8261566162,0.00999999977648,1.0,0.0,0.0,0.0,1.0,0.0,0.0,0.0,1.0,36.8902435303,-11.8292684555,-32.8048782349,1.0,0.0,0.0,0.0,1.0,0.0,0.0,0.0,1.0,-0.627280834961,-0.416591088867,-9.50498117534,1.0,0.0,0.0,0.0,1.0,0.0,0.0,0.0,1.0
1463503077573263739,507,1463503077568199495,,10.6720027924,0.462969571352,36.3484191895,0.0100039998069,1.0,0.0,0.0,0.0,1.0,0.0,0.0,0.0,1.0,30.6097583771,-11.8292684555,-26.8902454376,1.0,0.0,0.0,0.0,1.0,0.0,0.0,0.0,1.0,-0.531512805087,-0.3064578125,-10.1466266357,1.0,0.0,0.0,0.0,1.0,0.0,0.0,0.0,1.0
1463503077582841163,508,1463503077578163414,,10.8958644867,0.36584597826,35.9441070557,0.00999800022691,1.0,0.0,0.0,0.0,1.0,0.0,0.0,0.0,1.0,25.6707324982,-12.3780488968,-19.3292694092,1.0,0.0,0.0,0.0,1.0,0.0,0.0,0.0,1.0,-0.220266552734,-0.31124621582,-10.0939541992,1.0,0.0,0.0,0.0,1.0,0.0,0.0,0.0,1.0
1463503077593437208,509,1463503077588161144,,11.0648918152,0.258996754885,35.5908088684,0.0100010000169,1.0,0.0,0.0,0.0,1.0,0.0,0.0,0.0,1.0,20.4878044128,-13.1097564697,-13.9634151459,1.0,0.0,0.0,0.0,1.0,0.0,0.0,0.0,1.0,-0.124498486328,-0.277727392578,-10.1083194092,1.0,0.0,0.0,0.0,1.0,0.0,0.0,0.0,1.0
1463503077600418927,510,1463503077598169813,,11.2051048279,0.12044044584,35.2677688599,0.00999999977648,1.0,0.0,0.0,0.0,1.0,0.0,0.0,0.0,1.0,17.5000019073,-14.7560987473,-10.548781395,1.0,0.0,0.0,0.0,1.0,0.0,0.0,0.0,1.0,-0.320823022461,-0.31124621582,-10.1226846191,1.0,0.0,0.0,0.0,1.0,0.0,0.0,0.0,1.0
1463503077613013247,511,1463503077608159156,,11.3261976242,-0.0352832637727,34.9425239563,0.00999599974602,1.0,0.0,0.0,0.0,1.0,0.0,0.0,0.0,1.0,17.2560977936,-16.8292694092,-10.3658542633,1.0,0.0,0.0,0.0,1.0,0.0,0.0,0.0,1.0,-0.296881024126,-0.0191536132812,-10.1274730225,1.0,0.0,0.0,0.0,1.0,0.0,0.0,0.0,1.0
1463503077623225401,512,1463503077618181943,,11.4420089722,-0.205181032419,34.6178359985,0.0100060002878,1.0,0.0,0.0,0.0,1.0,0.0,0.0,0.0,1.0,18.3536586761,-15.4878053665,-10.548781395,1.0,0.0,0.0,0.0,1.0,0.0,0.0,0.0,1.0,-0.814028564453,0.277727392578,-9.92157167969,1.0,0.0,0.0,0.0,1.0,0.0,0.0,0.0,1.0
1463503077631380674,513,1463503077628163106,,11.5721330643,-0.387540638447,34.2832374573,0.00999599974602,1.0,0.0,0.0,0.0,1.0,0.0,0.0,0.0,1.0,21.2195129395,-15.3048791885,-11.6463422775,1.0,0.0,0.0,0.0,1.0,0.0,0.0,0.0,1.0,-1.14921679688,0.541089611728,-9.89762966309,1.0,0.0,0.0,0.0,1.0,0.0,0.0,0.0,1.0
1463503077643325208,514,1463503077638168233,,11.6921434402,-0.541783154011,33.9586296082,0.00999999977648,1.0,0.0,0.0,0.0,1.0,0.0,0.0,0.0,1.0,23.9634151459,-12.0121955872,-11.341463089,1.0,0.0,0.0,0.0,1.0,0.0,0.0,0.0,1.0,-1.23540805664,1.21146604004,-9.69172832031,1.0,0.0,0.0,0.0,1.0,0.0,0.0,0.0,1.0
1463503077652785730,515,1463503077648157680,,11.842924118,-0.644805431366,33.644443512,0.00999899953604,1.0,0.0,0.0,0.0,1.0,0.0,0.0,0.0,1.0,27.1341457367,-8.23170757294,-11.0975618362,1.0,0.0,0.0,0.0,1.0,0.0,0.0,0.0,1.0,-0.995987890625,1.1875240965,-9.50498117534,1.0,0.0,0.0,0.0,1.0,0.0,0.0,0.0,1.0
1463503077662781427,516,1463503077658150356,,12.0089235306,-0.727048754692,33.3582725525,0.00999899953604,1.0,0.0,0.0,0.0,1.0,0.0,0.0,0.0,1.0,29.0243911743,-5.18292713165,-8.90243911743,1.0,0.0,0.0,0.0,1.0,0.0,0.0,0.0,1.0,-1.09175595703,1.22104284668,-9.39005832661,1.0,0.0,0.0,0.0,1.0,0.0,0.0,0.0,1.0
1463503077673119861,517,1463503077668159026,,12.2022237778,-0.775618374348,33.0869369507,0.0100020002574,1.0,0.0,0.0,0.0,1.0,0.0,0.0,0.0,1.0,31.158536911,-1.8292683363,-8.10975551605,1.0,0.0,0.0,0.0,1.0,0.0,0.0,0.0,1.0,-1.07739082014,1.09175595703,-9.41400034321,1.0,0.0,0.0,0.0,1.0,0.0,0.0,0.0,1.0
1463503077682772302,518,1463503077678164570,,12.4350423813,-0.789029181004,32.8432006836,0.00999800022691,1.0,0.0,0.0,0.0,1.0,0.0,0.0,0.0,1.0,33.5365867615,2.13414645195,-6.15853643417,1.0,0.0,0.0,0.0,1.0,0.0,0.0,0.0,1.0,-1.11090957031,0.790086547852,-9.60074924175,1.0,0.0,0.0,0.0,1.0,0.0,0.0,0.0,1.0
1463503077693383715,519,1463503077688160059,,12.6616506577,-0.773183584213,32.6214981079,0.0100010000169,1.0,0.0,0.0,0.0,1.0,0.0,0.0,0.0,1.0,32.6219520569,5.36585378647,-4.63414621353,1.0,0.0,0.0,0.0,1.0,0.0,0.0,0.0,1.0,-1.1540052002,0.718260498047,-9.97903251953,1.0,0.0,0.0,0.0,1.0,0.0,0.0,0.0,1.0
1463503077702723793,520,1463503077698142993,,12.8778123856,-0.720828950405,32.4310951233,0.00999800022691,1.0,0.0,0.0,0.0,1.0,0.0,0.0,0.0,1.0,31.5243930817,8.35365867615,-2.13414645195,1.0,0.0,0.0,0.0,1.0,0.0,0.0,0.0,1.0,-0.9193734375,0.641646044922,-9.81143840332,1.0,0.0,0.0,0.0,1.0,0.0,0.0,0.0,1.0
1463503077712820556,521,1463503077708154737,,13.098982811,-0.641877055168,32.2613487244,0.0100010000169,1.0,0.0,0.0,0.0,1.0,0.0,0.0,0.0,1.0,29.0243911743,10.4878053665,-0.487804889679,1.0,0.0,0.0,0.0,1.0,0.0,0.0,0.0,1.0,-0.775721337891,0.0526724365234,-10.060435376,1.0,0.0,0.0,0.0,1.0,0.0,0.0,0.0,1.0
1463503077721650828,522,1463503077718172158,,13.2868413925,-0.54910504818,32.1194267273,0.00999999977648,1.0,0.0,0.0,0.0,1.0,0.0,0.0,0.0,1.0,24.6341457367,11.9512195587,2.01219511032,1.0,0.0,0.0,0.0,1.0,0.0,0.0,0.0,1.0,-0.679953271484,-0.191536132812,-10.0795889893,1.0,0.0,0.0,0.0,1.0,0.0,0.0,0.0,1.0
1463503077731704664,523,1463503077728170461,,13.4365797043,-0.443312078714,32.0021362305,0.00999999977648,1.0,0.0,0.0,0.0,1.0,0.0,0.0,0.0,1.0,19.0853652954,13.3536586761,4.20731735229,1.0,0.0,0.0,0.0,1.0,0.0,0.0,0.0,1.0,-0.598550451572,-0.555454785156,-10.180145459,1.0,0.0,0.0,0.0,1.0,0.0,0.0,0.0,1.0
1463503077740240545,524,1463503077738181787,,13.5375146866,-0.348254293203,31.9136428833,0.0100029995665,1.0,0.0,0.0,0.0,1.0,0.0,0.0,0.0,1.0,13.1707324982,14.5121955872,6.89024400711,1.0,0.0,0.0,0.0,1.0,0.0,0.0,0.0,1.0,-0.866701000977,-0.77093293457,-10.1274730225,1.0,0.0,0.0,0.0,1.0,0.0,0.0,0.0,1.0
1463503077750273439,525,1463503077748159564,,13.5695428848,-0.242947995663,31.8533725739,0.00999899953604,1.0,0.0,0.0,0.0,1.0,0.0,0.0,0.0,1.0,6.46341466904,16.4024391174,9.32926845551,1.0,0.0,0.0,0.0,1.0,0.0,0.0,0.0,1.0,-0.900219824219,-0.76614453125,-10.1992990723,1.0,0.0,0.0,0.0,1.0,0.0,0.0,0.0,1.0
1463503077760304093,526,1463503077758155523,,13.5464792252,-0.141421124339,31.8137130737,0.00999899953604,1.0,0.0,0.0,0.0,1.0,0.0,0.0,0.0,1.0,-0.0609756112099,17.6829280853,11.1585359573,1.0,0.0,0.0,0.0,1.0,0.0,0.0,0.0,1.0,-1.11090957031,-0.967257470703,-10.2902787354,1.0,0.0,0.0,0.0,1.0,0.0,0.0,0.0,1.0
1463503077770530677,527,1463503077768153304,,13.4610109329,-0.018979601562,31.7902317047,0.00999899953604,1.0,0.0,0.0,0.0,1.0,0.0,0.0,0.0,1.0,-5.73170757294,19.6341457367,12.3780488968,1.0,0.0,0.0,0.0,1.0,0.0,0.0,0.0,1.0,-1.01514150391,-0.871489404297,-10.4291424316,1.0,0.0,0.0,0.0,1.0,0.0,0.0,0.0,1.0
1463503077780054130,528,1463503077778157494,,13.313621521,0.116600804031,31.7875900269,0.00999999977648,1.0,0.0,0.0,0.0,1.0,0.0,0.0,0.0,1.0,-11.2195119858,20.6707324982,14.3292694092,1.0,0.0,0.0,0.0,1.0,0.0,0.0,0.0,1.0,-0.857124194336,-0.732625708008,-10.524910498,1.0,0.0,0.0,0.0,1.0,0.0,0.0,0.0,1.0
1463503077789993669,529,1463503077788156317,,13.1217756271,0.259649664164,31.7981395721,0.0100010000169,1.0,0.0,0.0,0.0,1.0,0.0,0.0,0.0,1.0,-15.9146347046,20.5487823486,15.7926826477,1.0,0.0,0.0,0.0,1.0,0.0,0.0,0.0,1.0,-0.612915625,-0.76135612793,-10.6206785645,1.0,0.0,0.0,0.0,1.0,0.0,0.0,0.0,1.0
1463503077800263962,530,1463503077798152692,,12.8683233261,0.403431028128,31.8303165436,0.0100010000169,1.0,0.0,0.0,0.0,1.0,0.0,0.0,0.0,1.0,-20.8536586761,20.3048782349,18.1707305908,1.0,0.0,0.0,0.0,1.0,0.0,0.0,0.0,1.0,-0.421379492187,-0.483628735352,-10.4770264648,1.0,0.0,0.0,0.0,1.0,0.0,0.0,0.0,1.0
1463503077810154427,531,1463503077808160372,,12.5583000183,0.544920504093,31.8874073029,0.0100039998069,1.0,0.0,0.0,0.0,1.0,0.0,0.0,0.0,1.0,-24.5731716156,19.7560977936,20.975610733,1.0,0.0,0.0,0.0,1.0,0.0,0.0,0.0,1.0,-0.225054956055,-0.067037651051,-10.3381627686,1.0,0.0,0.0,0.0,1.0,0.0,0.0,0.0,1.0
1463503077820252076,532,1463503077818146432,,12.2322702408,0.68036621809,31.9636287689,0.00999299995601,1.0,0.0,0.0,0.0,1.0,0.0,0.0,0.0,1.0,-25.7317085266,16.0365848541,23.9024391174,1.0,0.0,0.0,0.0,1.0,0.0,0.0,0.0,1.0,0.45489831543,0.0861912597656,-10.1418382324,1.0,0.0,0.0,0.0,1.0,0.0,0.0,0.0,1.0
1463503077830449643,533,1463503077828184275,,11.8646507263,0.786162793636,32.0738105774,0.0100050000474,1.0,0.0,0.0,0.0,1.0,0.0,0.0,0.0,1.0,-27.1951236725,12.3780488968,28.2926845551,1.0,0.0,0.0,0.0,1.0,0.0,0.0,0.0,1.0,0.746990917969,0.656011254883,-10.2088758789,1.0,0.0,0.0,0.0,1.0,0.0,0.0,0.0,1.0
1463503077840250088,534,1463503077838191695,,11.5122356415,0.837007582188,32.2210426331,0.00999699998647,1.0,0.0,0.0,0.0,1.0,0.0,0.0,0.0,1.0,-26.2804889679,7.19512224197,33.2317085266,1.0,0.0,0.0,0.0,1.0,0.0,0.0,0.0,1.0,0.842758984375,0.61770402832,-10.0077629395,1.0,0.0,0.0,0.0,1.0,0.0,0.0,0.0,1.0
1463503077851178032,535,1463503077848158792,,11.1943502426,0.831403195858,32.3988685608,0.0100020002574,1.0,0.0,0.0,0.0,1.0,0.0,0.0,0.0,1.0,-25.4268302917,2.86585378647,37.1951255798,1.0,0.0,0.0,0.0,1.0,0.0,0.0,0.0,1.0,0.737414111328,0.210689746094,-10.180145459,1.0,0.0,0.0,0.0,1.0,0.0,0.0,0.0,1.0
1463503077860223198,536,1463503077858151416,,10.8938398361,0.743913650513,32.6106834412,0.00999899953604,1.0,0.0,0.0,0.0,1.0,0.0,0.0,0.0,1.0,-25.4878044128,-2.13414645195,41.5853652954,1.0,0.0,0.0,0.0,1.0,0.0,0.0,0.0,1.0,0.287304199219,-0.0622492431641,-10.4626612549,1.0,0.0,0.0,0.0,1.0,0.0,0.0,0.0,1.0
1463503077871135826,537,1463503077868154095,,10.60384655,0.613121926785,32.8591003418,0.0100029995665,1.0,0.0,0.0,0.0,1.0,0.0,0.0,0.0,1.0,-26.8902454376,-5.54878091812,45.8536605835,1.0,0.0,0.0,0.0,1.0,0.0,0.0,0.0,1.0,0.220266552734,-0.469263525391,-10.4770264648,1.0,0.0,0.0,0.0,1.0,0.0,0.0,0.0,1.0
1463503077881543078,538,1463503077878155263,,10.2777462006,0.438884913921,33.1400680542,0.0099950004369,1.0,0.0,0.0,0.0,1.0,0.0,0.0,0.0,1.0,-29.2682933807,-9.39024448395,49.817073822,1.0,0.0,0.0,0.0,1.0,0.0,0.0,0.0,1.0,0.196324536133,-0.186747729492,-10.4722380615,1.0,0.0,0.0,0.0,1.0,0.0,0.0,0.0,1.0
1463503077891328936,539,1463503077888169402,,9.97184848785,0.242799222469,33.451587677,0.00999899953604,1.0,0.0,0.0,0.0,1.0,0.0,0.0,0.0,1.0,-28.3536586761,-11.9512195587,53.2317085266,1.0,0.0,0.0,0.0,1.0,0.0,0.0,0.0,1.0,0.3064578125,-0.344765039063,-10.3381627686,1.0,0.0,0.0,0.0,1.0,0.0,0.0,0.0,1.0
1463503077900596548,540,1463503077898157651,,9.6584444046,0.00806837435812,33.7653846741,0.0100039998069,1.0,0.0,0.0,0.0,1.0,0.0,0.0,0.0,1.0,-28.5975608826,-16.7682933807,54.1463432312,1.0,0.0,0.0,0.0,1.0,0.0,0.0,0.0,1.0,0.416591088867,-0.210689746094,-9.98382092285,1.0,0.0,0.0,0.0,1.0,0.0,0.0,0.0,1.0
1463503077910322652,541,1463503077908156735,,9.32892608643,-0.244590878487,34.1026229858,0.0100020002574,1.0,0.0,0.0,0.0,1.0,0.0,0.0,0.0,1.0,-26.6463432312,-21.0365848541,57.0731697083,1.0,0.0,0.0,0.0,1.0,0.0,0.0,0.0,1.0,0.809240161133,0.440533105469,-9.40921193989,1.0,0.0,0.0,0.0,1.0,0.0,0.0,0.0,1.0
1463503077920585443,542,1463503077918157798,,8.97958564758,-0.538043916225,34.4643592834,0.0100010000169,1.0,0.0,0.0,0.0,1.0,0.0,0.0,0.0,1.0,-24.7560977936,-24.5731716156,59.8780517578,1.0,0.0,0.0,0.0,1.0,0.0,0.0,0.0,1.0,0.703895288086,1.11569797363,-9.27034882812,1.0,0.0,0.0,0.0,1.0,0.0,0.0,0.0,1.0
1463503077930039558,543,1463503077928165634,,8.66885757446,-0.89363950491,34.8700790405,0.00999800022691,1.0,0.0,0.0,0.0,1.0,0.0,0.0,0.0,1.0,-20.6707324982,-29.0853672028,64.7561035156,1.0,0.0,0.0,0.0,1.0,0.0,0.0,0.0,1.0,0.435744702148,1.11569797363,-8.90643017578,1.0,0.0,0.0,0.0,1.0,0.0,0.0,0.0,1.0
1463503077940178830,544,1463503077938148621,,8.38195896149,-1.28526091576,35.3162574768,0.00999699998647,1.0,0.0,0.0,0.0,1.0,0.0,0.0,0.0,1.0,-17.317073822,-31.158536911,68.841468811,1.0,0.0,0.0,0.0,1.0,0.0,0.0,0.0,1.0,0.191536132812,1.22583125,-8.60476135112,1.0,0.0,0.0,0.0,1.0,0.0,0.0,0.0,1.0
1463503077950198596,545,1463503077948154790,,8.11942672729,-1.73521590233,35.8186645508,0.00999599974602,1.0,0.0,0.0,0.0,1.0,0.0,0.0,0.0,1.0,-15.3658533096,-33.1707305908,74.5121917725,1.0,0.0,0.0,0.0,1.0,0.0,0.0,0.0,1.0,-0.363918652344,1.11569797363,-8.59518454448,1.0,0.0,0.0,0.0,1.0,0.0,0.0,0.0,1.0
1463503077960189605,546,1463503077958149967,,7.89366149902,-2.19189739227,36.3712348938,0.0100029995665,1.0,0.0,0.0,0.0,1.0,0.0,0.0,0.0,1.0,-13.2317075729,-30.1219520569,78.841468811,1.0,0.0,0.0,0.0,1.0,0.0,0.0,0.0,1.0,-0.938527050781,0.833182177734,-8.65264538433,1.0,0.0,0.0,0.0,1.0,0.0,0.0,0.0,1.0
1463503077970631604,547,1463503077968145613,,7.74410963058,-2.63731789589,36.9196166992,0.00999800022691,1.0,0.0,0.0,0.0,1.0,0.0,0.0,0.0,1.0,-10.1219511032,-30.3658542633,78.4146347046,1.0,0.0,0.0,0.0,1.0,0.0,0.0,0.0,1.0,-0.809240161133,0.0909796630859,-8.36055161274,1.0,0.0,0.0,0.0,1.0,0.0,0.0,0.0,1.0
1463503077979991374,548,1463503077978154543,,7.66409254074,-3.01144719124,37.4635429382,0.0100029995665,1.0,0.0,0.0,0.0,1.0,0.0,0.0,0.0,1.0,-6.95121955872,-26.4634151459,77.4390258789,1.0,0.0,0.0,0.0,1.0,0.0,0.0,0.0,1.0,-0.411802685547,-0.493205541992,-8.07803640137,1.0,0.0,0.0,0.0,1.0,0.0,0.0,0.0,1.0
1463503077989963994,549,1463503077988163577,,7.52790021896,-3.41195487976,38.0162963867,0.0100010000169,1.0,0.0,0.0,0.0,1.0,0.0,0.0,0.0,1.0,-8.29268264771,-25.8536586761,77.9268264771,1.0,0.0,0.0,0.0,1.0,0.0,0.0,0.0,1.0,-1.01992990723,0.0861912597656,-8.82981572266,1.0,0.0,0.0,0.0,1.0,0.0,0.0,0.0,1.0
1463503078000107121,550,1463503077998155732,,7.37320899963,-3.79982948303,38.5701370239,0.0100010000169,1.0,0.0,0.0,0.0,1.0,0.0,0.0,0.0,1.0,-6.70731735229,-24.5121955872,77.5,1.0,0.0,0.0,0.0,1.0,0.0,0.0,0.0,1.0,-1.11569797363,0.593762048251,-8.78672009277,1.0,0.0,0.0,0.0,1.0,0.0,0.0,0.0,1.0
1463503078011122274,551,1463503078008157369,,7.27557754517,-4.13904380798,39.0981674194,0.0100010000169,1.0,0.0,0.0,0.0,1.0,0.0,0.0,0.0,1.0,-4.75609779358,-22.1951236725,74.6951217651,1.0,0.0,0.0,0.0,1.0,0.0,0.0,0.0,1.0,-0.857124194336,-0.00957680664062,-8.84896933594,1.0,0.0,0.0,0.0,1.0,0.0,0.0,0.0,1.0
1463503078020326643,552,1463503078018156662,,7.15593481064,-4.47118330002,39.6008682251,0.0100010000169,1.0,0.0,0.0,0.0,1.0,0.0,0.0,0.0,1.0,-3.53658556938,-21.158536911,71.6463394165,1.0,0.0,0.0,0.0,1.0,0.0,0.0,0.0,1.0,-1.00556469727,0.521935925381,-8.61433815776,1.0,0.0,0.0,0.0,1.0,0.0,0.0,0.0,1.0
1463503078029770598,553,1463503078028167050,,7.04732751846,-4.79898834229,40.0803413391,0.00999699998647,1.0,0.0,0.0,0.0,1.0,0.0,0.0,0.0,1.0,-1.2195122242,-19.1463432312,68.841468811,1.0,0.0,0.0,0.0,1.0,0.0,0.0,0.0,1.0,-1.28808049316,0.684741674805,-8.09719001465,1.0,0.0,0.0,0.0,1.0,0.0,0.0,0.0,1.0
1463503078041042946,554,1463503078038156861,,6.96080827713,-5.12656068802,40.552772522,0.00999999977648,1.0,0.0,0.0,0.0,1.0,0.0,0.0,0.0,1.0,0.609756112099,-14.3902444839,67.4390258789,1.0,0.0,0.0,0.0,1.0,0.0,0.0,0.0,1.0,-2.07337849156,0.641646044922,-8.06845959473,1.0,0.0,0.0,0.0,1.0,0.0,0.0,0.0,1.0
1463503078049812943,555,1463503078048161311,,6.88616085052,-5.3796544075,41.007068634,0.00999899953604,1.0,0.0,0.0,0.0,1.0,0.0,0.0,0.0,1.0,2.25609779358,-9.51219558716,64.8780441284,1.0,0.0,0.0,0.0,1.0,0.0,0.0,0.0,1.0,-1.80522805176,0.708683691406,-8.17859287109,1.0,0.0,0.0,0.0,1.0,0.0,0.0,0.0,1.0
1463503078061137959,556,1463503078058159197,,6.88356971741,-5.56056213379,41.4463500977,0.00999999977648,1.0,0.0,0.0,0.0,1.0,0.0,0.0,0.0,1.0,5.30487823486,-4.20731735229,63.0487861633,1.0,0.0,0.0,0.0,1.0,0.0,0.0,0.0,1.0,-1.57059628906,0.0814028564453,-8.09240161133,1.0,0.0,0.0,0.0,1.0,0.0,0.0,0.0,1.0
1463503078070083153,557,1463503078068227412,,6.85840940475,-5.67719936371,41.8822631836,0.010006999597,1.0,0.0,0.0,0.0,1.0,0.0,0.0,0.0,1.0,5.42682933807,0.12195122242,61.890247345,1.0,0.0,0.0,0.0,1.0,0.0,0.0,0.0,1.0,-1.25935007324,0.402225878906,-7.84340463867,1.0,0.0,0.0,0.0,1.0,0.0,0.0,0.0,1.0
1463503078080423775,558,1463503078078154135,,6.85002470016,-5.7457947731,42.318447113,0.00999400019646,1.0,0.0,0.0,0.0,1.0,0.0,0.0,0.0,1.0,5.85365867615,2.19512200356,61.8292655945,1.0,0.0,0.0,0.0,1.0,0.0,0.0,0.0,1.0,-0.881066210937,0.205901342773,-7.7332713623,1.0,0.0,0.0,0.0,1.0,0.0,0.0,0.0,1.0
1463503078091084106,559,1463503078088154365,,6.84113550186,-5.78841352463,42.7701301575,0.00999800022691,1.0,0.0,0.0,0.0,1.0,0.0,0.0,0.0,1.0,3.84146332741,5.48780488968,63.1707305908,1.0,0.0,0.0,0.0,1.0,0.0,0.0,0.0,1.0,-1.00077629395,-0.0957680664062,-8.02057556152,1.0,0.0,0.0,0.0,1.0,0.0,0.0,0.0,1.0
1463503078101076834,560,1463503078098149751,,6.80399608612,-5.79383277893,43.2311782837,0.0100010000169,1.0,0.0,0.0,0.0,1.0,0.0,0.0,0.0,1.0,1.09756100178,7.56097555161,63.8414649963,1.0,0.0,0.0,0.0,1.0,0.0,0.0,0.0,1.0,-0.785298144531,-0.105344873047,-8.29351396626,1.0,0.0,0.0,0.0,1.0,0.0,0.0,0.0,1.0
1463503078111100611,561,1463503078108159097,,6.71853303909,-5.7476477623,43.7084846497,0.0100010000169,1.0,0.0,0.0,0.0,1.0,0.0,0.0,0.0,1.0,-0.365853667259,8.23170757294,65.0609741211,1.0,0.0,0.0,0.0,1.0,0.0,0.0,0.0,1.0,-0.105344873047,0.378283862305,-8.36534001606,1.0,0.0,0.0,0.0,1.0,0.0,0.0,0.0,1.0
1463503078120430426,562,1463503078118167715,,6.64664745331,-5.70022439957,44.1764945984,0.0100020002574,1.0,0.0,0.0,0.0,1.0,0.0,0.0,0.0,1.0,-0.670731723309,7.92682981491,64.3292694092,1.0,0.0,0.0,0.0,1.0,0.0,0.0,0.0,1.0,-0.0622492431641,0.162805712891,-8.49941647808,1.0,0.0,0.0,0.0,1.0,0.0,0.0,0.0,1.0
1463503078130156009,563,1463503078128157213,,6.58626317978,-5.68394708633,44.6244239807,0.00999699998647,1.0,0.0,0.0,0.0,1.0,0.0,0.0,0.0,1.0,-0.365853667259,6.09756088257,62.6219520569,1.0,0.0,0.0,0.0,1.0,0.0,0.0,0.0,1.0,-0.296881024126,0.0814028564453,-8.71010563965,1.0,0.0,0.0,0.0,1.0,0.0,0.0,0.0,1.0
1463503078141044309,564,1463503078138162862,,6.53289604187,-5.67153024673,45.043094635,0.0100029995665,1.0,0.0,0.0,0.0,1.0,0.0,0.0,0.0,1.0,-0.304878056049,5.60975599289,59.7560997009,1.0,0.0,0.0,0.0,1.0,0.0,0.0,0.0,1.0,-0.344765039063,0.0383072265625,-8.89685336914,1.0,0.0,0.0,0.0,1.0,0.0,0.0,0.0,1.0
1463503078150127088,565,1463503078148159080,,6.49441242218,-5.66255950928,45.4412498474,0.00999699998647,1.0,0.0,0.0,0.0,1.0,0.0,0.0,0.0,1.0,-0.609756112099,5.24390268326,57.9268302917,1.0,0.0,0.0,0.0,1.0,0.0,0.0,0.0,1.0,-0.392649072266,-0.210689746094,-9.18415756836,1.0,0.0,0.0,0.0,1.0,0.0,0.0,0.0,1.0
1463503078161102648,566,1463503078158171449,,6.43662548065,-5.65066242218,45.822177887,0.00999899953604,1.0,0.0,0.0,0.0,1.0,0.0,0.0,0.0,1.0,-1.52439022064,3.96341490746,56.2195129395,1.0,0.0,0.0,0.0,1.0,0.0,0.0,0.0,1.0,-0.172382519531,-0.00957680664062,-9.22725319824,1.0,0.0,0.0,0.0,1.0,0.0,0.0,0.0,1.0
1463503078171362156,567,1463503078168127294,,6.38036680222,-5.64284086227,46.1864547729,0.0100029995665,1.0,0.0,0.0,0.0,1.0,0.0,0.0,0.0,1.0,-1.46341466904,2.5,54.6951217651,1.0,0.0,0.0,0.0,1.0,0.0,0.0,0.0,1.0,-0.0335188255255,0.0143652099609,-9.57201882183,1.0,0.0,0.0,0.0,1.0,0.0,0.0,0.0,1.0
1463503078181741589,568,1463503078178093818,,6.34279060364,-5.65506029129,46.5203819275,0.0099950004369,1.0,0.0,0.0,0.0,1.0,0.0,0.0,0.0,1.0,-1.15853655338,0.670731723309,52.0121955872,1.0,0.0,0.0,0.0,1.0,0.0,0.0,0.0,1.0,-0.124498486328,-0.196324536133,-9.77791958008,1.0,0.0,0.0,0.0,1.0,0.0,0.0,0.0,1.0
1463503078190730179,569,1463503078188208710,,6.30380296707,-5.67429876328,46.8250083923,0.0100119998679,1.0,0.0,0.0,0.0,1.0,0.0,0.0,0.0,1.0,-0.487804889679,-0.914634168148,49.0853652954,1.0,0.0,0.0,0.0,1.0,0.0,0.0,0.0,1.0,-0.0335188255255,0.0,-9.91199487305,1.0,0.0,0.0,0.0,1.0,0.0,0.0,0.0,1.0
1463503078201641922,570,1463503078198190811,,6.27111721039,-5.71213722229,47.0842781067,0.0100010000169,1.0,0.0,0.0,0.0,1.0,0.0,0.0,0.0,1.0,1.76829278469,-2.80487799644,44.5731735229,1.0,0.0,0.0,0.0,1.0,0.0,0.0,0.0,1.0,-0.124498486328,0.383072265625,-10.2280294922,1.0,0.0,0.0,0.0,1.0,0.0,0.0,0.0,1.0
1463503078210368055,571,1463503078208201460,,6.27335166931,-5.764087677,47.2973670959,0.0100090000778,1.0,0.0,0.0,0.0,1.0,0.0,0.0,0.0,1.0,5.18292713165,-5.48780488968,40.1829299927,1.0,0.0,0.0,0.0,1.0,0.0,0.0,0.0,1.0,0.00957680664062,0.474051928711,-10.6446205811,1.0,0.0,0.0,0.0,1.0,0.0,0.0,0.0,1.0
1463503078220272326,572,1463503078218174653,,6.37282848358,-5.85126876831,47.4444999695,0.00998399965465,1.0,0.0,0.0,0.0,1.0,0.0,0.0,0.0,1.0,8.84146404266,-7.37804937363,34.3902435303,1.0,0.0,0.0,0.0,1.0,0.0,0.0,0.0,1.0,-0.450109912109,-0.569819995117,-10.8313683105,1.0,0.0,0.0,0.0,1.0,0.0,0.0,0.0,1.0
1463503078230392896,573,1463503078228173789,,6.48627185822,-5.95191431046,47.5350379944,0.0100050000474,1.0,0.0,0.0,0.0,1.0,0.0,0.0,0.0,1.0,9.51219558716,-8.90243911743,28.9024410248,1.0,0.0,0.0,0.0,1.0,0.0,0.0,0.0,1.0,-0.545877978516,-0.61770402832,-10.8600987305,1.0,0.0,0.0,0.0,1.0,0.0,0.0,0.0,1.0
1463503078240352179,574,1463503078238196837,,6.59726667404,-6.06494283676,47.5751113892,0.00999599974602,1.0,0.0,0.0,0.0,1.0,0.0,0.0,0.0,1.0,9.51219558716,-11.4024391174,24.0853652954,1.0,0.0,0.0,0.0,1.0,0.0,0.0,0.0,1.0,-0.435744702148,-0.502782348633,-11.03248125,1.0,0.0,0.0,0.0,1.0,0.0,0.0,0.0,1.0
1463503078250206282,575,1463503078248151171,,6.69261550903,-6.17767190933,47.5828208923,0.00999599974602,1.0,0.0,0.0,0.0,1.0,0.0,0.0,0.0,1.0,8.35365867615,-14.0853662491,21.0975627899,1.0,0.0,0.0,0.0,1.0,0.0,0.0,0.0,1.0,0.00478840332031,-0.397437475586,-11.6118780518,1.0,0.0,0.0,0.0,1.0,0.0,0.0,0.0,1.0
1463503078260280852,576,1463503078258180158,,6.77780246735,-6.33513069153,47.5596618652,0.0100050000474,1.0,0.0,0.0,0.0,1.0,0.0,0.0,0.0,1.0,5.73170757294,-17.1951217651,18.5365848541,1.0,0.0,0.0,0.0,1.0,0.0,0.0,0.0,1.0,-0.354341845703,-0.656011254883,-11.2383825928,1.0,0.0,0.0,0.0,1.0,0.0,0.0,0.0,1.0
1463503078270354328,577,1463503078268189557,,6.85746240616,-6.50123977661,47.506729126,0.0100029995665,1.0,0.0,0.0,0.0,1.0,0.0,0.0,0.0,1.0,2.92682933807,-19.2073173523,16.0365848541,1.0,0.0,0.0,0.0,1.0,0.0,0.0,0.0,1.0,-0.225054956055,-1.06781401349,-11.3533042725,1.0,0.0,0.0,0.0,1.0,0.0,0.0,0.0,1.0
1463503078282576791,578,1463503078278365921,,6.89528608322,-6.70983505249,47.4310264587,0.0100039998069,1.0,0.0,0.0,0.0,1.0,0.0,0.0,0.0,1.0,-1.64634156227,-23.1097564697,14.2682924271,1.0,0.0,0.0,0.0,1.0,0.0,0.0,0.0,1.0,-0.383072265625,-1.12048637695,-11.5065331787,1.0,0.0,0.0,0.0,1.0,0.0,0.0,0.0,1.0
1463503078290296702,579,1463503078288249458,,6.9046459198,-6.92792034149,47.3454208374,0.0100029995665,1.0,0.0,0.0,0.0,1.0,0.0,0.0,0.0,1.0,-6.21951246262,-26.0975627899,13.841463089,1.0,0.0,0.0,0.0,1.0,0.0,0.0,0.0,1.0,-0.0239420166016,-1.38863696289,-10.9798088135,1.0,0.0,0.0,0.0,1.0,0.0,0.0,0.0,1.0
1463503078302561363,580,1463503078298146435,,6.80159425735,-7.16810274124,47.2780609131,0.009990000166,1.0,0.0,0.0,0.0,1.0,0.0,0.0,0.0,1.0,-12.5,-27.682926178,15.2439022064,1.0,0.0,0.0,0.0,1.0,0.0,0.0,0.0,1.0,-0.167594116211,-0.478840332031,-11.7363765381,1.0,0.0,0.0,0.0,1.0,0.0,0.0,0.0,1.0
1463503078309404300,581,1463503078308174797,,6.69667577744,-7.45419597626,47.1962509155,0.00995500013232,1.0,0.0,0.0,0.0,1.0,0.0,0.0,0.0,1.0,-14.5731706619,-31.2195129395,14.3292694092,1.0,0.0,0.0,0.0,1.0,0.0,0.0,0.0,1.0,-0.488417138672,-0.799663354492,-11.750741748,1.0,0.0,0.0,0.0,1.0,0.0,0.0,0.0,1.0
1463503078321145818,582,1463503078318164295,,6.58476924896,-7.74819326401,47.0810203552,0.0100389998406,1.0,0.0,0.0,0.0,1.0,0.0,0.0,0.0,1.0,-17.134147644,-32.4390220642,11.341463089,1.0,0.0,0.0,0.0,1.0,0.0,0.0,0.0,1.0,-0.483628735352,-1.09654436035,-11.8321446045,1.0,0.0,0.0,0.0,1.0,0.0,0.0,0.0,1.0
1463503078330359981,583,1463503078328157128,,6.45816898346,-8.06599330902,46.9324264526,0.00999800022691,1.0,0.0,0.0,0.0,1.0,0.0,0.0,0.0,1.0,-18.7195110321,-33.7804870605,7.98780536652,1.0,0.0,0.0,0.0,1.0,0.0,0.0,0.0,1.0,-0.881066210937,-0.991199487305,-12.0332575439,1.0,0.0,0.0,0.0,1.0,0.0,0.0,0.0,1.0
1463503078340372610,584,1463503078338186427,,6.33149814606,-8.36524677277,46.727722168,0.0100109996274,1.0,0.0,0.0,0.0,1.0,0.0,0.0,0.0,1.0,-18.1707305908,-34.2073173523,2.19512200356,1.0,0.0,0.0,0.0,1.0,0.0,0.0,0.0,1.0,-0.569819995117,-0.646434448242,-11.8177793945,1.0,0.0,0.0,0.0,1.0,0.0,0.0,0.0,1.0
1463503078350266878,585,1463503078348101585,,6.22713804245,-8.66516971588,46.4760780334,0.00999199971557,1.0,0.0,0.0,0.0,1.0,0.0,0.0,0.0,1.0,-16.4634151459,-35.9756088257,-2.43902444839,1.0,0.0,0.0,0.0,1.0,0.0,0.0,0.0,1.0,-0.383072265625,-0.550666381836,-11.7220113281,1.0,0.0,0.0,0.0,1.0,0.0,0.0,0.0,1.0
1463503078360306805,586,1463503078358109369,,6.12899065018,-8.98834323883,46.1909713745,0.00999899953604,1.0,0.0,0.0,0.0,1.0,0.0,0.0,0.0,1.0,-14.5731706619,-38.8414649963,-5.79268312454,1.0,0.0,0.0,0.0,1.0,0.0,0.0,0.0,1.0,-0.383072265625,-0.124498486328,-11.4251303223,1.0,0.0,0.0,0.0,1.0,0.0,0.0,0.0,1.0
1463503078370372779,587,1463503078368177115,,6.0355682373,-9.31072711945,45.8974838257,0.010006999597,1.0,0.0,0.0,0.0,1.0,0.0,0.0,0.0,1.0,-11.6463422775,-41.4634170532,-6.82926845551,1.0,0.0,0.0,0.0,1.0,0.0,0.0,0.0,1.0,0.0957680664062,0.430956298828,-10.7739074707,1.0,0.0,0.0,0.0,1.0,0.0,0.0,0.0,1.0
1463503078380395984,588,1463503078378181461,,5.93587446213,-9.69464492798,45.6176223755,0.0100029995665,1.0,0.0,0.0,0.0,1.0,0.0,0.0,0.0,1.0,-11.7682924271,-41.9512214661,-5.60975599289,1.0,0.0,0.0,0.0,1.0,0.0,0.0,0.0,1.0,-1.09175595703,0.588973571866,-11.5448404053,1.0,0.0,0.0,0.0,1.0,0.0,0.0,0.0,1.0
1463503078390387253,589,1463503078388175856,,5.92789745331,-10.1027393341,45.3344993591,0.0100039998069,1.0,0.0,0.0,0.0,1.0,0.0,0.0,0.0,1.0,-8.59756088257,-40.2439041138,-5.18292713165,1.0,0.0,0.0,0.0,1.0,0.0,0.0,0.0,1.0,-1.97761057129,-0.569819995117,-11.2383825928,1.0,0.0,0.0,0.0,1.0,0.0,0.0,0.0,1.0
1463503078400352892,590,1463503078398185099,,5.94639730453,-10.4871883392,45.0274162292,0.0099950004369,1.0,0.0,0.0,0.0,1.0,0.0,0.0,0.0,1.0,-9.81707286835,-35.2439041138,-7.50000047684,1.0,0.0,0.0,0.0,1.0,0.0,0.0,0.0,1.0,-2.8299463623,-1.30723410645,-11.8896054443,1.0,0.0,0.0,0.0,1.0,0.0,0.0,0.0,1.0
1463503078410442622,591,1463503078408211533,,5.93999195099,-10.8143911362,44.7139854431,0.0100050000474,1.0,0.0,0.0,0.0,1.0,0.0,0.0,0.0,1.0,-10.548781395,-28.5365848541,-9.14634132385,1.0,0.0,0.0,0.0,1.0,0.0,0.0,0.0,1.0,-3.19865341797,-0.866701000977,-12.0859299805,1.0,0.0,0.0,0.0,1.0,0.0,0.0,0.0,1.0
1463503078420667800,592,1463503078418250105,,5.93222999573,-11.0501966476,44.3641281128,0.0100830001757,1.0,0.0,0.0,0.0,1.0,0.0,0.0,0.0,1.0,-10.3658542633,-22.6219520569,-13.2926826477,1.0,0.0,0.0,0.0,1.0,0.0,0.0,0.0,1.0,-2.60489140625,-0.627280834961,-12.1816980469,1.0,0.0,0.0,0.0,1.0,0.0,0.0,0.0,1.0
1463503078430441467,593,1463503078428099311,,5.91671466827,-11.2114171982,44.0050735474,0.0099010001868,1.0,0.0,0.0,0.0,1.0,0.0,0.0,0.0,1.0,-8.90243911743,-19.0853652954,-15.7317075729,1.0,0.0,0.0,0.0,1.0,0.0,0.0,0.0,1.0,-1.838746875,-0.0335188255255,-11.7842605713,1.0,0.0,0.0,0.0,1.0,0.0,0.0,0.0,1.0
1463503078440696652,594,1463503078438118139,,5.92397451401,-11.3225498199,43.6247749329,0.0100060002878,1.0,0.0,0.0,0.0,1.0,0.0,0.0,0.0,1.0,-5.60975599289,-17.8658542633,-17.8658542633,1.0,0.0,0.0,0.0,1.0,0.0,0.0,0.0,1.0,-1.04387185076,0.258573779297,-11.4682259521,1.0,0.0,0.0,0.0,1.0,0.0,0.0,0.0,1.0
1463503078455069925,595,1463503078450600871,,5.97475624084,-11.4439506531,43.166557312,0.0123269995674,1.0,0.0,0.0,0.0,1.0,0.0,0.0,0.0,1.0,-0.487804889679,-17.1951217651,-17.4390239716,1.0,0.0,0.0,0.0,1.0,0.0,0.0,0.0,1.0,-0.881066210937,0.565031591797,-10.8409451172,1.0,0.0,0.0,0.0,1.0,0.0,0.0,0.0,1.0
1463503078461045683,596,1463503078458220133,,6.04258441925,-11.5292015076,42.8738059998,0.00769300013781,1.0,0.0,0.0,0.0,1.0,0.0,0.0,0.0,1.0,3.29268312454,-17.0731716156,-18.1707305908,1.0,0.0,0.0,0.0,1.0,0.0,0.0,0.0,1.0,-1.09654436035,0.392649072266,-9.96945571289,1.0,0.0,0.0,0.0,1.0,0.0,0.0,0.0,1.0
1463503078469998848,597,1463503078468113985,,6.19221544266,-11.6172933578,42.5142822266,0.00997900031507,1.0,0.0,0.0,0.0,1.0,0.0,0.0,0.0,1.0,6.82926845551,-15.7926826477,-15.6707315445,1.0,0.0,0.0,0.0,1.0,0.0,0.0,0.0,1.0,-0.876277807617,-0.15801730957,-9.57201882183,1.0,0.0,0.0,0.0,1.0,0.0,0.0,0.0,1.0
1463503078480046641,598,1463503078478109891,,6.32086229324,-11.6891851425,42.202293396,0.00999899953604,1.0,0.0,0.0,0.0,1.0,0.0,0.0,0.0,1.0,7.31707334518,-13.658536911,-11.4634151459,1.0,0.0,0.0,0.0,1.0,0.0,0.0,0.0,1.0,-0.890643017578,0.110133276367,-9.43315395649,1.0,0.0,0.0,0.0,1.0,0.0,0.0,0.0,1.0
1463503078490345482,599,1463503078488111059,,6.40295791626,-11.7586431503,41.9664916992,0.0100029995665,1.0,0.0,0.0,0.0,1.0,0.0,0.0,0.0,1.0,8.10975551605,-14.1463422775,-4.69512224197,1.0,0.0,0.0,0.0,1.0,0.0,0.0,0.0,1.0,-0.660799658203,0.790086547852,-9.70609353027,1.0,0.0,0.0,0.0,1.0,0.0,0.0,0.0,1.0
1463503078500937151,600,1463503078498226264,,6.519551754,-11.8138723373,41.7837867737,0.0100029995665,1.0,0.0,0.0,0.0,1.0,0.0,0.0,0.0,1.0,9.93902492523,-13.4756097794,1.03658533096,1.0,0.0,0.0,0.0,1.0,0.0,0.0,0.0,1.0,-0.445321508789,0.292092584273,-9.59117243511,1.0,0.0,0.0,0.0,1.0,0.0,0.0,0.0,1.0
1463503078510542602,601,1463503078508373559,,6.61502456665,-11.8842000961,41.6675262451,0.0100149996579,1.0,0.0,0.0,0.0,1.0,0.0,0.0,0.0,1.0,10.4878053665,-14.8780498505,7.50000047684,1.0,0.0,0.0,0.0,1.0,0.0,0.0,0.0,1.0,-0.359130249023,0.521935925381,-9.95509050293,1.0,0.0,0.0,0.0,1.0,0.0,0.0,0.0,1.0
1463503078520630717,602,1463503078518288405,,6.71522474289,-11.9591226578,41.5997009277,0.00998300034553,1.0,0.0,0.0,0.0,1.0,0.0,0.0,0.0,1.0,11.341463089,-16.2804889679,12.5609760284,1.0,0.0,0.0,0.0,1.0,0.0,0.0,0.0,1.0,-0.114921679688,0.397437475586,-10.1945106689,1.0,0.0,0.0,0.0,1.0,0.0,0.0,0.0,1.0
1463503078531097149,603,1463503078528177620,,6.81150150299,-12.0692434311,41.5621109009,0.0100029995665,1.0,0.0,0.0,0.0,1.0,0.0,0.0,0.0,1.0,12.6219520569,-17.9878044128,15.548781395,1.0,0.0,0.0,0.0,1.0,0.0,0.0,0.0,1.0,-0.397437475586,0.588973571866,-10.3477395752,1.0,0.0,0.0,0.0,1.0,0.0,0.0,0.0,1.0
1463503078542348450,604,1463503078538166337,,6.96521615982,-12.2316846848,41.5256385803,0.00999400019646,1.0,0.0,0.0,0.0,1.0,0.0,0.0,0.0,1.0,15.0609760284,-19.4512195587,16.5853652954,1.0,0.0,0.0,0.0,1.0,0.0,0.0,0.0,1.0,-1.13485158691,-0.0526724365234,-10.5009684814,1.0,0.0,0.0,0.0,1.0,0.0,0.0,0.0,1.0
1463503078549595543,605,1463503078548169536,,7.1180729866,-12.4169588089,41.5029830933,0.00999800022691,1.0,0.0,0.0,0.0,1.0,0.0,0.0,0.0,1.0,17.134147644,-17.8048782349,17.3780498505,1.0,0.0,0.0,0.0,1.0,0.0,0.0,0.0,1.0,-1.81959326172,0.287304199219,-10.1609918457,1.0,0.0,0.0,0.0,1.0,0.0,0.0,0.0,1.0
1463503078560359648,606,1463503078558152158,,7.30394554138,-12.5773820877,41.4851417542,0.00999999977648,1.0,0.0,0.0,0.0,1.0,0.0,0.0,0.0,1.0,20.1829280853,-14.1463422775,17.5000019073,1.0,0.0,0.0,0.0,1.0,0.0,0.0,0.0,1.0,-2.05901342773,0.201112939453,-10.1274730225,1.0,0.0,0.0,0.0,1.0,0.0,0.0,0.0,1.0
1463503078569963328,607,1463503078568178853,,7.51303339005,-12.7218570709,41.478805542,0.0100010000169,1.0,0.0,0.0,0.0,1.0,0.0,0.0,0.0,1.0,23.658536911,-10.4878053665,17.9878044128,1.0,0.0,0.0,0.0,1.0,0.0,0.0,0.0,1.0,-2.42293208008,0.349553442383,-9.99818613281,1.0,0.0,0.0,0.0,1.0,0.0,0.0,0.0,1.0
1463503078579827589,608,1463503078578178979,,7.76181650162,-12.8018512726,41.4715995789,0.00999899953604,1.0,0.0,0.0,0.0,1.0,0.0,0.0,0.0,1.0,27.8048782349,-5.36585378647,17.1951217651,1.0,0.0,0.0,0.0,1.0,0.0,0.0,0.0,1.0,-2.26491477051,0.349553442383,-10.2280294922,1.0,0.0,0.0,0.0,1.0,0.0,0.0,0.0,1.0
1463503078590632328,609,1463503078588145451,,8.03427124023,-12.857178688,41.4780273438,0.00999999977648,1.0,0.0,0.0,0.0,1.0,0.0,0.0,0.0,1.0,31.8902454376,-1.40243899822,17.6829280853,1.0,0.0,0.0,0.0,1.0,0.0,0.0,0.0,1.0,-2.48996972656,0.579396801758,-10.0364933594,1.0,0.0,0.0,0.0,1.0,0.0,0.0,0.0,1.0
1463503078600315506,610,1463503078598266126,,8.37161636353,-12.8491811752,41.4712486267,0.00999999977648,1.0,0.0,0.0,0.0,1.0,0.0,0.0,0.0,1.0,36.3414611816,2.98780488968,16.158536911,1.0,0.0,0.0,0.0,1.0,0.0,0.0,0.0,1.0,-2.27449157715,0.196324536133,-10.4674496582,1.0,0.0,0.0,0.0,1.0,0.0,0.0,0.0,1.0
1463503078613785237,611,1463503078608215615,,8.81288719177,-12.8007612228,41.4281158447,0.00999800022691,1.0,0.0,0.0,0.0,1.0,0.0,0.0,0.0,1.0,41.7073173523,5.48780488968,13.1707324982,1.0,0.0,0.0,0.0,1.0,0.0,0.0,0.0,1.0,-2.01112939453,-0.670376464844,-10.0891657959,1.0,0.0,0.0,0.0,1.0,0.0,0.0,0.0,1.0
1463503078619955727,612,1463503078618269087,,9.24111747742,-12.715212822,41.377281189,0.00999999977648,1.0,0.0,0.0,0.0,1.0,0.0,0.0,0.0,1.0,43.9024391174,7.43902492523,11.2195119858,1.0,0.0,0.0,0.0,1.0,0.0,0.0,0.0,1.0,-1.81959326172,-0.0718260498047,-10.7068698242,1.0,0.0,0.0,0.0,1.0,0.0,0.0,0.0,1.0
1463503078630567296,613,1463503078628205917,,9.7166967392,-12.6081933975,41.2989578247,0.0100060002878,1.0,0.0,0.0,0.0,1.0,0.0,0.0,0.0,1.0,44.9390258789,8.71951198578,8.96341514587,1.0,0.0,0.0,0.0,1.0,0.0,0.0,0.0,1.0,-1.75255561523,-0.77093293457,-10.8074262939,1.0,0.0,0.0,0.0,1.0,0.0,0.0,0.0,1.0
1463503078641245965,614,1463503078638335916,,10.158121109,-12.4877967834,41.2258682251,0.0100020002574,1.0,0.0,0.0,0.0,1.0,0.0,0.0,0.0,1.0,43.0487823486,10.6097564697,8.78048801422,1.0,0.0,0.0,0.0,1.0,0.0,0.0,0.0,1.0,-1.84353527832,-0.584185168546,-10.7978494873,1.0,0.0,0.0,0.0,1.0,0.0,0.0,0.0,1.0
1463503078650904449,615,1463503078648278164,,10.6072463989,-12.353105545,41.1447219849,0.0100229997188,1.0,0.0,0.0,0.0,1.0,0.0,0.0,0.0,1.0,40.8536605835,11.341463089,8.41463470459,1.0,0.0,0.0,0.0,1.0,0.0,0.0,0.0,1.0,-1.68072956543,-1.17794714373,-10.4770264648,1.0,0.0,0.0,0.0,1.0,0.0,0.0,0.0,1.0
1463503078659992281,616,1463503078658270997,,11.0154876709,-12.2058858871,41.0697479248,0.0100050000474,1.0,0.0,0.0,0.0,1.0,0.0,0.0,0.0,1.0,37.4390220642,11.6463422775,8.78048801422,1.0,0.0,0.0,0.0,1.0,0.0,0.0,0.0,1.0,-1.45567460937,-1.16837033709,-10.3956236084,1.0,0.0,0.0,0.0,1.0,0.0,0.0,0.0,1.0
1463503078669900875,617,1463503078668228405,,11.3506908417,-12.0536489487,41.0042304993,0.00997199956328,1.0,0.0,0.0,0.0,1.0,0.0,0.0,0.0,1.0,32.7439041138,11.5853662491,9.14634132385,1.0,0.0,0.0,0.0,1.0,0.0,0.0,0.0,1.0,-1.28329208984,-0.799663354492,-10.2902787354,1.0,0.0,0.0,0.0,1.0,0.0,0.0,0.0,1.0
1463503078681400202,618,1463503078678210870,,11.6764411926,-11.9051933289,40.9359931946,0.00998899992555,1.0,0.0,0.0,0.0,1.0,0.0,0.0,0.0,1.0,27.7439041138,12.2560977936,9.5731716156,1.0,0.0,0.0,0.0,1.0,0.0,0.0,0.0,1.0,-1.53707746582,-1.68551796875,-10.7499654541,1.0,0.0,0.0,0.0,1.0,0.0,0.0,0.0,1.0
1463503078691496652,619,1463503078688290338,,11.9007234573,-11.7571296692,40.8975296021,0.0100440001115,1.0,0.0,0.0,0.0,1.0,0.0,0.0,0.0,1.0,21.5243911743,11.1585359573,12.0121955872,1.0,0.0,0.0,0.0,1.0,0.0,0.0,0.0,1.0,-1.17315874041,-1.03429511719,-10.4099888184,1.0,0.0,0.0,0.0,1.0,0.0,0.0,0.0,1.0
1463503078702088269,620,1463503078698116725,,11.9844760895,-11.6040639877,40.9053039551,0.00996099971235,1.0,0.0,0.0,0.0,1.0,0.0,0.0,0.0,1.0,14.4512205124,10.2439022064,15.548781395,1.0,0.0,0.0,0.0,1.0,0.0,0.0,0.0,1.0,-0.660799658203,0.0478840332031,-10.0412817627,1.0,0.0,0.0,0.0,1.0,0.0,0.0,0.0,1.0
1463503078710047663,621,1463503078708149255,,12.089058876,-11.4781608582,40.9099235535,0.0100029995665,1.0,0.0,0.0,0.0,1.0,0.0,0.0,0.0,1.0,12.2560977936,7.56097555161,16.7073173523,1.0,0.0,0.0,0.0,1.0,0.0,0.0,0.0,1.0,-0.660799658203,-0.751779321289,-10.2136642822,1.0,0.0,0.0,0.0,1.0,0.0,0.0,0.0,1.0
1463503078723368453,622,1463503078720615420,,12.154665947,-11.3715791702,40.8996658325,0.0112560000271,1.0,0.0,0.0,0.0,1.0,0.0,0.0,0.0,1.0,6.82926845551,6.28048801422,15.7317075729,1.0,0.0,0.0,0.0,1.0,0.0,0.0,0.0,1.0,-1.00077629395,-0.847547387695,-10.0077629395,1.0,0.0,0.0,0.0,1.0,0.0,0.0,0.0,1.0
1463503078732112038,623,1463503078728281620,,12.1807804108,-11.2963466644,40.8798027039,0.00875599961728,1.0,0.0,0.0,0.0,1.0,0.0,0.0,0.0,1.0,3.41463422775,5.97560977936,14.5121955872,1.0,0.0,0.0,0.0,1.0,0.0,0.0,0.0,1.0,-1.17794714373,-0.948103857422,-10.3812583984,1.0,0.0,0.0,0.0,1.0,0.0,0.0,0.0,1.0
1463503078743004193,624,1463503078738192663,,12.1911859512,-11.2178249359,40.8206214905,0.0099950004369,1.0,0.0,0.0,0.0,1.0,0.0,0.0,0.0,1.0,1.15853655338,4.75609779358,11.0365858078,1.0,0.0,0.0,0.0,1.0,0.0,0.0,0.0,1.0,-1.1875240965,-0.857124194336,-10.1562034424,1.0,0.0,0.0,0.0,1.0,0.0,0.0,0.0,1.0
1463503078754488517,625,1463503078748175806,,12.171754837,-11.1464796066,40.7271881104,0.00999199971557,1.0,0.0,0.0,0.0,1.0,0.0,0.0,0.0,1.0,-1.8292683363,5.18292713165,7.37804937363,1.0,0.0,0.0,0.0,1.0,0.0,0.0,0.0,1.0,-1.51313544922,-0.727837304687,-10.1226846191,1.0,0.0,0.0,0.0,1.0,0.0,0.0,0.0,1.0
1463503078760364355,626,1463503078758162492,,12.1374607086,-11.045006752,40.5955200195,0.0100050000474,1.0,0.0,0.0,0.0,1.0,0.0,0.0,0.0,1.0,-3.90243911743,5.18292713165,3.53658556938,1.0,0.0,0.0,0.0,1.0,0.0,0.0,0.0,1.0,-1.11569797363,-0.718260498047,-10.2759135254,1.0,0.0,0.0,0.0,1.0,0.0,0.0,0.0,1.0
1463503078770433924,627,1463503078768232217,,12.0596485138,-10.9139213562,40.4526939392,0.00999999977648,1.0,0.0,0.0,0.0,1.0,0.0,0.0,0.0,1.0,-6.70731735229,6.34146356583,1.8292683363,1.0,0.0,0.0,0.0,1.0,0.0,0.0,0.0,1.0,-0.837970581055,-0.402225878906,-10.6063133545,1.0,0.0,0.0,0.0,1.0,0.0,0.0,0.0,1.0
1463503078780067611,628,1463503078778142426,,12.0202331543,-10.8035678864,40.2697029114,0.00999100040644,1.0,0.0,0.0,0.0,1.0,0.0,0.0,0.0,1.0,-7.92682981491,6.34146356583,-1.34146344662,1.0,0.0,0.0,0.0,1.0,0.0,0.0,0.0,1.0,-1.34554133301,-1.21146604004,-10.5105452881,1.0,0.0,0.0,0.0,1.0,0.0,0.0,0.0,1.0
1463503078790840624,629,1463503078788166360,,11.9336118698,-10.6960554123,40.0642814636,0.0100050000474,1.0,0.0,0.0,0.0,1.0,0.0,0.0,0.0,1.0,-10.9756097794,6.95121955872,-4.08536577225,1.0,0.0,0.0,0.0,1.0,0.0,0.0,0.0,1.0,-1.61369191895,-0.818816967773,-10.6972930176,1.0,0.0,0.0,0.0,1.0,0.0,0.0,0.0,1.0
1463503078800246186,630,1463503078798112359,,11.8106212616,-10.5703525543,39.8530807495,0.00999599974602,1.0,0.0,0.0,0.0,1.0,0.0,0.0,0.0,1.0,-16.2804889679,7.98780536652,-4.57317066193,1.0,0.0,0.0,0.0,1.0,0.0,0.0,0.0,1.0,-1.37427175293,-1.0534486574,-10.0843773926,1.0,0.0,0.0,0.0,1.0,0.0,0.0,0.0,1.0
1463503078810259961,631,1463503078808120664,,11.6156263351,-10.4408245087,39.6677207947,0.0100050000474,1.0,0.0,0.0,0.0,1.0,0.0,0.0,0.0,1.0,-21.7682933807,9.93902492523,-2.56097555161,1.0,0.0,0.0,0.0,1.0,0.0,0.0,0.0,1.0,-1.60890351563,-0.847547387695,-10.5440641113,1.0,0.0,0.0,0.0,1.0,0.0,0.0,0.0,1.0
1463503078820825894,632,1463503078818114382,,11.3485040665,-10.3071956635,39.5083847046,0.00999699998647,1.0,0.0,0.0,0.0,1.0,0.0,0.0,0.0,1.0,-27.8048782349,10.0609760284,-0.0609756112099,1.0,0.0,0.0,0.0,1.0,0.0,0.0,0.0,1.0,-1.38863696289,-0.670376464844,-10.3668931885,1.0,0.0,0.0,0.0,1.0,0.0,0.0,0.0,1.0
1463503078830064803,633,1463503078828110132,,11.0131511688,-10.1789398193,39.3929443359,0.0100020002574,1.0,0.0,0.0,0.0,1.0,0.0,0.0,0.0,1.0,-32.134147644,11.4024391174,3.84146332741,1.0,0.0,0.0,0.0,1.0,0.0,0.0,0.0,1.0,-1.56101948242,-0.3064578125,-10.4961800781,1.0,0.0,0.0,0.0,1.0,0.0,0.0,0.0,1.0
1463503078840311861,634,1463503078838118332,,10.6621694565,-10.0562124252,39.3005332947,0.0100010000169,1.0,0.0,0.0,0.0,1.0,0.0,0.0,0.0,1.0,-34.634147644,12.1341466904,6.34146356583,1.0,0.0,0.0,0.0,1.0,0.0,0.0,0.0,1.0,-1.77170922852,-0.531512805087,-11.0564232666,1.0,0.0,0.0,0.0,1.0,0.0,0.0,0.0,1.0
1463503078850667329,635,1463503078848126533,,10.295753479,-9.91720485687,39.2109680176,0.00999699998647,1.0,0.0,0.0,0.0,1.0,0.0,0.0,0.0,1.0,-36.8902435303,13.2317075729,6.64634132385,1.0,0.0,0.0,0.0,1.0,0.0,0.0,0.0,1.0,-1.6041151123,-0.61770402832,-10.9702320068,1.0,0.0,0.0,0.0,1.0,0.0,0.0,0.0,1.0
1463503078860060544,636,1463503078858117542,,9.93445014954,-9.7372303009,39.1224822998,0.0100029995665,1.0,0.0,0.0,0.0,1.0,0.0,0.0,0.0,1.0,-35.3048782349,14.4512205124,6.46341466904,1.0,0.0,0.0,0.0,1.0,0.0,0.0,0.0,1.0,-1.03429511719,-0.368707055664,-11.391611499,1.0,0.0,0.0,0.0,1.0,0.0,0.0,0.0,1.0
1463503078869754974,637,1463503078868122513,,9.55692481995,-9.59739971161,39.0342330933,0.00999699998647,1.0,0.0,0.0,0.0,1.0,0.0,0.0,0.0,1.0,-34.8780479431,12.3780488968,6.58536624908,1.0,0.0,0.0,0.0,1.0,0.0,0.0,0.0,1.0,-1.28808049316,0.124498486328,-10.7212350342,1.0,0.0,0.0,0.0,1.0,0.0,0.0,0.0,1.0
1463503078880382433,638,1463503078878099092,,9.16756629944,-9.44855880737,38.9651145935,0.00999699998647,1.0,0.0,0.0,0.0,1.0,0.0,0.0,0.0,1.0,-33.7195129395,13.9634151459,7.98780536652,1.0,0.0,0.0,0.0,1.0,0.0,0.0,0.0,1.0,-1.2497732666,0.560243188477,-10.1514150391,1.0,0.0,0.0,0.0,1.0,0.0,0.0,0.0,1.0
1463503078890075821,639,1463503078888146573,,8.78240299225,-9.30272960663,38.9146575928,0.0100020002574,1.0,0.0,0.0,0.0,1.0,0.0,0.0,0.0,1.0,-32.317073822,12.7439022064,10.0609760284,1.0,0.0,0.0,0.0,1.0,0.0,0.0,0.0,1.0,-1.03908344744,0.780509741211,-10.6781394043,1.0,0.0,0.0,0.0,1.0,0.0,0.0,0.0,1.0
1463503078900290736,640,1463503078898110388,,8.37612056732,-9.12632656097,38.9017333984,0.0100020002574,1.0,0.0,0.0,0.0,1.0,0.0,0.0,0.0,1.0,-31.4634151459,10.7926826477,13.841463089,1.0,0.0,0.0,0.0,1.0,0.0,0.0,0.0,1.0,0.0718260498047,1.24498486328,-10.1562034424,1.0,0.0,0.0,0.0,1.0,0.0,0.0,0.0,1.0
1463503078910464288,641,1463503078908126664,,7.97389221191,-8.97163295746,38.9460144043,0.0100020002574,1.0,0.0,0.0,0.0,1.0,0.0,0.0,0.0,1.0,-28.6585388184,7.19512224197,19.9390239716,1.0,0.0,0.0,0.0,1.0,0.0,0.0,0.0,1.0,0.541089611728,1.61848032227,-10.2136642822,1.0,0.0,0.0,0.0,1.0,0.0,0.0,0.0,1.0
1463503078919998421,642,1463503078918104649,,7.64702558517,-8.86788654327,39.0129547119,0.00999400019646,1.0,0.0,0.0,0.0,1.0,0.0,0.0,0.0,1.0,-22.4390239716,1.2804877758,23.3536586761,1.0,0.0,0.0,0.0,1.0,0.0,0.0,0.0,1.0,0.76135612793,1.34075292969,-9.93593688965,1.0,0.0,0.0,0.0,1.0,0.0,0.0,0.0,1.0
1463503078929745311,643,1463503078928117643,,7.39504957199,-8.85725688934,39.0865364075,0.0100029995665,1.0,0.0,0.0,0.0,1.0,0.0,0.0,0.0,1.0,-17.9878044128,-2.43902444839,25.0,1.0,0.0,0.0,0.0,1.0,0.0,0.0,0.0,1.0,-0.225054956055,0.814028564453,-10.0556469727,1.0,0.0,0.0,0.0,1.0,0.0,0.0,0.0,1.0
1463503078940109115,644,1463503078938111309,,7.17854881287,-8.90065765381,39.1670761108,0.0100029995665,1.0,0.0,0.0,0.0,1.0,0.0,0.0,0.0,1.0,-13.9024391174,-3.53658556938,25.7317085266,1.0,0.0,0.0,0.0,1.0,0.0,0.0,0.0,1.0,-1.01514150391,0.976834277344,-10.3764699951,1.0,0.0,0.0,0.0,1.0,0.0,0.0,0.0,1.0
1463503078950177798,645,1463503078948112372,,7.03143072128,-8.96894168854,39.2340011597,0.00999599974602,1.0,0.0,0.0,0.0,1.0,0.0,0.0,0.0,1.0,-9.45121955872,-3.47560977936,24.6951236725,1.0,0.0,0.0,0.0,1.0,0.0,0.0,0.0,1.0,-1.56101948242,0.603338854892,-10.5440641113,1.0,0.0,0.0,0.0,1.0,0.0,0.0,0.0,1.0
1463503078960267945,646,1463503078958121928,,6.94730615616,-9.00131416321,39.2873420715,0.0100029995665,1.0,0.0,0.0,0.0,1.0,0.0,0.0,0.0,1.0,-6.7682929039,-0.365853667259,23.475610733,1.0,0.0,0.0,0.0,1.0,0.0,0.0,0.0,1.0,-1.52750065918,-0.0287304199219,-10.5967365479,1.0,0.0,0.0,0.0,1.0,0.0,0.0,0.0,1.0
1463503078969959510,647,1463503078968119345,,6.87976694107,-8.9980430603,39.3266639709,0.00999599974602,1.0,0.0,0.0,0.0,1.0,0.0,0.0,0.0,1.0,-5.30487823486,0.609756112099,21.9512195587,1.0,0.0,0.0,0.0,1.0,0.0,0.0,0.0,1.0,-1.09175595703,-0.0143652099609,-10.7451770508,1.0,0.0,0.0,0.0,1.0,0.0,0.0,0.0,1.0
1463503078980273563,648,1463503078978106238,,6.82138490677,-8.96462917328,39.3366889954,0.00999999977648,1.0,0.0,0.0,0.0,1.0,0.0,0.0,0.0,1.0,-3.47560977936,-0.609756112099,18.9634151459,1.0,0.0,0.0,0.0,1.0,0.0,0.0,0.0,1.0,-0.335188232422,0.248996972656,-10.3812583984,1.0,0.0,0.0,0.0,1.0,0.0,0.0,0.0,1.0
1463503078990035665,649,1463503078988213681,,6.76354503632,-8.94769382477,39.3341407776,0.0100020002574,1.0,0.0,0.0,0.0,1.0,0.0,0.0,0.0,1.0,-0.487804889679,-2.5,17.4390239716,1.0,0.0,0.0,0.0,1.0,0.0,0.0,0.0,1.0,-0.296881024126,0.828393774414,-10.1083194092,1.0,0.0,0.0,0.0,1.0,0.0,0.0,0.0,1.0
1463503078999786983,650,1463503078998110814,,6.73805141449,-8.94617271423,39.2959594727,0.00999899953604,1.0,0.0,0.0,0.0,1.0,0.0,0.0,0.0,1.0,1.09756100178,-5.73170757294,14.4512205124,1.0,0.0,0.0,0.0,1.0,0.0,0.0,0.0,1.0,-0.0622492431641,0.636857641602,-10.1274730225,1.0,0.0,0.0,0.0,1.0,0.0,0.0,0.0,1.0
1463503079009723970,651,1463503079008113128,,6.77779388428,-8.96333503723,39.2134933472,0.0100010000169,1.0,0.0,0.0,0.0,1.0,0.0,0.0,0.0,1.0,5.24390268326,-8.71951198578,10.6707315445,1.0,0.0,0.0,0.0,1.0,0.0,0.0,0.0,1.0,0.0478840332031,0.320823022461,-9.76834277344,1.0,0.0,0.0,0.0,1.0,0.0,0.0,0.0,1.0
1463503079021215013,652,1463503079018124871,,6.84697341919,-8.9980096817,39.0778503418,0.0100020002574,1.0,0.0,0.0,0.0,1.0,0.0,0.0,0.0,1.0,7.43902492523,-10.6707315445,5.60975599289,1.0,0.0,0.0,0.0,1.0,0.0,0.0,0.0,1.0,-0.0287304199219,0.325611425781,-9.65821008159,1.0,0.0,0.0,0.0,1.0,0.0,0.0,0.0,1.0
1463503079029801791,653,1463503079028153546,,6.9429564476,-9.05586624146,38.9007606506,0.00999699998647,1.0,0.0,0.0,0.0,1.0,0.0,0.0,0.0,1.0,9.69512176514,-12.2560977936,1.64634156227,1.0,0.0,0.0,0.0,1.0,0.0,0.0,0.0,1.0,-0.244208569336,0.349553442383,-9.4954043687,1.0,0.0,0.0,0.0,1.0,0.0,0.0,0.0,1.0
1463503079041063043,654,1463503079038110745,,7.06194496155,-9.10705852509,38.6876907349,0.0100029995665,1.0,0.0,0.0,0.0,1.0,0.0,0.0,0.0,1.0,10.6707315445,-11.8902444839,-1.8292683363,1.0,0.0,0.0,0.0,1.0,0.0,0.0,0.0,1.0,-0.277727392578,0.201112939453,-9.27992563477,1.0,0.0,0.0,0.0,1.0,0.0,0.0,0.0,1.0
1463503079049849711,655,1463503079048175573,,7.20131587982,-9.18031787872,38.4380607605,0.00999699998647,1.0,0.0,0.0,0.0,1.0,0.0,0.0,0.0,1.0,11.0365858078,-12.1951217651,-5.24390268326,1.0,0.0,0.0,0.0,1.0,0.0,0.0,0.0,1.0,-0.679953271484,0.00478840332031,-9.23204160156,1.0,0.0,0.0,0.0,1.0,0.0,0.0,0.0,1.0
1463503079059750595,656,1463503079058106204,,7.35608386993,-9.25634288788,38.1529998779,0.0100020002574,1.0,0.0,0.0,0.0,1.0,0.0,0.0,0.0,1.0,10.3658542633,-11.1585359573,-8.59756088257,1.0,0.0,0.0,0.0,1.0,0.0,0.0,0.0,1.0,-0.976834277344,-0.277727392578,-9.08838950195,1.0,0.0,0.0,0.0,1.0,0.0,0.0,0.0,1.0
1463503079071121507,657,1463503079068169470,,7.50478219986,-9.31599140167,37.8353462219,0.0100010000169,1.0,0.0,0.0,0.0,1.0,0.0,0.0,0.0,1.0,8.84146404266,-7.80487823486,-12.1951217651,1.0,0.0,0.0,0.0,1.0,0.0,0.0,0.0,1.0,-1.36469494629,-0.359130249023,-9.16021555176,1.0,0.0,0.0,0.0,1.0,0.0,0.0,0.0,1.0
1463503079080419491,658,1463503079078149539,,7.64731502533,-9.34044837952,37.4801940918,0.00999599974602,1.0,0.0,0.0,0.0,1.0,0.0,0.0,0.0,1.0,7.43902492523,-5.0,-16.2804889679,1.0,0.0,0.0,0.0,1.0,0.0,0.0,0.0,1.0,-1.38384855957,-0.416591088867,-9.35175110005,1.0,0.0,0.0,0.0,1.0,0.0,0.0,0.0,1.0
1463503079091392967,659,1463503079088111427,,7.81598186493,-9.32447624207,37.0815582275,0.0100029995665,1.0,0.0,0.0,0.0,1.0,0.0,0.0,0.0,1.0,6.64634132385,-2.37804889679,-20.4878044128,1.0,0.0,0.0,0.0,1.0,0.0,0.0,0.0,1.0,-1.2737152832,-0.905008227539,-9.41400034321,1.0,0.0,0.0,0.0,1.0,0.0,0.0,0.0,1.0
1463503079100355770,660,1463503079098099883,,7.9445309639,-9.27041053772,36.6425209045,0.00999699998647,1.0,0.0,0.0,0.0,1.0,0.0,0.0,0.0,1.0,4.2682929039,-0.487804889679,-25.182926178,1.0,0.0,0.0,0.0,1.0,0.0,0.0,0.0,1.0,-1.06781401349,-0.550666381836,-9.46667277974,1.0,0.0,0.0,0.0,1.0,0.0,0.0,0.0,1.0
1463503079110369649,661,1463503079108120795,,8.07890033722,-9.17661952972,36.1562271118,0.0100039998069,1.0,0.0,0.0,0.0,1.0,0.0,0.0,0.0,1.0,2.80487799644,1.09756100178,-29.8780498505,1.0,0.0,0.0,0.0,1.0,0.0,0.0,0.0,1.0,-0.804451757813,-0.823605371094,-9.70609353027,1.0,0.0,0.0,0.0,1.0,0.0,0.0,0.0,1.0
1463503079121669398,662,1463503079118104459,,8.20350837708,-9.08555316925,35.6209182739,0.00999800022691,1.0,0.0,0.0,0.0,1.0,0.0,0.0,0.0,1.0,1.8292683363,0.731707334518,-34.8780479431,1.0,0.0,0.0,0.0,1.0,0.0,0.0,0.0,1.0,-0.900219824219,-0.713472094727,-9.57680722515,1.0,0.0,0.0,0.0,1.0,0.0,0.0,0.0,1.0
1463503079130427102,663,1463503079128156993,,8.33641433716,-8.97213459015,35.0414009094,0.0100060002878,1.0,0.0,0.0,0.0,1.0,0.0,0.0,0.0,1.0,1.40243899822,1.03658533096,-39.2073173523,1.0,0.0,0.0,0.0,1.0,0.0,0.0,0.0,1.0,-0.660799658203,-0.818816967773,-9.23204160156,1.0,0.0,0.0,0.0,1.0,0.0,0.0,0.0,1.0
1463503079141518157,664,1463503079138124507,,8.44904994965,-8.86841201782,34.4333953857,0.00999899953604,1.0,0.0,0.0,0.0,1.0,0.0,0.0,0.0,1.0,0.243902444839,0.243902444839,-42.1951255798,1.0,0.0,0.0,0.0,1.0,0.0,0.0,0.0,1.0,-0.751779321289,-0.632069238281,-9.11711992188,1.0,0.0,0.0,0.0,1.0,0.0,0.0,0.0,1.0
1463503079150399222,665,1463503079148153650,,8.52240753174,-8.76624393463,33.832736969,0.00999699998647,1.0,0.0,0.0,0.0,1.0,0.0,0.0,0.0,1.0,-1.40243899822,0.731707334518,-41.8902435303,1.0,0.0,0.0,0.0,1.0,0.0,0.0,0.0,1.0,-0.804451757813,-0.296881024126,-8.72447084961,1.0,0.0,0.0,0.0,1.0,0.0,0.0,0.0,1.0
1463503079159819318,666,1463503079158163154,,8.60367679596,-8.66464614868,33.2348899841,0.0100020002574,1.0,0.0,0.0,0.0,1.0,0.0,0.0,0.0,1.0,-2.43902444839,2.31707310677,-41.5243911743,1.0,0.0,0.0,0.0,1.0,0.0,0.0,0.0,1.0,-1.0534486574,-0.61770402832,-8.72447084961,1.0,0.0,0.0,0.0,1.0,0.0,0.0,0.0,1.0
1463503079170106646,667,1463503079168155101,,8.66808509827,-8.57648181915,32.6335411072,0.00999599974602,1.0,0.0,0.0,0.0,1.0,0.0,0.0,0.0,1.0,-4.39024400711,1.58536589146,-41.7682952881,1.0,0.0,0.0,0.0,1.0,0.0,0.0,0.0,1.0,-1.13963999023,-0.670376464844,-8.6239149644,1.0,0.0,0.0,0.0,1.0,0.0,0.0,0.0,1.0
1463503079179800451,668,1463503079178159811,,8.70401096344,-8.46121120453,32.0433273315,0.00999899953604,1.0,0.0,0.0,0.0,1.0,0.0,0.0,0.0,1.0,-6.34146356583,2.25609779358,-40.8536605835,1.0,0.0,0.0,0.0,1.0,0.0,0.0,0.0,1.0,-0.799663354492,-0.588973571866,-8.67658681641,1.0,0.0,0.0,0.0,1.0,0.0,0.0,0.0,1.0
1463503079189872000,669,1463503079188171710,,8.70365428925,-8.33541679382,31.4449596405,0.0100039998069,1.0,0.0,0.0,0.0,1.0,0.0,0.0,0.0,1.0,-8.41463470459,1.8902438879,-41.8292694092,1.0,0.0,0.0,0.0,1.0,0.0,0.0,0.0,1.0,-0.61770402832,-0.373495458984,-9.15063874512,1.0,0.0,0.0,0.0,1.0,0.0,0.0,0.0,1.0
1463503079199798879,670,1463503079198146362,,8.6985168457,-8.21785831451,30.8391704559,0.00999800022691,1.0,0.0,0.0,0.0,1.0,0.0,0.0,0.0,1.0,-9.51219558716,-0.609756112099,-42.134147644,1.0,0.0,0.0,0.0,1.0,0.0,0.0,0.0,1.0,-0.330399829102,-0.469263525391,-8.95431420898,1.0,0.0,0.0,0.0,1.0,0.0,0.0,0.0,1.0
1463503079209828752,671,1463503079208173369,,8.61782550812,-8.1229467392,30.2388286591,0.0100020002574,1.0,0.0,0.0,0.0,1.0,0.0,0.0,0.0,1.0,-12.8658542633,-2.31707310677,-41.8902435303,1.0,0.0,0.0,0.0,1.0,0.0,0.0,0.0,1.0,-0.363918652344,0.172382519531,-8.61912656108,1.0,0.0,0.0,0.0,1.0,0.0,0.0,0.0,1.0
1463503079219798350,672,1463503079218141144,,8.56704235077,-8.05055904388,29.624376297,0.00999599974602,1.0,0.0,0.0,0.0,1.0,0.0,0.0,0.0,1.0,-13.9634151459,-4.81707286835,-42.3780517578,1.0,0.0,0.0,0.0,1.0,0.0,0.0,0.0,1.0,-0.349553442383,-0.45968671875,-9.16500395508,1.0,0.0,0.0,0.0,1.0,0.0,0.0,0.0,1.0
1463503079229845778,673,1463503079228182998,,8.49607372284,-8.01006221771,28.9920024872,0.0100039998069,1.0,0.0,0.0,0.0,1.0,0.0,0.0,0.0,1.0,-14.2682924271,-7.68292665482,-43.9634170532,1.0,0.0,0.0,0.0,1.0,0.0,0.0,0.0,1.0,-0.435744702148,-0.143652099609,-9.56244201519,1.0,0.0,0.0,0.0,1.0,0.0,0.0,0.0,1.0
1463503079240221408,674,1463503079238473712,,8.45747375488,-7.99166488647,28.2972011566,0.0103010004386,1.0,0.0,0.0,0.0,1.0,0.0,0.0,0.0,1.0,-13.1097564697,-10.0609760284,-47.6219520569,1.0,0.0,0.0,0.0,1.0,0.0,0.0,0.0,1.0,-0.488417138672,-0.402225878906,-9.31344387349,1.0,0.0,0.0,0.0,1.0,0.0,0.0,0.0,1.0
1463503079249881143,675,1463503079248160276,,8.43067455292,-7.98980951309,27.5997886658,0.00969699956477,1.0,0.0,0.0,0.0,1.0,0.0,0.0,0.0,1.0,-11.4024391174,-13.1707324982,-51.8292694092,1.0,0.0,0.0,0.0,1.0,0.0,0.0,0.0,1.0,-0.330399829102,-0.172382519531,-9.23683000488,1.0,0.0,0.0,0.0,1.0,0.0,0.0,0.0,1.0
1463503079259848448,676,1463503079258174936,,8.46498012543,-8.0157585144,26.8281078339,0.0100090000778,1.0,0.0,0.0,0.0,1.0,0.0,0.0,0.0,1.0,-9.20731735229,-14.5731706619,-56.3414649963,1.0,0.0,0.0,0.0,1.0,0.0,0.0,0.0,1.0,-0.675164868164,-0.703895288086,-9.18894597168,1.0,0.0,0.0,0.0,1.0,0.0,0.0,0.0,1.0
1463503079269881186,677,1463503079268168915,,8.49781227112,-8.05587482452,26.0132751465,0.00999100040644,1.0,0.0,0.0,0.0,1.0,0.0,0.0,0.0,1.0,-8.84146404266,-16.158536911,-60.7317085266,1.0,0.0,0.0,0.0,1.0,0.0,0.0,0.0,1.0,-0.77093293457,-0.517147558594,-9.24640681152,1.0,0.0,0.0,0.0,1.0,0.0,0.0,0.0,1.0
1463503079279797647,678,1463503079278164717,,8.53100299835,-8.10020637512,25.166179657,0.0099849998951,1.0,0.0,0.0,0.0,1.0,0.0,0.0,0.0,1.0,-7.68292665482,-16.8292694092,-64.1463394165,1.0,0.0,0.0,0.0,1.0,0.0,0.0,0.0,1.0,-0.809240161133,-0.244208569336,-9.07402429199,1.0,0.0,0.0,0.0,1.0,0.0,0.0,0.0,1.0
1463503079289894722,679,1463503079288181514,,8.57842063904,-8.1519241333,24.2789440155,0.0100170001388,1.0,0.0,0.0,0.0,1.0,0.0,0.0,0.0,1.0,-6.09756088257,-18.475610733,-67.7439041138,1.0,0.0,0.0,0.0,1.0,0.0,0.0,0.0,1.0,-0.775721337891,-0.124498486328,-9.21288798828,1.0,0.0,0.0,0.0,1.0,0.0,0.0,0.0,1.0
1463503079299838742,680,1463503079298150747,,8.67049980164,-8.22194671631,23.3556137085,0.0099950004369,1.0,0.0,0.0,0.0,1.0,0.0,0.0,0.0,1.0,-5.54878091812,-20.2439022064,-70.792678833,1.0,0.0,0.0,0.0,1.0,0.0,0.0,0.0,1.0,-0.9193734375,-0.689530078125,-9.38048151997,1.0,0.0,0.0,0.0,1.0,0.0,0.0,0.0,1.0
1463503079309818081,681,1463503079308173639,,8.72490596771,-8.28343772888,22.4190254211,0.0100029995665,1.0,0.0,0.0,0.0,1.0,0.0,0.0,0.0,1.0,-7.50000047684,-21.158536911,-72.1951293945,1.0,0.0,0.0,0.0,1.0,0.0,0.0,0.0,1.0,-0.684741674805,-0.349553442383,-9.37569311665,1.0,0.0,0.0,0.0,1.0,0.0,0.0,0.0,1.0
1463503079319817374,682,1463503079318156677,,8.75835800171,-8.37020874023,21.4787998199,0.00999800022691,1.0,0.0,0.0,0.0,1.0,0.0,0.0,0.0,1.0,-10.1219511032,-22.9878044128,-72.2560958862,1.0,0.0,0.0,0.0,1.0,0.0,0.0,0.0,1.0,-0.861912597656,-0.430956298828,-9.73003554687,1.0,0.0,0.0,0.0,1.0,0.0,0.0,0.0,1.0
1463503079329902415,683,1463503079328180611,,8.77243518829,-8.46763801575,20.5267429352,0.0100029995665,1.0,0.0,0.0,0.0,1.0,0.0,0.0,0.0,1.0,-12.7439022064,-23.9634151459,-73.1707305908,1.0,0.0,0.0,0.0,1.0,0.0,0.0,0.0,1.0,-0.948103857422,-0.512359155273,-9.95509050293,1.0,0.0,0.0,0.0,1.0,0.0,0.0,0.0,1.0
1463503079340296226,684,1463503079338538059,,8.77467918396,-8.58255004883,19.5589675903,0.0100010000169,1.0,0.0,0.0,0.0,1.0,0.0,0.0,0.0,1.0,-15.4878053665,-24.7560977936,-74.4512252808,1.0,0.0,0.0,0.0,1.0,0.0,0.0,0.0,1.0,-1.17794714373,-0.718260498047,-9.94551369629,1.0,0.0,0.0,0.0,1.0,0.0,0.0,0.0,1.0
1463503079349878026,685,1463503079348184666,,8.76063537598,-8.69688796997,18.5777320862,0.0100079998374,1.0,0.0,0.0,0.0,1.0,0.0,0.0,0.0,1.0,-17.5609760284,-24.5731716156,-75.7317047119,1.0,0.0,0.0,0.0,1.0,0.0,0.0,0.0,1.0,-1.23540805664,-0.718260498047,-9.81143840332,1.0,0.0,0.0,0.0,1.0,0.0,0.0,0.0,1.0
1463503079359792716,686,1463503079358166402,,8.729845047,-8.83252429962,17.5828514099,0.00999199971557,1.0,0.0,0.0,0.0,1.0,0.0,0.0,0.0,1.0,-20.4268302917,-24.5121955872,-77.134147644,1.0,0.0,0.0,0.0,1.0,0.0,0.0,0.0,1.0,-1.69030637207,-0.847547387695,-9.85932243652,1.0,0.0,0.0,0.0,1.0,0.0,0.0,0.0,1.0
1463503079369870151,687,1463503079368149180,,8.62535667419,-8.95866012573,16.5927524567,0.00999599974602,1.0,0.0,0.0,0.0,1.0,0.0,0.0,0.0,1.0,-24.2073173523,-23.3536586761,-77.3780517578,1.0,0.0,0.0,0.0,1.0,0.0,0.0,0.0,1.0,-1.68072956543,-0.162805712891,-9.64863327495,1.0,0.0,0.0,0.0,1.0,0.0,0.0,0.0,1.0
1463503079379801355,688,1463503079378171082,,8.52515697479,-9.07717037201,15.59948349,0.00999999977648,1.0,0.0,0.0,0.0,1.0,0.0,0.0,0.0,1.0,-26.0975627899,-21.8292694092,-77.5609741211,1.0,0.0,0.0,0.0,1.0,0.0,0.0,0.0,1.0,-1.8626888916,-0.521935925381,-9.90241806641,1.0,0.0,0.0,0.0,1.0,0.0,0.0,0.0,1.0
1463503079389834666,689,1463503079388170062,,8.39416790009,-9.18189620972,14.6012859344,0.00999999977648,1.0,0.0,0.0,0.0,1.0,0.0,0.0,0.0,1.0,-27.3780498505,-20.0609760284,-78.6585388184,1.0,0.0,0.0,0.0,1.0,0.0,0.0,0.0,1.0,-1.96803376465,-0.129286889648,-10.0748005859,1.0,0.0,0.0,0.0,1.0,0.0,0.0,0.0,1.0
1463503079399797908,690,1463503079398141223,,8.29306983948,-9.26622867584,13.5842027664,0.00999899953604,1.0,0.0,0.0,0.0,1.0,0.0,0.0,0.0,1.0,-27.8048782349,-17.6829280853,-80.4268264771,1.0,0.0,0.0,0.0,1.0,0.0,0.0,0.0,1.0,-2.10689731481,-0.660799658203,-10.2615483154,1.0,0.0,0.0,0.0,1.0,0.0,0.0,0.0,1.0
1463503079409828458,691,1463503079408164792,,8.16209030151,-9.32402420044,12.5664920807,0.0100020002574,1.0,0.0,0.0,0.0,1.0,0.0,0.0,0.0,1.0,-28.4146347046,-15.7317075729,-81.1585388184,1.0,0.0,0.0,0.0,1.0,0.0,0.0,0.0,1.0,-1.94409174805,-0.172382519531,-10.2040874756,1.0,0.0,0.0,0.0,1.0,0.0,0.0,0.0,1.0
1463503079419793940,692,1463503079418152415,,8.05628681183,-9.36323928833,11.5233154297,0.00999999977648,1.0,0.0,0.0,0.0,1.0,0.0,0.0,0.0,1.0,-27.9878063202,-13.9024391174,-83.7195129395,1.0,0.0,0.0,0.0,1.0,0.0,0.0,0.0,1.0,-2.00634099121,-0.450109912109,-10.3333743652,1.0,0.0,0.0,0.0,1.0,0.0,0.0,0.0,1.0
1463503079429804225,693,1463503079428162387,,7.9738073349,-9.38468933105,10.4642801285,0.0100010000169,1.0,0.0,0.0,0.0,1.0,0.0,0.0,0.0,1.0,-26.9512195587,-12.1951217651,-85.365852356,1.0,0.0,0.0,0.0,1.0,0.0,0.0,0.0,1.0,-1.96803376465,-0.603338854892,-10.1035310059,1.0,0.0,0.0,0.0,1.0,0.0,0.0,0.0,1.0
1463503079440210591,694,1463503079438449298,,7.89206027985,-9.39663124084,9.39350318909,0.0100029995665,1.0,0.0,0.0,0.0,1.0,0.0,0.0,0.0,1.0,-25.5487804413,-9.63414573669,-87.134147644,1.0,0.0,0.0,0.0,1.0,0.0,0.0,0.0,1.0,-2.28885678711,-0.296881024126,-10.1562034424,1.0,0.0,0.0,0.0,1.0,0.0,0.0,0.0,1.0
1463503079452227485,695,1463503079448191447,,7.84794139862,-9.41317939758,8.30274391174,0.0100279999897,1.0,0.0,0.0,0.0,1.0,0.0,0.0,0.0,1.0,-23.2926845551,-8.23170757294,-88.841468811,1.0,0.0,0.0,0.0,1.0,0.0,0.0,0.0,1.0,-2.70544787598,-0.507570751953,-10.2902787354,1.0,0.0,0.0,0.0,1.0,0.0,0.0,0.0,1.0
1463503079460115768,696,1463503079458326188,,7.90841245651,-9.38975811005,7.18895101547,0.00998200010508,1.0,0.0,0.0,0.0,1.0,0.0,0.0,0.0,1.0,-19.1463432312,-4.14634132385,-91.2195129395,1.0,0.0,0.0,0.0,1.0,0.0,0.0,0.0,1.0,-2.86346518555,-1.65199914551,-10.4387192383,1.0,0.0,0.0,0.0,1.0,0.0,0.0,0.0,1.0
1463503079469871306,697,1463503079468222279,,7.91515207291,-9.31539916992,6.07662057877,0.00997999962419,1.0,0.0,0.0,0.0,1.0,0.0,0.0,0.0,1.0,-22.5609760284,-0.426829278469,-91.9512176514,1.0,0.0,0.0,0.0,1.0,0.0,0.0,0.0,1.0,-2.73896669922,-1.36948334961,-11.0133276367,1.0,0.0,0.0,0.0,1.0,0.0,0.0,0.0,1.0
1463503079479840488,698,1463503079478185522,,7.86143732071,-9.1683216095,4.98412799835,0.0100159998983,1.0,0.0,0.0,0.0,1.0,0.0,0.0,0.0,1.0,-24.6341457367,2.31707310677,-90.5487823486,1.0,0.0,0.0,0.0,1.0,0.0,0.0,0.0,1.0,-1.72382519531,-0.689530078125,-10.9223479736,1.0,0.0,0.0,0.0,1.0,0.0,0.0,0.0,1.0
1463503079489901982,699,1463503079488214613,,7.8085808754,-9.0526008606,3.90511679649,0.00999199971557,1.0,0.0,0.0,0.0,1.0,0.0,0.0,0.0,1.0,-25.2439041138,4.2682929039,-89.5731735229,1.0,0.0,0.0,0.0,1.0,0.0,0.0,0.0,1.0,-2.70065947266,-0.900219824219,-11.0660000732,1.0,0.0,0.0,0.0,1.0,0.0,0.0,0.0,1.0
1463503079499910495,700,1463503079498204476,,7.70681142807,-8.94469642639,2.86419701576,0.00999800022691,1.0,0.0,0.0,0.0,1.0,0.0,0.0,0.0,1.0,-27.8048782349,6.58536624908,-86.2804946899,1.0,0.0,0.0,0.0,1.0,0.0,0.0,0.0,1.0,-3.08373173828,-0.550666381836,-10.6925046143,1.0,0.0,0.0,0.0,1.0,0.0,0.0,0.0,1.0
1463503079509901348,701,1463503079508248518,,7.57679176331,-8.79422855377,1.85861861706,0.00999899953604,1.0,0.0,0.0,0.0,1.0,0.0,0.0,0.0,1.0,-28.5975608826,12.3780488968,-83.7195129395,1.0,0.0,0.0,0.0,1.0,0.0,0.0,0.0,1.0,-3.3231519043,-0.282515795898,-10.9415015869,1.0,0.0,0.0,0.0,1.0,0.0,0.0,0.0,1.0
1463503079519896004,702,1463503079518195507,,7.48992395401,-8.62688350677,0.855755746365,0.00999999977648,1.0,0.0,0.0,0.0,1.0,0.0,0.0,0.0,1.0,-27.5,15.6097564697,-83.2926864624,1.0,0.0,0.0,0.0,1.0,0.0,0.0,0.0,1.0,-3.54820686035,-0.972045874023,-10.8265799072,1.0,0.0,0.0,0.0,1.0,0.0,0.0,0.0,1.0
1463503079529847108,703,1463503079528157968,,7.41639137268,-8.39660263062,-0.154086813331,0.00999999977648,1.0,0.0,0.0,0.0,1.0,0.0,0.0,0.0,1.0,-27.0731716156,20.4268302917,-84.4512176514,1.0,0.0,0.0,0.0,1.0,0.0,0.0,0.0,1.0,-3.26090266113,-1.21625444336,-11.03248125,1.0,0.0,0.0,0.0,1.0,0.0,0.0,0.0,1.0
1463503079539942361,704,1463503079538211231,,7.36064529419,-8.12229537964,-1.18534481525,0.0100060002878,1.0,0.0,0.0,0.0,1.0,0.0,0.0,0.0,1.0,-26.4024391174,23.5365848541,-86.7682952881,1.0,0.0,0.0,0.0,1.0,0.0,0.0,0.0,1.0,-3.00711728516,-1.47482822266,-11.1234609131,1.0,0.0,0.0,0.0,1.0,0.0,0.0,0.0,1.0
1463503079549818343,705,1463503079548144519,,7.29087209702,-7.80332279205,-2.23071241379,0.00999199971557,1.0,0.0,0.0,0.0,1.0,0.0,0.0,0.0,1.0,-25.6097564697,25.6097564697,-88.9024353027,1.0,0.0,0.0,0.0,1.0,0.0,0.0,0.0,1.0,-2.49475812988,-1.09175595703,-11.3006318359,1.0,0.0,0.0,0.0,1.0,0.0,0.0,0.0,1.0
1463503079559785701,706,1463503079558146885,,7.22711229324,-7.44272470474,-3.31432676315,0.0100010000169,1.0,0.0,0.0,0.0,1.0,0.0,0.0,0.0,1.0,-25.182926178,26.5853652954,-92.7439041138,1.0,0.0,0.0,0.0,1.0,0.0,0.0,0.0,1.0,-1.82438166504,-1.13006318359,-11.1617681396,1.0,0.0,0.0,0.0,1.0,0.0,0.0,0.0,1.0
1463503079569865377,707,1463503079568151907,,7.1499247551,-7.09694576263,-4.40007638931,0.0100029995665,1.0,0.0,0.0,0.0,1.0,0.0,0.0,0.0,1.0,-24.2682933807,25.0609760284,-92.9878005981,1.0,0.0,0.0,0.0,1.0,0.0,0.0,0.0,1.0,-1.83395847168,-0.842758984375,-11.899182251,1.0,0.0,0.0,0.0,1.0,0.0,0.0,0.0,1.0
1463503079579793819,708,1463503079578153440,,6.99885559082,-6.75993585587,-5.47253799438,0.00999800022691,1.0,0.0,0.0,0.0,1.0,0.0,0.0,0.0,1.0,-27.3780498505,24.0243911743,-92.0121994019,1.0,0.0,0.0,0.0,1.0,0.0,0.0,0.0,1.0,-1.57538469238,-0.076614453125,-11.4347071289,1.0,0.0,0.0,0.0,1.0,0.0,0.0,0.0,1.0
1463503079589854064,709,1463503079588167528,,6.88612222672,-6.45248985291,-6.55948781967,0.0100029995665,1.0,0.0,0.0,0.0,1.0,0.0,0.0,0.0,1.0,-25.7317085266,22.5609760284,-92.8658599854,1.0,0.0,0.0,0.0,1.0,0.0,0.0,0.0,1.0,-1.80043964844,-0.588973571866,-11.4442839355,1.0,0.0,0.0,0.0,1.0,0.0,0.0,0.0,1.0
1463503079599822672,710,1463503079598157912,,6.81055212021,-6.18033647537,-7.68522119522,0.00999800022691,1.0,0.0,0.0,0.0,1.0,0.0,0.0,0.0,1.0,-24.817073822,19.5731716156,-96.0975646973,1.0,0.0,0.0,0.0,1.0,0.0,0.0,0.0,1.0,-1.9105729248,-1.17315874041,-11.4778027588,1.0,0.0,0.0,0.0,1.0,0.0,0.0,0.0,1.0
1463503079609825402,711,1463503079608153557,,6.72343540192,-5.90594959259,-8.84887886047,0.00999999977648,1.0,0.0,0.0,0.0,1.0,0.0,0.0,0.0,1.0,-22.5,17.9878044128,-100.060974121,1.0,0.0,0.0,0.0,1.0,0.0,0.0,0.0,1.0,-1.56580788574,-0.478840332031,-11.7076461182,1.0,0.0,0.0,0.0,1.0,0.0,0.0,0.0,1.0
1463503079619872206,712,1463503079618161289,,6.68043088913,-5.65503454208,-10.0706090927,0.00999999977648,1.0,0.0,0.0,0.0,1.0,0.0,0.0,0.0,1.0,-17.9268302917,15.4878053665,-105.60975647,1.0,0.0,0.0,0.0,1.0,0.0,0.0,0.0,1.0,-1.58974990234,-0.416591088867,-11.7172229248,1.0,0.0,0.0,0.0,1.0,0.0,0.0,0.0,1.0
1463503079629823362,713,1463503079628157664,,6.67362070084,-5.43313503265,-11.3320932388,0.00999999977648,1.0,0.0,0.0,0.0,1.0,0.0,0.0,0.0,1.0,-12.6219520569,13.2926826477,-109.512199402,1.0,0.0,0.0,0.0,1.0,0.0,0.0,0.0,1.0,-1.80043964844,-0.076614453125,-11.9135474609,1.0,0.0,0.0,0.0,1.0,0.0,0.0,0.0,1.0
1463503079639900068,714,1463503079638175190,,6.66526794434,-5.21168422699,-12.6282720566,0.0100020002574,1.0,0.0,0.0,0.0,1.0,0.0,0.0,0.0,1.0,-10.0,10.6707315445,-112.926826477,1.0,0.0,0.0,0.0,1.0,0.0,0.0,0.0,1.0,-1.24019645996,0.45968671875,-11.5208983887,1.0,0.0,0.0,0.0,1.0,0.0,0.0,0.0,1.0
1463503079649838930,715,1463503079648156874,,6.71372509003,-5.01702213287,-13.9300937653,0.0099950004369,1.0,0.0,0.0,0.0,1.0,0.0,0.0,0.0,1.0,-6.58536624908,8.10975551605,-113.048782349,1.0,0.0,0.0,0.0,1.0,0.0,0.0,0.0,1.0,-1.24498486328,-0.0957680664062,-11.5783592285,1.0,0.0,0.0,0.0,1.0,0.0,0.0,0.0,1.0
1463503079659802641,716,1463503079658150593,,6.74937677383,-4.85833883286,-15.2255239487,0.00999999977648,1.0,0.0,0.0,0.0,1.0,0.0,0.0,0.0,1.0,-4.2682929039,6.34146356583,-112.439025879,1.0,0.0,0.0,0.0,1.0,0.0,0.0,0.0,1.0,-1.55144267578,0.541089611728,-11.3102086426,1.0,0.0,0.0,0.0,1.0,0.0,0.0,0.0,1.0
1463503079669775365,717,1463503079668142487,,6.85078382492,-4.74411964417,-16.5228900909,0.00999899953604,1.0,0.0,0.0,0.0,1.0,0.0,0.0,0.0,1.0,-0.365853667259,3.53658556938,-112.073173523,1.0,0.0,0.0,0.0,1.0,0.0,0.0,0.0,1.0,-1.8866309082,-0.067037651051,-11.3006318359,1.0,0.0,0.0,0.0,1.0,0.0,0.0,0.0,1.0
1463503079679818626,718,1463503079678152251,,6.9640879631,-4.63901138306,-17.8177509308,0.0100010000169,1.0,0.0,0.0,0.0,1.0,0.0,0.0,0.0,1.0,2.19512200356,2.25609779358,-111.768295288,1.0,0.0,0.0,0.0,1.0,0.0,0.0,0.0,1.0,-1.74776721191,0.129286889648,-10.793061084,1.0,0.0,0.0,0.0,1.0,0.0,0.0,0.0,1.0
1463503079689878193,719,1463503079688184832,,7.10054206848,-4.54989337921,-19.1142120361,0.0100020002574,1.0,0.0,0.0,0.0,1.0,0.0,0.0,0.0,1.0,4.63414621353,0.853658556938,-111.768295288,1.0,0.0,0.0,0.0,1.0,0.0,0.0,0.0,1.0,-1.7908628418,0.0909796630859,-10.5967365479,1.0,0.0,0.0,0.0,1.0,0.0,0.0,0.0,1.0
1463503079699874568,720,1463503079698157296,,7.26089143753,-4.47202825546,-20.3954467773,0.0100010000169,1.0,0.0,0.0,0.0,1.0,0.0,0.0,0.0,1.0,4.75609779358,-0.243902444839,-109.939025879,1.0,0.0,0.0,0.0,1.0,0.0,0.0,0.0,1.0,-1.84353527832,-0.435744702148,-10.8074262939,1.0,0.0,0.0,0.0,1.0,0.0,0.0,0.0,1.0
1463503079710166324,721,1463503079708161433,,7.38448524475,-4.39535188675,-21.6579189301,0.00999800022691,1.0,0.0,0.0,0.0,1.0,0.0,0.0,0.0,1.0,4.57317066193,-1.40243899822,-108.231712341,1.0,0.0,0.0,0.0,1.0,0.0,0.0,0.0,1.0,-1.58496149902,0.143652099609,-10.4530844482,1.0,0.0,0.0,0.0,1.0,0.0,0.0,0.0,1.0
1463503079720025792,722,1463503079718156662,,7.53101587296,-4.34163475037,-22.9075050354,0.00999999977648,1.0,0.0,0.0,0.0,1.0,0.0,0.0,0.0,1.0,4.32926845551,-2.86585378647,-106.524391174,1.0,0.0,0.0,0.0,1.0,0.0,0.0,0.0,1.0,-1.71903679199,-0.392649072266,-10.2567599121,1.0,0.0,0.0,0.0,1.0,0.0,0.0,0.0,1.0
1463503079729924749,723,1463503079728182888,,7.66369867325,-4.29233169556,-24.1392269135,0.0100060002878,1.0,0.0,0.0,0.0,1.0,0.0,0.0,0.0,1.0,4.08536577225,-2.80487799644,-104.756103516,1.0,0.0,0.0,0.0,1.0,0.0,0.0,0.0,1.0,-1.82917006836,-0.253785375977,-10.3381627686,1.0,0.0,0.0,0.0,1.0,0.0,0.0,0.0,1.0
1463503079740499070,724,1463503079738174262,,7.796043396,-4.25549650192,-25.3543739319,0.00999800022691,1.0,0.0,0.0,0.0,1.0,0.0,0.0,0.0,1.0,1.58536589146,-4.2682929039,-102.804878235,1.0,0.0,0.0,0.0,1.0,0.0,0.0,0.0,1.0,-1.71903679199,-0.746990917969,-9.90720646973,1.0,0.0,0.0,0.0,1.0,0.0,0.0,0.0,1.0
1463503079749869936,725,1463503079748153497,,7.88667011261,-4.22607517242,-26.5353050232,0.00999599974602,1.0,0.0,0.0,0.0,1.0,0.0,0.0,0.0,1.0,-3.29268312454,-3.7804877758,-99.3902435303,1.0,0.0,0.0,0.0,1.0,0.0,0.0,0.0,1.0,-1.91536132812,-0.962469067383,-10.0029745361,1.0,0.0,0.0,0.0,1.0,0.0,0.0,0.0,1.0
1463503079760732657,726,1463503079758149977,,7.92220592499,-4.20311260223,-27.6940021515,0.0100010000169,1.0,0.0,0.0,0.0,1.0,0.0,0.0,0.0,1.0,-7.98780536652,-4.32926845551,-97.0731735229,1.0,0.0,0.0,0.0,1.0,0.0,0.0,0.0,1.0,-1.90578452148,-0.876277807617,-10.0748005859,1.0,0.0,0.0,0.0,1.0,0.0,0.0,0.0,1.0
1463503079770170153,727,1463503079768156198,,7.91790819168,-4.1797118187,-28.8419933319,0.00999699998647,1.0,0.0,0.0,0.0,1.0,0.0,0.0,0.0,1.0,-10.6707315445,-4.14634132385,-96.1585388184,1.0,0.0,0.0,0.0,1.0,0.0,0.0,0.0,1.0,-1.81001645508,-0.632069238281,-9.56244201519,1.0,0.0,0.0,0.0,1.0,0.0,0.0,0.0,1.0
1463503079779890110,728,1463503079778168358,,7.88141918182,-4.17403793335,-29.9802360535,0.0100020002574,1.0,0.0,0.0,0.0,1.0,0.0,0.0,0.0,1.0,-12.0121955872,-5.91463422775,-95.0,1.0,0.0,0.0,0.0,1.0,0.0,0.0,0.0,1.0,-1.72382519531,-0.316034619141,-9.31344387349,1.0,0.0,0.0,0.0,1.0,0.0,0.0,0.0,1.0
1463503079789875545,729,1463503079788177027,,7.85663175583,-4.18661546707,-31.113193512,0.00999899953604,1.0,0.0,0.0,0.0,1.0,0.0,0.0,0.0,1.0,-12.8048782349,-6.46341466904,-94.2682952881,1.0,0.0,0.0,0.0,1.0,0.0,0.0,0.0,1.0,-1.91536132812,-0.641646044922,-9.28471345356,1.0,0.0,0.0,0.0,1.0,0.0,0.0,0.0,1.0
1463503079799796851,730,1463503079798200909,,7.83156871796,-4.21243429184,-32.2420883179,0.00999999977648,1.0,0.0,0.0,0.0,1.0,0.0,0.0,0.0,1.0,-12.7439022064,-6.95121955872,-93.7804870605,1.0,0.0,0.0,0.0,1.0,0.0,0.0,0.0,1.0,-2.00155258789,-0.60812722168,-9.10275471191,1.0,0.0,0.0,0.0,1.0,0.0,0.0,0.0,1.0
1463503079809906221,731,1463503079808194002,,7.80541849136,-4.23722887039,-33.3712387085,0.010006999597,1.0,0.0,0.0,0.0,1.0,0.0,0.0,0.0,1.0,-14.0853662491,-7.62195110321,-93.5365905762,1.0,0.0,0.0,0.0,1.0,0.0,0.0,0.0,1.0,-1.91536132812,-0.823605371094,-9.34217429341,1.0,0.0,0.0,0.0,1.0,0.0,0.0,0.0,1.0
1463503079820019238,732,1463503079818260237,,7.72819423676,-4.26942873001,-34.4895973206,0.00999699998647,1.0,0.0,0.0,0.0,1.0,0.0,0.0,0.0,1.0,-15.9146347046,-8.04878044128,-92.7439041138,1.0,0.0,0.0,0.0,1.0,0.0,0.0,0.0,1.0,-1.99676418457,-0.272938989258,-9.67257470703,1.0,0.0,0.0,0.0,1.0,0.0,0.0,0.0,1.0
1463503079830196905,733,1463503079828227178,,7.63408374786,-4.30581569672,-35.6053009033,0.00999599974602,1.0,0.0,0.0,0.0,1.0,0.0,0.0,0.0,1.0,-15.8536596298,-7.98780536652,-92.6219482422,1.0,0.0,0.0,0.0,1.0,0.0,0.0,0.0,1.0,-1.98718737793,0.0574608398438,-9.36611631001,1.0,0.0,0.0,0.0,1.0,0.0,0.0,0.0,1.0
1463503079840430209,734,1463503079838163852,,7.53273630142,-4.36881399155,-36.7039985657,0.0100050000474,1.0,0.0,0.0,0.0,1.0,0.0,0.0,0.0,1.0,-16.4024391174,-9.02439117432,-90.6707382202,1.0,0.0,0.0,0.0,1.0,0.0,0.0,0.0,1.0,-2.18351191406,0.100556469727,-9.2942902602,1.0,0.0,0.0,0.0,1.0,0.0,0.0,0.0,1.0
1463503079850786355,735,1463503079848205237,,7.43390607834,-4.42517185211,-37.7720565796,0.00999400019646,1.0,0.0,0.0,0.0,1.0,0.0,0.0,0.0,1.0,-17.8658542633,-9.45121955872,-87.5,1.0,0.0,0.0,0.0,1.0,0.0,0.0,0.0,1.0,-1.92493813477,-0.201112939453,-9.39484672993,1.0,0.0,0.0,0.0,1.0,0.0,0.0,0.0,1.0
1463503079860400350,736,1463503079858153633,,7.31300926208,-4.50031471252,-38.7992019653,0.0100050000474,1.0,0.0,0.0,0.0,1.0,0.0,0.0,0.0,1.0,-18.0487823486,-9.39024448395,-83.4146347046,1.0,0.0,0.0,0.0,1.0,0.0,0.0,0.0,1.0,-2.19787712402,0.134075302102,-9.64384487163,1.0,0.0,0.0,0.0,1.0,0.0,0.0,0.0,1.0
1463503079870042268,737,1463503079868151050,,7.19327640533,-4.58410930634,-39.8042945862,0.00999699998647,1.0,0.0,0.0,0.0,1.0,0.0,0.0,0.0,1.0,-19.817073822,-10.0609760284,-81.0365905762,1.0,0.0,0.0,0.0,1.0,0.0,0.0,0.0,1.0,-2.15957004359,-0.181959326172,-9.64863327495,1.0,0.0,0.0,0.0,1.0,0.0,0.0,0.0,1.0
1463503079880297557,738,1463503079878161647,,7.05708932877,-4.67165517807,-40.7697410583,0.0100029995665,1.0,0.0,0.0,0.0,1.0,0.0,0.0,0.0,1.0,-20.0,-9.26829242706,-77.1951217651,1.0,0.0,0.0,0.0,1.0,0.0,0.0,0.0,1.0,-2.27449157715,0.067037651051,-9.73961235352,1.0,0.0,0.0,0.0,1.0,0.0,0.0,0.0,1.0
1463503079893421792,739,1463503079888210742,,6.93706130981,-4.76349687576,-41.7282295227,0.00999800022691,1.0,0.0,0.0,0.0,1.0,0.0,0.0,0.0,1.0,-19.9390239716,-8.90243911743,-76.4634170532,1.0,0.0,0.0,0.0,1.0,0.0,0.0,0.0,1.0,-2.40377861293,-0.167594116211,-9.82580361328,1.0,0.0,0.0,0.0,1.0,0.0,0.0,0.0,1.0
1463503079900274783,740,1463503079898230769,,6.80931377411,-4.84759378433,-42.6647338867,0.00999999977648,1.0,0.0,0.0,0.0,1.0,0.0,0.0,0.0,1.0,-19.3292694092,-8.5365858078,-74.3902511597,1.0,0.0,0.0,0.0,1.0,0.0,0.0,0.0,1.0,-2.26970317383,0.0909796630859,-9.88326445312,1.0,0.0,0.0,0.0,1.0,0.0,0.0,0.0,1.0
1463503079909860178,741,1463503079908221517,,6.69280052185,-4.9262881279,-43.5806846619,0.0100130001083,1.0,0.0,0.0,0.0,1.0,0.0,0.0,0.0,1.0,-18.4146347046,-6.89024400711,-72.3780517578,1.0,0.0,0.0,0.0,1.0,0.0,0.0,0.0,1.0,-2.41814367676,0.067037651051,-9.93593688965,1.0,0.0,0.0,0.0,1.0,0.0,0.0,0.0,1.0
1463503079919790756,742,1463503079918173247,,6.57088184357,-5.00646543503,-44.4705848694,0.00998899992555,1.0,0.0,0.0,0.0,1.0,0.0,0.0,0.0,1.0,-18.1097564697,-5.73170757294,-70.1829299927,1.0,0.0,0.0,0.0,1.0,0.0,0.0,0.0,1.0,-2.60967980957,0.239420166016,-9.98860932617,1.0,0.0,0.0,0.0,1.0,0.0,0.0,0.0,1.0
1463503079930201029,743,1463503079928187855,,6.46210336685,-5.07735204697,-45.321308136,0.010006999597,1.0,0.0,0.0,0.0,1.0,0.0,0.0,0.0,1.0,-17.317073822,-3.47560977936,-66.2804946899,1.0,0.0,0.0,0.0,1.0,0.0,0.0,0.0,1.0,-2.72460148926,0.119710083008,-9.8784760498,1.0,0.0,0.0,0.0,1.0,0.0,0.0,0.0,1.0
1463503079939932604,744,1463503079938210538,,6.33640670776,-5.12321710587,-46.1467666626,0.010006999597,1.0,0.0,0.0,0.0,1.0,0.0,0.0,0.0,1.0,-18.5975627899,0.426829278469,-64.2073135376,1.0,0.0,0.0,0.0,1.0,0.0,0.0,0.0,1.0,-3.01190568848,0.201112939453,-10.180145459,1.0,0.0,0.0,0.0,1.0,0.0,0.0,0.0,1.0
1463503079950201385,745,1463503079948154922,,6.2182135582,-5.15634346008,-46.9427604675,0.0099849998951,1.0,0.0,0.0,0.0,1.0,0.0,0.0,0.0,1.0,-19.0243911743,2.5,-61.524394989,1.0,0.0,0.0,0.0,1.0,0.0,0.0,0.0,1.0,-3.16034619141,-0.0287304199219,-10.419565625,1.0,0.0,0.0,0.0,1.0,0.0,0.0,0.0,1.0
1463503079959816891,746,1463503079958148953,,6.08354187012,-5.14272975922,-47.722946167,0.00999899953604,1.0,0.0,0.0,0.0,1.0,0.0,0.0,0.0,1.0,-19.6341457367,6.34146356583,-60.3048782349,1.0,0.0,0.0,0.0,1.0,0.0,0.0,0.0,1.0,-2.95444484863,0.15801730957,-10.5153336914,1.0,0.0,0.0,0.0,1.0,0.0,0.0,0.0,1.0
1463503079969835876,747,1463503079968171949,,5.92902183533,-5.10951852798,-48.4959907532,0.0100020002574,1.0,0.0,0.0,0.0,1.0,0.0,0.0,0.0,1.0,-19.8780498505,8.71951198578,-59.9390258789,1.0,0.0,0.0,0.0,1.0,0.0,0.0,0.0,1.0,-3.1124621582,0.526724328702,-10.9606552002,1.0,0.0,0.0,0.0,1.0,0.0,0.0,0.0,1.0
1463503079980267560,748,1463503079978185620,,5.79301929474,-5.04949903488,-49.2519798279,0.0100090000778,1.0,0.0,0.0,0.0,1.0,0.0,0.0,0.0,1.0,-18.2926826477,11.8292684555,-58.4146347046,1.0,0.0,0.0,0.0,1.0,0.0,0.0,0.0,1.0,-3.02148249512,0.440533105469,-10.6206785645,1.0,0.0,0.0,0.0,1.0,0.0,0.0,0.0,1.0
1463503079989846130,749,1463503079988169700,,5.63904285431,-4.96698093414,-49.9934692383,0.009990000166,1.0,0.0,0.0,0.0,1.0,0.0,0.0,0.0,1.0,-18.5975627899,15.6097564697,-57.5609779358,1.0,0.0,0.0,0.0,1.0,0.0,0.0,0.0,1.0,-3.30399829102,0.746990917969,-10.7499654541,1.0,0.0,0.0,0.0,1.0,0.0,0.0,0.0,1.0
1463503080000316208,750,1463503079998195093,,5.50295829773,-4.86175918579,-50.7102012634,0.00999800022691,1.0,0.0,0.0,0.0,1.0,0.0,0.0,0.0,1.0,-18.3536586761,18.9024391174,-55.1219520569,1.0,0.0,0.0,0.0,1.0,0.0,0.0,0.0,1.0,-3.37582434082,0.392649072266,-10.6398321777,1.0,0.0,0.0,0.0,1.0,0.0,0.0,0.0,1.0
1463503080010267521,751,1463503080008165472,,5.3616027832,-4.69903707504,-51.4134597778,0.00999800022691,1.0,0.0,0.0,0.0,1.0,0.0,0.0,0.0,1.0,-19.4512195587,22.3170719147,-53.9634170532,1.0,0.0,0.0,0.0,1.0,0.0,0.0,0.0,1.0,-2.74854350586,0.225054956055,-10.419565625,1.0,0.0,0.0,0.0,1.0,0.0,0.0,0.0,1.0
1463503080019842288,752,1463503080018175809,,5.29592370987,-4.52917385101,-52.1296768188,0.010006999597,1.0,0.0,0.0,0.0,1.0,0.0,0.0,0.0,1.0,-18.1707305908,25.8536586761,-54.9390258789,1.0,0.0,0.0,0.0,1.0,0.0,0.0,0.0,1.0,-3.19386501465,-0.943315454102,-10.0795889893,1.0,0.0,0.0,0.0,1.0,0.0,0.0,0.0,1.0
1463503080030210155,753,1463503080028154523,,5.15375423431,-4.32016658783,-52.8316230774,0.0099950004369,1.0,0.0,0.0,0.0,1.0,0.0,0.0,0.0,1.0,-20.4268302917,27.1341457367,-54.0853652954,1.0,0.0,0.0,0.0,1.0,0.0,0.0,0.0,1.0,-2.67671745605,0.00478840332031,-10.4530844482,1.0,0.0,0.0,0.0,1.0,0.0,0.0,0.0,1.0
1463503080039940688,754,1463503080038171997,,4.97075414658,-4.10712718964,-53.5043144226,0.0100020002574,1.0,0.0,0.0,0.0,1.0,0.0,0.0,0.0,1.0,-21.5853652954,28.5975608826,-51.3414649963,1.0,0.0,0.0,0.0,1.0,0.0,0.0,0.0,1.0,-2.60489140625,0.474051928711,-9.86411083984,1.0,0.0,0.0,0.0,1.0,0.0,0.0,0.0,1.0
1463503080050257501,755,1463503080048172644,,4.78641176224,-3.88671326637,-54.1537208557,0.0100020002574,1.0,0.0,0.0,0.0,1.0,0.0,0.0,0.0,1.0,-22.8048782349,30.6097583771,-48.9634170532,1.0,0.0,0.0,0.0,1.0,0.0,0.0,0.0,1.0,-2.65277543945,0.229843359375,-9.59117243511,1.0,0.0,0.0,0.0,1.0,0.0,0.0,0.0,1.0
1463503080060182923,756,1463503080058145576,,4.56781578064,-3.67354655266,-54.7665405273,0.00999699998647,1.0,0.0,0.0,0.0,1.0,0.0,0.0,0.0,1.0,-24.5731716156,32.1951217651,-45.4268302917,1.0,0.0,0.0,0.0,1.0,0.0,0.0,0.0,1.0,-3.05500131836,0.497993945312,-9.95030209961,1.0,0.0,0.0,0.0,1.0,0.0,0.0,0.0,1.0
1463503080069815984,757,1463503080068155496,,4.36647415161,-3.45026445389,-55.3616828918,0.00999899953604,1.0,0.0,0.0,0.0,1.0,0.0,0.0,0.0,1.0,-24.2073173523,34.0243911743,-43.5365867615,1.0,0.0,0.0,0.0,1.0,0.0,0.0,0.0,1.0,-3.09809694824,0.220266552734,-9.94072529297,1.0,0.0,0.0,0.0,1.0,0.0,0.0,0.0,1.0
1463503080080671517,758,1463503080078156612,,4.16171836853,-3.19064831734,-55.9465522766,0.00999800022691,1.0,0.0,0.0,0.0,1.0,0.0,0.0,0.0,1.0,-25.0,37.0731697083,-42.5609779358,1.0,0.0,0.0,0.0,1.0,0.0,0.0,0.0,1.0,-3.1364041748,0.119710083008,-10.8122146973,1.0,0.0,0.0,0.0,1.0,0.0,0.0,0.0,1.0
1463503080089951059,759,1463503080088165281,,3.95939517021,-2.89758181572,-56.5270576477,0.0100010000169,1.0,0.0,0.0,0.0,1.0,0.0,0.0,0.0,1.0,-23.3536586761,37.865852356,-42.0731697083,1.0,0.0,0.0,0.0,1.0,0.0,0.0,0.0,1.0,-2.56658417969,0.368707055664,-11.0803652832,1.0,0.0,0.0,0.0,1.0,0.0,0.0,0.0,1.0
1463503080100688283,760,1463503080098152540,,3.78617286682,-2.58215236664,-57.1321372986,0.00999999977648,1.0,0.0,0.0,0.0,1.0,0.0,0.0,0.0,1.0,-19.817073822,37.6219520569,-44.390247345,1.0,0.0,0.0,0.0,1.0,0.0,0.0,0.0,1.0,-1.99197578125,0.483628735352,-11.0995188965,1.0,0.0,0.0,0.0,1.0,0.0,0.0,0.0,1.0
1463503080110966963,761,1463503080108165481,,3.66260933876,-2.27140951157,-57.7668571472,0.00999999977648,1.0,0.0,0.0,0.0,1.0,0.0,0.0,0.0,1.0,-15.3658533096,34.817073822,-47.0121994019,1.0,0.0,0.0,0.0,1.0,0.0,0.0,0.0,1.0,-1.49877023926,0.373495458984,-11.3772462891,1.0,0.0,0.0,0.0,1.0,0.0,0.0,0.0,1.0
1463503080120781681,762,1463503080118173578,,3.57479786873,-1.99239349365,-58.4344215393,0.0100039998069,1.0,0.0,0.0,0.0,1.0,0.0,0.0,0.0,1.0,-10.9146347046,30.5487804413,-49.9390258789,1.0,0.0,0.0,0.0,1.0,0.0,0.0,0.0,1.0,-1.20188930646,0.517147558594,-11.1138841064,1.0,0.0,0.0,0.0,1.0,0.0,0.0,0.0,1.0
1463503080130326337,763,1463503080128247210,,3.49426484108,-1.7379617691,-59.1156845093,0.010006999597,1.0,0.0,0.0,0.0,1.0,0.0,0.0,0.0,1.0,-6.89024400711,25.9146347046,-51.0365867615,1.0,0.0,0.0,0.0,1.0,0.0,0.0,0.0,1.0,-0.718260498047,1.13963999023,-11.1761333496,1.0,0.0,0.0,0.0,1.0,0.0,0.0,0.0,1.0
1463503080140078333,764,1463503080138198940,,3.51335597038,-1.55279386044,-59.8297119141,0.00999199971557,1.0,0.0,0.0,0.0,1.0,0.0,0.0,0.0,1.0,0.0609756112099,21.8902435303,-54.0243911743,1.0,0.0,0.0,0.0,1.0,0.0,0.0,0.0,1.0,-1.1875240965,0.488417138672,-10.4435076416,1.0,0.0,0.0,0.0,1.0,0.0,0.0,0.0,1.0
1463503080150383269,765,1463503080148234751,,3.60471224785,-1.39550435543,-60.572883606,0.00999899953604,1.0,0.0,0.0,0.0,1.0,0.0,0.0,0.0,1.0,2.80487799644,18.9634151459,-56.5853691101,1.0,0.0,0.0,0.0,1.0,0.0,0.0,0.0,1.0,-1.01992990723,-0.325611425781,-9.06444748535,1.0,0.0,0.0,0.0,1.0,0.0,0.0,0.0,1.0
1463503080160980773,766,1463503080158234773,,3.64515542984,-1.28205168247,-61.2722396851,0.0100090000778,1.0,0.0,0.0,0.0,1.0,0.0,0.0,0.0,1.0,-0.548780500889,18.1097564697,-52.134147644,1.0,0.0,0.0,0.0,1.0,0.0,0.0,0.0,1.0,-1.54665427246,-0.100556469727,-9.08360109863,1.0,0.0,0.0,0.0,1.0,0.0,0.0,0.0,1.0
1463503080171966179,767,1463503080168214061,,3.66115832329,-1.19027650356,-61.9506835938,0.00999199971557,1.0,0.0,0.0,0.0,1.0,0.0,0.0,0.0,1.0,-1.40243899822,15.975610733,-50.0609779358,1.0,0.0,0.0,0.0,1.0,0.0,0.0,0.0,1.0,-1.47003981934,0.119710083008,-8.8154505127,1.0,0.0,0.0,0.0,1.0,0.0,0.0,0.0,1.0
1463503080182391924,768,1463503080178194859,,3.69544625282,-1.12513458729,-62.6010017395,0.0100020002574,1.0,0.0,0.0,0.0,1.0,0.0,0.0,0.0,1.0,-2.74390244484,15.4268302917,-47.0731697083,1.0,0.0,0.0,0.0,1.0,0.0,0.0,0.0,1.0,-1.69988317871,-0.387860668945,-8.42758925923,1.0,0.0,0.0,0.0,1.0,0.0,0.0,0.0,1.0
1463503080191230479,769,1463503080188176595,,3.66207122803,-1.05219316483,-63.2253036499,0.00999899953604,1.0,0.0,0.0,0.0,1.0,0.0,0.0,0.0,1.0,-5.85365867615,15.6097564697,-44.5731735229,1.0,0.0,0.0,0.0,1.0,0.0,0.0,0.0,1.0,-1.64721074219,0.148440512063,-8.85375773926,1.0,0.0,0.0,0.0,1.0,0.0,0.0,0.0,1.0
1463503080202339768,770,1463503080198185525,,3.63489890099,-1.0018581152,-63.8295822144,0.00999999977648,1.0,0.0,0.0,0.0,1.0,0.0,0.0,0.0,1.0,-6.34146356583,12.3780488968,-42.317073822,1.0,0.0,0.0,0.0,1.0,0.0,0.0,0.0,1.0,-1.55144267578,-0.0430956298828,-9.4570959731,1.0,0.0,0.0,0.0,1.0,0.0,0.0,0.0,1.0
1463503080211669687,771,1463503080208206958,,3.5827600956,-0.939524352551,-64.4373779297,0.00999999977648,1.0,0.0,0.0,0.0,1.0,0.0,0.0,0.0,1.0,-6.89024400711,11.2804880142,-42.6219520569,1.0,0.0,0.0,0.0,1.0,0.0,0.0,0.0,1.0,-1.14442839355,0.277727392578,-9.45230756977,1.0,0.0,0.0,0.0,1.0,0.0,0.0,0.0,1.0
1463503080221283734,772,1463503080218213023,,3.53767204285,-0.921398818493,-65.0498580933,0.0100189996883,1.0,0.0,0.0,0.0,1.0,0.0,0.0,0.0,1.0,-5.18292713165,6.64634132385,-42.682926178,1.0,0.0,0.0,0.0,1.0,0.0,0.0,0.0,1.0,-1.13485158691,0.46447512207,-9.82101520996,1.0,0.0,0.0,0.0,1.0,0.0,0.0,0.0,1.0
1463503080231678274,773,1463503080228202574,,3.52621984482,-0.941853225231,-65.6622467041,0.00997800007463,1.0,0.0,0.0,0.0,1.0,0.0,0.0,0.0,1.0,-2.43902444839,3.04878044128,-42.682926178,1.0,0.0,0.0,0.0,1.0,0.0,0.0,0.0,1.0,-1.13485158691,0.354341845703,-9.49061596538,1.0,0.0,0.0,0.0,1.0,0.0,0.0,0.0,1.0
1463503080241455275,774,1463503080238173318,,3.53101181984,-0.998475313187,-66.2809829712,0.0100029995665,1.0,0.0,0.0,0.0,1.0,0.0,0.0,0.0,1.0,-1.64634156227,1.40243899822,-43.0487823486,1.0,0.0,0.0,0.0,1.0,0.0,0.0,0.0,1.0,-1.49877023926,0.229843359375,-9.61032604839,1.0,0.0,0.0,0.0,1.0,0.0,0.0,0.0,1.0
1463503080251676650,775,1463503080248178758,,3.58079218864,-1.09175169468,-66.8937835693,0.0100029995665,1.0,0.0,0.0,0.0,1.0,0.0,0.0,0.0,1.0,-0.914634168148,-1.70731711388,-42.1951255798,1.0,0.0,0.0,0.0,1.0,0.0,0.0,0.0,1.0,-1.52750065918,-0.387860668945,-9.15542714844,1.0,0.0,0.0,0.0,1.0,0.0,0.0,0.0,1.0
1463503080261680944,776,1463503080258178467,,3.54678058624,-1.18755352497,-67.4864273071,0.00999800022691,1.0,0.0,0.0,0.0,1.0,0.0,0.0,0.0,1.0,-1.76829278469,-3.53658556938,-40.2439041138,1.0,0.0,0.0,0.0,1.0,0.0,0.0,0.0,1.0,-1.28329208984,0.861912597656,-9.28471345356,1.0,0.0,0.0,0.0,1.0,0.0,0.0,0.0,1.0
1463503080271287750,777,1463503080268186303,,3.55537652969,-1.31228256226,-68.0703201294,0.00999800022691,1.0,0.0,0.0,0.0,1.0,0.0,0.0,0.0,1.0,0.975609779358,-5.79268312454,-39.2073173523,1.0,0.0,0.0,0.0,1.0,0.0,0.0,0.0,1.0,-1.33596452637,0.603338854892,-8.91600698242,1.0,0.0,0.0,0.0,1.0,0.0,0.0,0.0,1.0
