%time,field.header.seq,field.header.stamp,field.header.frame_id,field.orientation.x,field.orientation.y,field.orientation.z,field.orientation.w,field.orientation_covariance0,field.orientation_covariance1,field.orientation_covariance2,field.orientation_covariance3,field.orientation_covariance4,field.orientation_covariance5,field.orientation_covariance6,field.orientation_covariance7,field.orientation_covariance8,field.angular_velocity.x,field.angular_velocity.y,field.angular_velocity.z,field.angular_velocity_covariance0,field.angular_velocity_covariance1,field.angular_velocity_covariance2,field.angular_velocity_covariance3,field.angular_velocity_covariance4,field.angular_velocity_covariance5,field.angular_velocity_covariance6,field.angular_velocity_covariance7,field.angular_velocity_covariance8,field.linear_acceleration.x,field.linear_acceleration.y,field.linear_acceleration.z,field.linear_acceleration_covariance0,field.linear_acceleration_covariance1,field.linear_acceleration_covariance2,field.linear_acceleration_covariance3,field.linear_acceleration_covariance4,field.linear_acceleration_covariance5,field.linear_acceleration_covariance6,field.linear_acceleration_covariance7,field.linear_acceleration_covariance8
1463662136985043596,538,1463662136919797762,,0.680892646313,1.08377325535,-147.810684204,0.0141110001132,1.0,0.0,0.0,0.0,1.0,0.0,0.0,0.0,1.0,1.70731711388,-1.03658533096,-0.304878056049,1.0,0.0,0.0,0.0,1.0,0.0,0.0,0.0,1.0,-0.407014282227,0.292092584273,-10.3764699951,1.0,0.0,0.0,0.0,1.0,0.0,0.0,0.0,1.0
1463662136985382866,539,1463662136926768397,,0.676612496376,1.08090913296,-147.765396118,0.00701300008222,1.0,0.0,0.0,0.0,1.0,0.0,0.0,0.0,1.0,1.8292683363,-0.853658556938,0.0609756112099,1.0,0.0,0.0,0.0,1.0,0.0,0.0,0.0,1.0,-0.335188232422,0.220266552734,-10.3812583984,1.0,0.0,0.0,0.0,1.0,0.0,0.0,0.0,1.0
1463662136985433030,540,1463662136936671870,,0.663764774799,1.07286882401,-147.706619263,0.00920599978417,1.0,0.0,0.0,0.0,1.0,0.0,0.0,0.0,1.0,1.58536589146,-1.03658533096,-0.0,1.0,0.0,0.0,0.0,1.0,0.0,0.0,0.0,1.0,-0.383072265625,0.316034619141,-10.2471831055,1.0,0.0,0.0,0.0,1.0,0.0,0.0,0.0,1.0
1463662136985498717,541,1463662136946115951,,0.649104952812,1.064447999,-147.639938354,0.0100619997829,1.0,0.0,0.0,0.0,1.0,0.0,0.0,0.0,1.0,1.70731711388,-0.914634168148,0.243902444839,1.0,0.0,0.0,0.0,1.0,0.0,0.0,0.0,1.0,-0.402225878906,0.354341845703,-10.3094323486,1.0,0.0,0.0,0.0,1.0,0.0,0.0,0.0,1.0
1463662136985535858,542,1463662136956180230,,0.640462994576,1.05689656734,-147.574691772,0.0101030003279,1.0,0.0,0.0,0.0,1.0,0.0,0.0,0.0,1.0,1.52439022064,-0.914634168148,0.0609756112099,1.0,0.0,0.0,0.0,1.0,0.0,0.0,0.0,1.0,-0.383072265625,0.210689746094,-10.180145459,1.0,0.0,0.0,0.0,1.0,0.0,0.0,0.0,1.0
1463662136985575655,543,1463662136966280452,,0.630658745766,1.04757380486,-147.509643555,0.0100809996948,1.0,0.0,0.0,0.0,1.0,0.0,0.0,0.0,1.0,1.70731711388,-0.853658556938,0.0609756112099,1.0,0.0,0.0,0.0,1.0,0.0,0.0,0.0,1.0,-0.430956298828,0.268150604204,-10.2615483154,1.0,0.0,0.0,0.0,1.0,0.0,0.0,0.0,1.0
1463662136985608733,544,1463662136976426515,,0.616422832012,1.0390380621,-147.445571899,0.0101349996403,1.0,0.0,0.0,0.0,1.0,0.0,0.0,0.0,1.0,1.8292683363,-0.670731723309,-0.0609756112099,1.0,0.0,0.0,0.0,1.0,0.0,0.0,0.0,1.0,-0.450109912109,0.368707055664,-10.2280294922,1.0,0.0,0.0,0.0,1.0,0.0,0.0,0.0,1.0
1463662136992334123,545,1463662136987508916,,0.60049456358,1.03131687641,-147.37953186,0.010764000006,1.0,0.0,0.0,0.0,1.0,0.0,0.0,0.0,1.0,1.95121955872,-0.487804889679,-0.243902444839,1.0,0.0,0.0,0.0,1.0,0.0,0.0,0.0,1.0,-0.469263525391,0.411802685547,-10.3716815918,1.0,0.0,0.0,0.0,1.0,0.0,0.0,0.0,1.0
1463662136999279286,546,1463662136996615186,,0.597146213055,1.02395606041,-147.323822021,0.00943399965763,1.0,0.0,0.0,0.0,1.0,0.0,0.0,0.0,1.0,2.19512200356,-0.792682945728,-0.487804889679,1.0,0.0,0.0,0.0,1.0,0.0,0.0,0.0,1.0,-0.421379492187,0.248996972656,-10.2423947021,1.0,0.0,0.0,0.0,1.0,0.0,0.0,0.0,1.0
1463662137011446330,547,1463662137006945599,,0.589173555374,1.01689684391,-147.261352539,0.0100840004161,1.0,0.0,0.0,0.0,1.0,0.0,0.0,0.0,1.0,2.5,-0.792682945728,-0.18292683363,1.0,0.0,0.0,0.0,1.0,0.0,0.0,0.0,1.0,-0.416591088867,0.392649072266,-10.4626612549,1.0,0.0,0.0,0.0,1.0,0.0,0.0,0.0,1.0
1463662137024414693,548,1463662137017211575,,0.583570301533,1.00875270367,-147.198623657,0.0101250000298,1.0,0.0,0.0,0.0,1.0,0.0,0.0,0.0,1.0,2.86585378647,-0.609756112099,-0.18292683363,1.0,0.0,0.0,0.0,1.0,0.0,0.0,0.0,1.0,-0.46447512207,0.411802685547,-10.3094323486,1.0,0.0,0.0,0.0,1.0,0.0,0.0,0.0,1.0
1463662137033546539,549,1463662137027310755,,0.584164559841,1.00365924835,-147.133468628,0.010098000057,1.0,0.0,0.0,0.0,1.0,0.0,0.0,0.0,1.0,2.92682933807,-0.670731723309,0.0609756112099,1.0,0.0,0.0,0.0,1.0,0.0,0.0,0.0,1.0,-0.397437475586,0.31124621582,-10.2567599121,1.0,0.0,0.0,0.0,1.0,0.0,0.0,0.0,1.0
1463662137044560858,550,1463662137037139894,,0.589630842209,0.996776819229,-147.065933228,0.0100840004161,1.0,0.0,0.0,0.0,1.0,0.0,0.0,0.0,1.0,3.29268312454,-0.731707334518,0.304878056049,1.0,0.0,0.0,0.0,1.0,0.0,0.0,0.0,1.0,-0.421379492187,0.292092584273,-10.314220752,1.0,0.0,0.0,0.0,1.0,0.0,0.0,0.0,1.0
1463662137049152436,551,1463662137047180107,,0.597735285759,0.993349850178,-147.000183105,0.010095000267,1.0,0.0,0.0,0.0,1.0,0.0,0.0,0.0,1.0,3.47560977936,-0.853658556938,0.12195122242,1.0,0.0,0.0,0.0,1.0,0.0,0.0,0.0,1.0,-0.339976635742,0.277727392578,-10.3764699951,1.0,0.0,0.0,0.0,1.0,0.0,0.0,0.0,1.0
1463662137059495455,552,1463662137057087175,,0.608191668987,0.986366033554,-146.932571411,0.0100889997557,1.0,0.0,0.0,0.0,1.0,0.0,0.0,0.0,1.0,3.59756112099,-0.792682945728,0.304878056049,1.0,0.0,0.0,0.0,1.0,0.0,0.0,0.0,1.0,-0.411802685547,0.253785375977,-10.2711251221,1.0,0.0,0.0,0.0,1.0,0.0,0.0,0.0,1.0
1463662137069740178,553,1463662137067536356,,0.617889940739,0.976796150208,-146.867279053,0.0101209999993,1.0,0.0,0.0,0.0,1.0,0.0,0.0,0.0,1.0,3.59756112099,-1.15853655338,0.0609756112099,1.0,0.0,0.0,0.0,1.0,0.0,0.0,0.0,1.0,-0.397437475586,0.268150604204,-10.3908352051,1.0,0.0,0.0,0.0,1.0,0.0,0.0,0.0,1.0
1463662137080155864,554,1463662137077507027,,0.626871407032,0.97477799654,-146.806503296,0.010095000267,1.0,0.0,0.0,0.0,1.0,0.0,0.0,0.0,1.0,3.84146332741,-0.914634168148,-0.365853667259,1.0,0.0,0.0,0.0,1.0,0.0,0.0,0.0,1.0,-0.3064578125,0.320823022461,-10.3477395752,1.0,0.0,0.0,0.0,1.0,0.0,0.0,0.0,1.0
1463662137090171959,555,1463662137087488324,,0.63837659359,0.967679321766,-146.744506836,0.0100849997252,1.0,0.0,0.0,0.0,1.0,0.0,0.0,0.0,1.0,3.84146332741,-0.914634168148,-0.243902444839,1.0,0.0,0.0,0.0,1.0,0.0,0.0,0.0,1.0,-0.397437475586,0.272938989258,-10.3190091553,1.0,0.0,0.0,0.0,1.0,0.0,0.0,0.0,1.0
1463662137100952752,556,1463662137097676008,,0.652693629265,0.960173249245,-146.685455322,0.0101150004193,1.0,0.0,0.0,0.0,1.0,0.0,0.0,0.0,1.0,4.2682929039,-0.975609779358,-0.548780500889,1.0,0.0,0.0,0.0,1.0,0.0,0.0,0.0,1.0,-0.387860668945,0.292092584273,-10.1274730225,1.0,0.0,0.0,0.0,1.0,0.0,0.0,0.0,1.0
1463662137110225714,557,1463662137107748673,,0.669501304626,0.950900018215,-146.625778198,0.010111999698,1.0,0.0,0.0,0.0,1.0,0.0,0.0,0.0,1.0,4.69512224197,-0.731707334518,-0.487804889679,1.0,0.0,0.0,0.0,1.0,0.0,0.0,0.0,1.0,-0.469263525391,0.325611425781,-10.2471831055,1.0,0.0,0.0,0.0,1.0,0.0,0.0,0.0,1.0
1463662137120192530,558,1463662137118024703,,0.689253211021,0.946541011333,-146.561843872,0.0100910002366,1.0,0.0,0.0,0.0,1.0,0.0,0.0,0.0,1.0,4.63414621353,-0.731707334518,-0.0609756112099,1.0,0.0,0.0,0.0,1.0,0.0,0.0,0.0,1.0,-0.387860668945,0.263362164351,-10.419565625,1.0,0.0,0.0,0.0,1.0,0.0,0.0,0.0,1.0
1463662137130923993,559,1463662137128273124,,0.706500291824,0.934954047203,-146.496383667,0.0101399999112,1.0,0.0,0.0,0.0,1.0,0.0,0.0,0.0,1.0,4.57317066193,-0.914634168148,0.0609756112099,1.0,0.0,0.0,0.0,1.0,0.0,0.0,0.0,1.0,-0.478840332031,0.292092584273,-10.2759135254,1.0,0.0,0.0,0.0,1.0,0.0,0.0,0.0,1.0
1463662137139888835,560,1463662137137935051,,0.730994880199,0.927242040634,-146.428573608,0.0100199999288,1.0,0.0,0.0,0.0,1.0,0.0,0.0,0.0,1.0,4.81707286835,-1.09756100178,0.365853667259,1.0,0.0,0.0,0.0,1.0,0.0,0.0,0.0,1.0,-0.383072265625,0.201112939453,-10.4004120117,1.0,0.0,0.0,0.0,1.0,0.0,0.0,0.0,1.0
1463662137151122822,561,1463662137148131746,,0.756436884403,0.913842797279,-146.363052368,0.0101389996707,1.0,0.0,0.0,0.0,1.0,0.0,0.0,0.0,1.0,5.0,-1.03658533096,0.0609756112099,1.0,0.0,0.0,0.0,1.0,0.0,0.0,0.0,1.0,-0.493205541992,0.215478149414,-10.3094323486,1.0,0.0,0.0,0.0,1.0,0.0,0.0,0.0,1.0
1463662137165006479,562,1463662137158195504,,0.780758440495,0.907983362675,-146.295349121,0.0100969998166,1.0,0.0,0.0,0.0,1.0,0.0,0.0,0.0,1.0,5.12195110321,-0.975609779358,0.304878056049,1.0,0.0,0.0,0.0,1.0,0.0,0.0,0.0,1.0,-0.373495458984,0.253785375977,-10.3956236084,1.0,0.0,0.0,0.0,1.0,0.0,0.0,0.0,1.0
1463662137170590082,563,1463662137168493308,,0.813398957253,0.896850407124,-146.230010986,0.010095000267,1.0,0.0,0.0,0.0,1.0,0.0,0.0,0.0,1.0,5.42682933807,-0.853658556938,0.0609756112099,1.0,0.0,0.0,0.0,1.0,0.0,0.0,0.0,1.0,-0.493205541992,0.15322890625,-10.4004120117,1.0,0.0,0.0,0.0,1.0,0.0,0.0,0.0,1.0
1463662137181411038,564,1463662137178345419,,0.841097652912,0.884986400604,-146.166229248,0.0101340003312,1.0,0.0,0.0,0.0,1.0,0.0,0.0,0.0,1.0,4.75609779358,-0.792682945728,-0.12195122242,1.0,0.0,0.0,0.0,1.0,0.0,0.0,0.0,1.0,-0.517147558594,0.114921679688,-10.3668931885,1.0,0.0,0.0,0.0,1.0,0.0,0.0,0.0,1.0
1463662137190718901,565,1463662137188476062,,0.865830004215,0.876886248589,-146.104766846,0.0100699998438,1.0,0.0,0.0,0.0,1.0,0.0,0.0,0.0,1.0,4.87804889679,-0.853658556938,-0.304878056049,1.0,0.0,0.0,0.0,1.0,0.0,0.0,0.0,1.0,-0.440533105469,0.181959326172,-10.3573163818,1.0,0.0,0.0,0.0,1.0,0.0,0.0,0.0,1.0
1463662137200915075,566,1463662137198635199,,0.890339970589,0.868947267532,-146.041885376,0.0101020000875,1.0,0.0,0.0,0.0,1.0,0.0,0.0,0.0,1.0,4.81707286835,-0.975609779358,-0.18292683363,1.0,0.0,0.0,0.0,1.0,0.0,0.0,0.0,1.0,-0.416591088867,0.172382519531,-10.3860468018,1.0,0.0,0.0,0.0,1.0,0.0,0.0,0.0,1.0
1463662137225611926,567,1463662137208578366,,0.911186397076,0.858536660671,-145.980163574,0.0101039996371,1.0,0.0,0.0,0.0,1.0,0.0,0.0,0.0,1.0,4.32926845551,-0.975609779358,-0.304878056049,1.0,0.0,0.0,0.0,1.0,0.0,0.0,0.0,1.0,-0.45968671875,0.143652099609,-10.314220752,1.0,0.0,0.0,0.0,1.0,0.0,0.0,0.0,1.0
1463662137225874778,568,1463662137218714219,,0.932170808315,0.848222851753,-145.917297363,0.0101020000875,1.0,0.0,0.0,0.0,1.0,0.0,0.0,0.0,1.0,4.57317066193,-1.15853655338,-0.18292683363,1.0,0.0,0.0,0.0,1.0,0.0,0.0,0.0,1.0,-0.426167895508,0.181959326172,-10.3237975586,1.0,0.0,0.0,0.0,1.0,0.0,0.0,0.0,1.0
1463662137924217650,569,1463662137229114903,,0.955192267895,0.842182517052,-145.856765747,0.0101159997284,1.0,0.0,0.0,0.0,1.0,0.0,0.0,0.0,1.0,4.69512224197,-0.975609779358,-0.426829278469,1.0,0.0,0.0,0.0,1.0,0.0,0.0,0.0,1.0,-0.383072265625,0.162805712891,-10.2902787354,1.0,0.0,0.0,0.0,1.0,0.0,0.0,0.0,1.0
1463662137924470865,570,1463662137239254974,,0.977317273617,0.830238759518,-145.792678833,0.0100790001452,1.0,0.0,0.0,0.0,1.0,0.0,0.0,0.0,1.0,4.39024400711,-0.975609779358,-0.0609756112099,1.0,0.0,0.0,0.0,1.0,0.0,0.0,0.0,1.0,-0.493205541992,0.119710083008,-10.3668931885,1.0,0.0,0.0,0.0,1.0,0.0,0.0,0.0,1.0
1463662137924748771,571,1463662137249330244,,0.99716180563,0.822063565254,-145.72593689,0.0101030003279,1.0,0.0,0.0,0.0,1.0,0.0,0.0,0.0,1.0,4.02439022064,-0.853658556938,0.18292683363,1.0,0.0,0.0,0.0,1.0,0.0,0.0,0.0,1.0,-0.445321508789,0.0909796630859,-10.314220752,1.0,0.0,0.0,0.0,1.0,0.0,0.0,0.0,1.0
1463662137925439084,572,1463662137259353892,,1.01867866516,0.817383110523,-145.659835815,0.0100969998166,1.0,0.0,0.0,0.0,1.0,0.0,0.0,0.0,1.0,4.2682929039,-0.792682945728,0.12195122242,1.0,0.0,0.0,0.0,1.0,0.0,0.0,0.0,1.0,-0.392649072266,0.100556469727,-10.2615483154,1.0,0.0,0.0,0.0,1.0,0.0,0.0,0.0,1.0
1463662137925771113,573,1463662137269426818,,1.03621602058,0.812907874584,-145.594955444,0.0100999996066,1.0,0.0,0.0,0.0,1.0,0.0,0.0,0.0,1.0,4.02439022064,-0.792682945728,-0.0,1.0,0.0,0.0,0.0,1.0,0.0,0.0,0.0,1.0,-0.392649072266,0.124498486328,-10.3381627686,1.0,0.0,0.0,0.0,1.0,0.0,0.0,0.0,1.0
1463662137926116009,574,1463662137280006071,,1.04757654667,0.802753448486,-145.531326294,0.010111999698,1.0,0.0,0.0,0.0,1.0,0.0,0.0,0.0,1.0,3.71951246262,-1.09756100178,-0.12195122242,1.0,0.0,0.0,0.0,1.0,0.0,0.0,0.0,1.0,-0.440533105469,0.177170922852,-10.3381627686,1.0,0.0,0.0,0.0,1.0,0.0,0.0,0.0,1.0
1463662137927393754,575,1463662137289513651,,1.0574003458,0.799527347088,-145.468078613,0.0101410001516,1.0,0.0,0.0,0.0,1.0,0.0,0.0,0.0,1.0,3.65853667259,-0.731707334518,-0.18292683363,1.0,0.0,0.0,0.0,1.0,0.0,0.0,0.0,1.0,-0.383072265625,0.191536132812,-10.3190091553,1.0,0.0,0.0,0.0,1.0,0.0,0.0,0.0,1.0
1463662137927821110,576,1463662137299554698,,1.07087314129,0.795532286167,-145.404083252,0.0100609995425,1.0,0.0,0.0,0.0,1.0,0.0,0.0,0.0,1.0,3.90243911743,-0.792682945728,-0.0609756112099,1.0,0.0,0.0,0.0,1.0,0.0,0.0,0.0,1.0,-0.387860668945,0.167594116211,-10.3621047852,1.0,0.0,0.0,0.0,1.0,0.0,0.0,0.0,1.0
1463662137928139439,577,1463662137309555998,,1.08505046368,0.790437698364,-145.337402344,0.0100940000266,1.0,0.0,0.0,0.0,1.0,0.0,0.0,0.0,1.0,3.71951246262,-0.914634168148,0.18292683363,1.0,0.0,0.0,0.0,1.0,0.0,0.0,0.0,1.0,-0.383072265625,0.119710083008,-10.314220752,1.0,0.0,0.0,0.0,1.0,0.0,0.0,0.0,1.0
1463662137928421305,578,1463662137319832289,,1.09271562099,0.787620723248,-145.271148682,0.0101269995794,1.0,0.0,0.0,0.0,1.0,0.0,0.0,0.0,1.0,3.47560977936,-0.914634168148,0.12195122242,1.0,0.0,0.0,0.0,1.0,0.0,0.0,0.0,1.0,-0.344765039063,0.191536132812,-10.3764699951,1.0,0.0,0.0,0.0,1.0,0.0,0.0,0.0,1.0
1463662137928699576,579,1463662137330085711,,1.10010993481,0.780501544476,-145.205841064,0.0100809996948,1.0,0.0,0.0,0.0,1.0,0.0,0.0,0.0,1.0,3.90243911743,-0.731707334518,0.0609756112099,1.0,0.0,0.0,0.0,1.0,0.0,0.0,0.0,1.0,-0.450109912109,0.268150604204,-10.2040874756,1.0,0.0,0.0,0.0,1.0,0.0,0.0,0.0,1.0
1463662137928997590,580,1463662137340838271,,1.12006449699,0.771969795227,-145.140899658,0.0102000003681,1.0,0.0,0.0,0.0,1.0,0.0,0.0,0.0,1.0,3.96341490746,-0.975609779358,-0.0609756112099,1.0,0.0,0.0,0.0,1.0,0.0,0.0,0.0,1.0,-0.435744702148,0.0574608398438,-10.3237975586,1.0,0.0,0.0,0.0,1.0,0.0,0.0,0.0,1.0
1463662137929255337,581,1463662137350511709,,1.13297176361,0.765735089779,-145.076538086,0.0100180003792,1.0,0.0,0.0,0.0,1.0,0.0,0.0,0.0,1.0,3.59756112099,-0.975609779358,-0.0,1.0,0.0,0.0,0.0,1.0,0.0,0.0,0.0,1.0,-0.402225878906,0.110133276367,-10.4435076416,1.0,0.0,0.0,0.0,1.0,0.0,0.0,0.0,1.0
1463662137929561112,582,1463662137360869991,,1.14321351051,0.757188200951,-145.009796143,0.010098000057,1.0,0.0,0.0,0.0,1.0,0.0,0.0,0.0,1.0,3.41463422775,-0.853658556938,0.18292683363,1.0,0.0,0.0,0.0,1.0,0.0,0.0,0.0,1.0,-0.46447512207,0.124498486328,-10.4004120117,1.0,0.0,0.0,0.0,1.0,0.0,0.0,0.0,1.0
1463662137929837716,583,1463662137370963910,,1.15154922009,0.757794380188,-144.944168091,0.010106000118,1.0,0.0,0.0,0.0,1.0,0.0,0.0,0.0,1.0,3.10975623131,-0.731707334518,0.0609756112099,1.0,0.0,0.0,0.0,1.0,0.0,0.0,0.0,1.0,-0.320823022461,0.100556469727,-10.3621047852,1.0,0.0,0.0,0.0,1.0,0.0,0.0,0.0,1.0
1463662137930104996,584,1463662137381938430,,1.16276717186,0.753611624241,-144.878204346,0.0101520000026,1.0,0.0,0.0,0.0,1.0,0.0,0.0,0.0,1.0,2.74390244484,-0.975609779358,0.0609756112099,1.0,0.0,0.0,0.0,1.0,0.0,0.0,0.0,1.0,-0.363918652344,-0.0191536132812,-10.4099888184,1.0,0.0,0.0,0.0,1.0,0.0,0.0,0.0,1.0
1463662137930467864,585,1463662137390851234,,1.16938436031,0.751966834068,-144.814926147,0.0100339995697,1.0,0.0,0.0,0.0,1.0,0.0,0.0,0.0,1.0,3.04878044128,-0.792682945728,-0.12195122242,1.0,0.0,0.0,0.0,1.0,0.0,0.0,0.0,1.0,-0.349553442383,0.114921679688,-10.299855542,1.0,0.0,0.0,0.0,1.0,0.0,0.0,0.0,1.0
1463662137930814426,586,1463662137400939214,,1.17495667934,0.750948905945,-144.753936768,0.0101549997926,1.0,0.0,0.0,0.0,1.0,0.0,0.0,0.0,1.0,2.86585378647,-0.670731723309,-0.426829278469,1.0,0.0,0.0,0.0,1.0,0.0,0.0,0.0,1.0,-0.363918652344,0.100556469727,-10.3716815918,1.0,0.0,0.0,0.0,1.0,0.0,0.0,0.0,1.0
1463662137931146872,587,1463662137410601089,,1.17776048183,0.744056642056,-144.690139771,0.0100269997492,1.0,0.0,0.0,0.0,1.0,0.0,0.0,0.0,1.0,2.68292689323,-1.09756100178,-0.0609756112099,1.0,0.0,0.0,0.0,1.0,0.0,0.0,0.0,1.0,-0.387860668945,0.114921679688,-10.2567599121,1.0,0.0,0.0,0.0,1.0,0.0,0.0,0.0,1.0
1463662137931485048,588,1463662137421579672,,1.17510008812,0.737324416637,-144.626876831,0.0101330000907,1.0,0.0,0.0,0.0,1.0,0.0,0.0,0.0,1.0,2.56097555161,-0.731707334518,-0.18292683363,1.0,0.0,0.0,0.0,1.0,0.0,0.0,0.0,1.0,-0.45489831543,0.191536132812,-10.3285859619,1.0,0.0,0.0,0.0,1.0,0.0,0.0,0.0,1.0
1463662137931777436,589,1463662137431675414,,1.17614161968,0.735655426979,-144.563812256,0.0100990002975,1.0,0.0,0.0,0.0,1.0,0.0,0.0,0.0,1.0,2.74390244484,-0.731707334518,-0.18292683363,1.0,0.0,0.0,0.0,1.0,0.0,0.0,0.0,1.0,-0.363918652344,0.15801730957,-10.299855542,1.0,0.0,0.0,0.0,1.0,0.0,0.0,0.0,1.0
1463662137932073262,590,1463662137441274154,,1.17993879318,0.726346552372,-144.499572754,0.0100870002061,1.0,0.0,0.0,0.0,1.0,0.0,0.0,0.0,1.0,2.80487799644,-0.914634168148,-0.0609756112099,1.0,0.0,0.0,0.0,1.0,0.0,0.0,0.0,1.0,-0.469263525391,0.119710083008,-10.3190091553,1.0,0.0,0.0,0.0,1.0,0.0,0.0,0.0,1.0
1463662137932349554,591,1463662137451400109,,1.18423748016,0.722733199596,-144.436767578,0.0101439999416,1.0,0.0,0.0,0.0,1.0,0.0,0.0,0.0,1.0,2.68292689323,-0.609756112099,-0.243902444839,1.0,0.0,0.0,0.0,1.0,0.0,0.0,0.0,1.0,-0.416591088867,0.0861912597656,-10.1418382324,1.0,0.0,0.0,0.0,1.0,0.0,0.0,0.0,1.0
1463662137932634024,592,1463662137461281079,,1.18155276775,0.713354945183,-144.370254517,0.0100619997829,1.0,0.0,0.0,0.0,1.0,0.0,0.0,0.0,1.0,2.43902444839,-0.853658556938,0.18292683363,1.0,0.0,0.0,0.0,1.0,0.0,0.0,0.0,1.0,-0.478840332031,0.167594116211,-10.2184526855,1.0,0.0,0.0,0.0,1.0,0.0,0.0,0.0,1.0
1463662137932932767,593,1463662137472672277,,1.18314468861,0.702594399452,-144.303787231,0.0103380000219,1.0,0.0,0.0,0.0,1.0,0.0,0.0,0.0,1.0,2.74390244484,-0.853658556938,-0.0,1.0,0.0,0.0,0.0,1.0,0.0,0.0,0.0,1.0,-0.507570751953,0.148440512063,-10.3573163818,1.0,0.0,0.0,0.0,1.0,0.0,0.0,0.0,1.0
1463662137933229270,594,1463662137481729269,,1.18694531918,0.691850304604,-144.240966797,0.00986600015312,1.0,0.0,0.0,0.0,1.0,0.0,0.0,0.0,1.0,2.56097555161,-1.03658533096,-0.0609756112099,1.0,0.0,0.0,0.0,1.0,0.0,0.0,0.0,1.0,-0.483628735352,0.0718260498047,-10.3285859619,1.0,0.0,0.0,0.0,1.0,0.0,0.0,0.0,1.0
1463662137933509156,595,1463662137492462659,,1.19044804573,0.689101815224,-144.180358887,0.010098000057,1.0,0.0,0.0,0.0,1.0,0.0,0.0,0.0,1.0,2.74390244484,-0.914634168148,-0.426829278469,1.0,0.0,0.0,0.0,1.0,0.0,0.0,0.0,1.0,-0.359130249023,0.110133276367,-10.3046439453,1.0,0.0,0.0,0.0,1.0,0.0,0.0,0.0,1.0
1463662137933783833,596,1463662137501626594,,1.19004964828,0.68370038271,-144.119552612,0.0101340003312,1.0,0.0,0.0,0.0,1.0,0.0,0.0,0.0,1.0,2.98780488968,-0.609756112099,-0.426829278469,1.0,0.0,0.0,0.0,1.0,0.0,0.0,0.0,1.0,-0.46447512207,0.225054956055,-10.3429511719,1.0,0.0,0.0,0.0,1.0,0.0,0.0,0.0,1.0
1463662137934050071,597,1463662137512816668,,1.19273889065,0.678917586803,-144.055709839,0.0101229995489,1.0,0.0,0.0,0.0,1.0,0.0,0.0,0.0,1.0,3.17073178291,-0.731707334518,-0.12195122242,1.0,0.0,0.0,0.0,1.0,0.0,0.0,0.0,1.0,-0.426167895508,0.201112939453,-10.2280294922,1.0,0.0,0.0,0.0,1.0,0.0,0.0,0.0,1.0
1463662137934308704,598,1463662137522199021,,1.19273722172,0.678047299385,-143.991348267,0.0102129997686,1.0,0.0,0.0,0.0,1.0,0.0,0.0,0.0,1.0,3.41463422775,-0.670731723309,-0.12195122242,1.0,0.0,0.0,0.0,1.0,0.0,0.0,0.0,1.0,-0.373495458984,0.296881024126,-10.3812583984,1.0,0.0,0.0,0.0,1.0,0.0,0.0,0.0,1.0
1463662137934588381,599,1463662137533090508,,1.19753730297,0.676783084869,-143.924377441,0.0100419996306,1.0,0.0,0.0,0.0,1.0,0.0,0.0,0.0,1.0,3.47560977936,-0.853658556938,0.243902444839,1.0,0.0,0.0,0.0,1.0,0.0,0.0,0.0,1.0,-0.344765039063,0.220266552734,-10.3429511719,1.0,0.0,0.0,0.0,1.0,0.0,0.0,0.0,1.0
1463662137934920827,600,1463662137542527714,,1.20568859577,0.673366963863,-143.860183716,0.00998600013554,1.0,0.0,0.0,0.0,1.0,0.0,0.0,0.0,1.0,3.59756112099,-0.792682945728,-0.0,1.0,0.0,0.0,0.0,1.0,0.0,0.0,0.0,1.0,-0.402225878906,0.181959326172,-10.4961800781,1.0,0.0,0.0,0.0,1.0,0.0,0.0,0.0,1.0
1463662137935261764,601,1463662137552751756,,1.21390748024,0.669780552387,-143.794464111,0.0101220002398,1.0,0.0,0.0,0.0,1.0,0.0,0.0,0.0,1.0,3.71951246262,-0.670731723309,0.0609756112099,1.0,0.0,0.0,0.0,1.0,0.0,0.0,0.0,1.0,-0.421379492187,0.201112939453,-10.3477395752,1.0,0.0,0.0,0.0,1.0,0.0,0.0,0.0,1.0
1463662137935568164,602,1463662137563237401,,1.23476791382,0.65910166502,-143.728881836,0.0100969998166,1.0,0.0,0.0,0.0,1.0,0.0,0.0,0.0,1.0,4.14634132385,-1.03658533096,0.0609756112099,1.0,0.0,0.0,0.0,1.0,0.0,0.0,0.0,1.0,-0.478840332031,0.0478840332031,-10.2471831055,1.0,0.0,0.0,0.0,1.0,0.0,0.0,0.0,1.0
1463662137935849405,603,1463662137572326324,,1.25043094158,0.650103092194,-143.667007446,0.0100919995457,1.0,0.0,0.0,0.0,1.0,0.0,0.0,0.0,1.0,3.84146332741,-0.792682945728,-0.304878056049,1.0,0.0,0.0,0.0,1.0,0.0,0.0,0.0,1.0,-0.497993945312,0.0814028564453,-10.2902787354,1.0,0.0,0.0,0.0,1.0,0.0,0.0,0.0,1.0
1463662137936151013,604,1463662137582791966,,1.26920366287,0.646427750587,-143.604476929,0.0100929997861,1.0,0.0,0.0,0.0,1.0,0.0,0.0,0.0,1.0,3.90243911743,-0.792682945728,-0.243902444839,1.0,0.0,0.0,0.0,1.0,0.0,0.0,0.0,1.0,-0.402225878906,0.0335188255255,-10.2711251221,1.0,0.0,0.0,0.0,1.0,0.0,0.0,0.0,1.0
1463662137936424023,605,1463662137593618495,,1.28067111969,0.636691331863,-143.541091919,0.0101349996403,1.0,0.0,0.0,0.0,1.0,0.0,0.0,0.0,1.0,3.71951246262,-0.731707334518,-0.18292683363,1.0,0.0,0.0,0.0,1.0,0.0,0.0,0.0,1.0,-0.521935925381,0.129286889648,-10.2711251221,1.0,0.0,0.0,0.0,1.0,0.0,0.0,0.0,1.0
1463662137936701148,606,1463662137602524891,,1.29533815384,0.627949357033,-143.476211548,0.0100760003552,1.0,0.0,0.0,0.0,1.0,0.0,0.0,0.0,1.0,3.84146332741,-0.731707334518,-0.0,1.0,0.0,0.0,0.0,1.0,0.0,0.0,0.0,1.0,-0.507570751953,0.0909796630859,-10.3094323486,1.0,0.0,0.0,0.0,1.0,0.0,0.0,0.0,1.0
1463662137937655771,607,1463662137614373919,,1.3080997467,0.622869491577,-143.413482666,0.0102260001004,1.0,0.0,0.0,0.0,1.0,0.0,0.0,0.0,1.0,3.7804877758,-0.731707334518,-0.304878056049,1.0,0.0,0.0,0.0,1.0,0.0,0.0,0.0,1.0,-0.445321508789,0.114921679688,-10.3764699951,1.0,0.0,0.0,0.0,1.0,0.0,0.0,0.0,1.0
1463662137938102974,608,1463662137623487429,,1.32696270943,0.615593314171,-143.353393555,0.00999400019646,1.0,0.0,0.0,0.0,1.0,0.0,0.0,0.0,1.0,3.96341490746,-0.853658556938,-0.426829278469,1.0,0.0,0.0,0.0,1.0,0.0,0.0,0.0,1.0,-0.469263525391,0.0287304199219,-10.4387192383,1.0,0.0,0.0,0.0,1.0,0.0,0.0,0.0,1.0
1463662137938492616,609,1463662137634157008,,1.33526444435,0.614517390728,-143.285949707,0.0100940000266,1.0,0.0,0.0,0.0,1.0,0.0,0.0,0.0,1.0,3.59756112099,-0.792682945728,0.243902444839,1.0,0.0,0.0,0.0,1.0,0.0,0.0,0.0,1.0,-0.359130249023,0.15322890625,-10.2950671387,1.0,0.0,0.0,0.0,1.0,0.0,0.0,0.0,1.0
1463662137938848764,610,1463662137644102675,,1.34710752964,0.609679937363,-143.220581055,0.0105490004644,1.0,0.0,0.0,0.0,1.0,0.0,0.0,0.0,1.0,3.7804877758,-0.731707334518,-0.243902444839,1.0,0.0,0.0,0.0,1.0,0.0,0.0,0.0,1.0,-0.435744702148,0.129286889648,-10.2807019287,1.0,0.0,0.0,0.0,1.0,0.0,0.0,0.0,1.0
1463662137939171364,611,1463662137654535760,,1.35986328125,0.608840405941,-143.161148071,0.00969200022519,1.0,0.0,0.0,0.0,1.0,0.0,0.0,0.0,1.0,4.14634132385,-0.731707334518,-0.304878056049,1.0,0.0,0.0,0.0,1.0,0.0,0.0,0.0,1.0,-0.368707055664,0.15801730957,-10.2711251221,1.0,0.0,0.0,0.0,1.0,0.0,0.0,0.0,1.0
1463662137939529595,612,1463662137664031412,,1.37138319016,0.605878710747,-143.100631714,0.0100760003552,1.0,0.0,0.0,0.0,1.0,0.0,0.0,0.0,1.0,4.08536577225,-0.853658556938,-0.426829278469,1.0,0.0,0.0,0.0,1.0,0.0,0.0,0.0,1.0,-0.387860668945,0.177170922852,-10.3573163818,1.0,0.0,0.0,0.0,1.0,0.0,0.0,0.0,1.0
1463662137939856728,613,1463662137674961759,,1.3879160881,0.606038749218,-143.034896851,0.0101079996675,1.0,0.0,0.0,0.0,1.0,0.0,0.0,0.0,1.0,4.08536577225,-0.853658556938,0.0609756112099,1.0,0.0,0.0,0.0,1.0,0.0,0.0,0.0,1.0,-0.330399829102,0.0861912597656,-10.3956236084,1.0,0.0,0.0,0.0,1.0,0.0,0.0,0.0,1.0
1463662137940157607,614,1463662137684141633,,1.40626049042,0.604642748833,-142.969726562,0.0101079996675,1.0,0.0,0.0,0.0,1.0,0.0,0.0,0.0,1.0,4.20731735229,-0.670731723309,-0.0,1.0,0.0,0.0,0.0,1.0,0.0,0.0,0.0,1.0,-0.387860668945,0.0718260498047,-10.2807019287,1.0,0.0,0.0,0.0,1.0,0.0,0.0,0.0,1.0
1463662137940515578,615,1463662137693598425,,1.42537784576,0.601338803768,-142.90473938,0.0100830001757,1.0,0.0,0.0,0.0,1.0,0.0,0.0,0.0,1.0,3.96341490746,-0.914634168148,-0.0,1.0,0.0,0.0,0.0,1.0,0.0,0.0,0.0,1.0,-0.383072265625,0.00957680664062,-10.4243540283,1.0,0.0,0.0,0.0,1.0,0.0,0.0,0.0,1.0
1463662137940864016,616,1463662137703853097,,1.44017481804,0.598215997219,-142.842132568,0.010106000118,1.0,0.0,0.0,0.0,1.0,0.0,0.0,0.0,1.0,4.08536577225,-0.914634168148,-0.243902444839,1.0,0.0,0.0,0.0,1.0,0.0,0.0,0.0,1.0,-0.373495458984,0.105344873047,-10.2136642822,1.0,0.0,0.0,0.0,1.0,0.0,0.0,0.0,1.0
1463662137941171666,617,1463662137713954153,,1.46180963516,0.594800531864,-142.779037476,0.0100870002061,1.0,0.0,0.0,0.0,1.0,0.0,0.0,0.0,1.0,4.51219558716,-1.09756100178,-0.18292683363,1.0,0.0,0.0,0.0,1.0,0.0,0.0,0.0,1.0,-0.349553442383,0.0574608398438,-10.3285859619,1.0,0.0,0.0,0.0,1.0,0.0,0.0,0.0,1.0
1463662137941456032,618,1463662137724545074,,1.48098540306,0.591559648514,-142.718826294,0.0101140001789,1.0,0.0,0.0,0.0,1.0,0.0,0.0,0.0,1.0,4.20731735229,-0.975609779358,-0.487804889679,1.0,0.0,0.0,0.0,1.0,0.0,0.0,0.0,1.0,-0.373495458984,0.0430956298828,-10.4243540283,1.0,0.0,0.0,0.0,1.0,0.0,0.0,0.0,1.0
1463662137941736335,619,1463662137734194811,,1.49731743336,0.586372554302,-142.657608032,0.0100710000843,1.0,0.0,0.0,0.0,1.0,0.0,0.0,0.0,1.0,4.45121955872,-0.731707334518,-0.365853667259,1.0,0.0,0.0,0.0,1.0,0.0,0.0,0.0,1.0,-0.450109912109,0.134075302102,-10.3333743652,1.0,0.0,0.0,0.0,1.0,0.0,0.0,0.0,1.0
1463662137942021065,620,1463662137744237420,,1.51998746395,0.580848753452,-142.589569092,0.0101579995826,1.0,0.0,0.0,0.0,1.0,0.0,0.0,0.0,1.0,4.57317066193,-0.670731723309,0.243902444839,1.0,0.0,0.0,0.0,1.0,0.0,0.0,0.0,1.0,-0.46447512207,0.0430956298828,-10.3429511719,1.0,0.0,0.0,0.0,1.0,0.0,0.0,0.0,1.0
1463662137942311057,621,1463662137754338527,,1.54119098186,0.578011572361,-142.520645142,0.0101819997653,1.0,0.0,0.0,0.0,1.0,0.0,0.0,0.0,1.0,4.02439022064,-0.487804889679,0.304878056049,1.0,0.0,0.0,0.0,1.0,0.0,0.0,0.0,1.0,-0.445321508789,-0.0335188255255,-10.2423947021,1.0,0.0,0.0,0.0,1.0,0.0,0.0,0.0,1.0
1463662137942597610,622,1463662137764535483,,1.56244790554,0.570347726345,-142.455093384,0.00996099971235,1.0,0.0,0.0,0.0,1.0,0.0,0.0,0.0,1.0,3.65853667259,-0.914634168148,0.12195122242,1.0,0.0,0.0,0.0,1.0,0.0,0.0,0.0,1.0,-0.46447512207,-0.114921679688,-10.3908352051,1.0,0.0,0.0,0.0,1.0,0.0,0.0,0.0,1.0
1463662137942858535,623,1463662137774444686,,1.57878530025,0.56571996212,-142.387069702,0.0101349996403,1.0,0.0,0.0,0.0,1.0,0.0,0.0,0.0,1.0,3.04878044128,-0.670731723309,0.243902444839,1.0,0.0,0.0,0.0,1.0,0.0,0.0,0.0,1.0,-0.450109912109,-0.134075302102,-10.3429511719,1.0,0.0,0.0,0.0,1.0,0.0,0.0,0.0,1.0
1463662137943145870,624,1463662137784644194,,1.59071600437,0.560678124428,-142.31993103,0.0101049998775,1.0,0.0,0.0,0.0,1.0,0.0,0.0,0.0,1.0,2.56097555161,-0.914634168148,0.18292683363,1.0,0.0,0.0,0.0,1.0,0.0,0.0,0.0,1.0,-0.416591088867,-0.148440512063,-10.405200415,1.0,0.0,0.0,0.0,1.0,0.0,0.0,0.0,1.0
1463662137943414609,625,1463662137794498389,,1.59546029568,0.554535210133,-142.256881714,0.0100630000234,1.0,0.0,0.0,0.0,1.0,0.0,0.0,0.0,1.0,2.43902444839,-1.09756100178,-0.18292683363,1.0,0.0,0.0,0.0,1.0,0.0,0.0,0.0,1.0,-0.402225878906,-0.0430956298828,-10.3046439453,1.0,0.0,0.0,0.0,1.0,0.0,0.0,0.0,1.0
1463662137943698610,626,1463662137804996223,,1.59682667255,0.548257529736,-142.193313599,0.0103399995714,1.0,0.0,0.0,0.0,1.0,0.0,0.0,0.0,1.0,2.31707310677,-0.853658556938,-0.304878056049,1.0,0.0,0.0,0.0,1.0,0.0,0.0,0.0,1.0,-0.45489831543,-0.00478840332031,-10.4722380615,1.0,0.0,0.0,0.0,1.0,0.0,0.0,0.0,1.0
1463662137943979329,627,1463662137815272826,,1.59866690636,0.544740021229,-142.131103516,0.0100149996579,1.0,0.0,0.0,0.0,1.0,0.0,0.0,0.0,1.0,2.31707310677,-0.853658556938,-0.243902444839,1.0,0.0,0.0,0.0,1.0,0.0,0.0,0.0,1.0,-0.402225878906,-0.0143652099609,-10.314220752,1.0,0.0,0.0,0.0,1.0,0.0,0.0,0.0,1.0
1463662137944265779,628,1463662137824822027,,1.60283505917,0.541765749454,-142.066680908,0.00995600037277,1.0,0.0,0.0,0.0,1.0,0.0,0.0,0.0,1.0,2.07317066193,-0.487804889679,-0.0,1.0,0.0,0.0,0.0,1.0,0.0,0.0,0.0,1.0,-0.45489831543,-0.100556469727,-10.2280294922,1.0,0.0,0.0,0.0,1.0,0.0,0.0,0.0,1.0
1463662137944550301,629,1463662137835022525,,1.60080504417,0.536133825779,-141.999389648,0.0101349996403,1.0,0.0,0.0,0.0,1.0,0.0,0.0,0.0,1.0,1.64634156227,-0.975609779358,0.18292683363,1.0,0.0,0.0,0.0,1.0,0.0,0.0,0.0,1.0,-0.416591088867,-0.067037651051,-10.3237975586,1.0,0.0,0.0,0.0,1.0,0.0,0.0,0.0,1.0
1463662137944830343,630,1463662137845241462,,1.59329915047,0.534184157848,-141.929412842,0.0100710000843,1.0,0.0,0.0,0.0,1.0,0.0,0.0,0.0,1.0,1.2804877758,-0.792682945728,0.487804889679,1.0,0.0,0.0,0.0,1.0,0.0,0.0,0.0,1.0,-0.383072265625,-0.0335188255255,-10.314220752,1.0,0.0,0.0,0.0,1.0,0.0,0.0,0.0,1.0
1463662137945120179,631,1463662137855499520,,1.59083259106,0.53169220686,-141.859634399,0.0103959999979,1.0,0.0,0.0,0.0,1.0,0.0,0.0,0.0,1.0,1.46341466904,-0.670731723309,0.243902444839,1.0,0.0,0.0,0.0,1.0,0.0,0.0,0.0,1.0,-0.411802685547,-0.0909796630859,-10.2232410889,1.0,0.0,0.0,0.0,1.0,0.0,0.0,0.0,1.0
1463662137945399127,632,1463662137865872804,,1.58385503292,0.527536392212,-141.793334961,0.010150000453,1.0,0.0,0.0,0.0,1.0,0.0,0.0,0.0,1.0,0.914634168148,-0.487804889679,0.0609756112099,1.0,0.0,0.0,0.0,1.0,0.0,0.0,0.0,1.0,-0.483628735352,-0.110133276367,-10.3668931885,1.0,0.0,0.0,0.0,1.0,0.0,0.0,0.0,1.0
1463662137945708392,633,1463662137876236816,,1.57478153706,0.523672223091,-141.729309082,0.0098019996658,1.0,0.0,0.0,0.0,1.0,0.0,0.0,0.0,1.0,0.365853667259,-0.609756112099,0.0609756112099,1.0,0.0,0.0,0.0,1.0,0.0,0.0,0.0,1.0,-0.46447512207,-0.167594116211,-10.4818148682,1.0,0.0,0.0,0.0,1.0,0.0,0.0,0.0,1.0
1463662137946037192,634,1463662137886448253,,1.55171775818,0.519661664963,-141.663848877,0.0101279998198,1.0,0.0,0.0,0.0,1.0,0.0,0.0,0.0,1.0,-0.609756112099,-0.731707334518,-0.0,1.0,0.0,0.0,0.0,1.0,0.0,0.0,0.0,1.0,-0.440533105469,-0.0957680664062,-10.4099888184,1.0,0.0,0.0,0.0,1.0,0.0,0.0,0.0,1.0
1463662137946372555,635,1463662137896382981,,1.5267496109,0.515867590904,-141.595291138,0.010045000352,1.0,0.0,0.0,0.0,1.0,0.0,0.0,0.0,1.0,-0.975609779358,-0.914634168148,0.365853667259,1.0,0.0,0.0,0.0,1.0,0.0,0.0,0.0,1.0,-0.402225878906,-0.119710083008,-10.3908352051,1.0,0.0,0.0,0.0,1.0,0.0,0.0,0.0,1.0
1463662137946730838,636,1463662137905686572,,1.49844431877,0.511819124222,-141.527679443,0.0100710000843,1.0,0.0,0.0,0.0,1.0,0.0,0.0,0.0,1.0,-1.46341466904,-0.609756112099,0.243902444839,1.0,0.0,0.0,0.0,1.0,0.0,0.0,0.0,1.0,-0.45968671875,-0.143652099609,-10.2807019287,1.0,0.0,0.0,0.0,1.0,0.0,0.0,0.0,1.0
1463662138461974989,637,1463662137915615518,,1.46022236347,0.509193360806,-141.463012695,0.0101030003279,1.0,0.0,0.0,0.0,1.0,0.0,0.0,0.0,1.0,-1.8292683363,-0.548780500889,-0.0609756112099,1.0,0.0,0.0,0.0,1.0,0.0,0.0,0.0,1.0,-0.445321508789,-0.0287304199219,-10.2232410889,1.0,0.0,0.0,0.0,1.0,0.0,0.0,0.0,1.0
1463662138462279253,638,1463662137925978540,,1.42258620262,0.505744814873,-141.395843506,0.0101169999689,1.0,0.0,0.0,0.0,1.0,0.0,0.0,0.0,1.0,-1.64634156227,-0.670731723309,0.18292683363,1.0,0.0,0.0,0.0,1.0,0.0,0.0,0.0,1.0,-0.445321508789,0.0,-10.3956236084,1.0,0.0,0.0,0.0,1.0,0.0,0.0,0.0,1.0
1463662138463343789,639,1463662137936487782,,1.38125503063,0.500554382801,-141.326965332,0.0101020000875,1.0,0.0,0.0,0.0,1.0,0.0,0.0,0.0,1.0,-1.95121955872,-0.853658556938,0.365853667259,1.0,0.0,0.0,0.0,1.0,0.0,0.0,0.0,1.0,-0.440533105469,0.0191536132812,-10.3094323486,1.0,0.0,0.0,0.0,1.0,0.0,0.0,0.0,1.0
1463662138463659305,640,1463662137946556854,,1.33470582962,0.498064726591,-141.259963989,0.0100999996066,1.0,0.0,0.0,0.0,1.0,0.0,0.0,0.0,1.0,-2.19512200356,-0.670731723309,0.18292683363,1.0,0.0,0.0,0.0,1.0,0.0,0.0,0.0,1.0,-0.430956298828,0.076614453125,-10.3860468018,1.0,0.0,0.0,0.0,1.0,0.0,0.0,0.0,1.0
1463662138473276798,641,1463662137956997387,,1.28142416477,0.501137554646,-141.192352295,0.0101030003279,1.0,0.0,0.0,0.0,1.0,0.0,0.0,0.0,1.0,-2.31707310677,-0.487804889679,0.243902444839,1.0,0.0,0.0,0.0,1.0,0.0,0.0,0.0,1.0,-0.359130249023,0.181959326172,-10.2232410889,1.0,0.0,0.0,0.0,1.0,0.0,0.0,0.0,1.0
1463662138473627945,642,1463662137966898881,,1.22641682625,0.493256211281,-141.126144409,0.010095000267,1.0,0.0,0.0,0.0,1.0,0.0,0.0,0.0,1.0,-2.01219511032,-0.670731723309,0.12195122242,1.0,0.0,0.0,0.0,1.0,0.0,0.0,0.0,1.0,-0.531512805087,0.282515795898,-10.3812583984,1.0,0.0,0.0,0.0,1.0,0.0,0.0,0.0,1.0
1463662138473916113,643,1463662137977430418,,1.17520487309,0.484916895628,-141.060623169,0.0102880001068,1.0,0.0,0.0,0.0,1.0,0.0,0.0,0.0,1.0,-1.58536589146,-0.914634168148,-0.0609756112099,1.0,0.0,0.0,0.0,1.0,0.0,0.0,0.0,1.0,-0.493205541992,0.282515795898,-10.3333743652,1.0,0.0,0.0,0.0,1.0,0.0,0.0,0.0,1.0
1463662138474180216,644,1463662137987841000,,1.12473428249,0.484734803438,-140.997512817,0.0099189998582,1.0,0.0,0.0,0.0,1.0,0.0,0.0,0.0,1.0,-0.914634168148,-0.670731723309,-0.0609756112099,1.0,0.0,0.0,0.0,1.0,0.0,0.0,0.0,1.0,-0.392649072266,0.430956298828,-10.2519715088,1.0,0.0,0.0,0.0,1.0,0.0,0.0,0.0,1.0
1463662138474474322,645,1463662137997176314,,1.08365416527,0.488854050636,-140.933822632,0.010106000118,1.0,0.0,0.0,0.0,1.0,0.0,0.0,0.0,1.0,-0.0609756112099,-0.731707334518,-0.12195122242,1.0,0.0,0.0,0.0,1.0,0.0,0.0,0.0,1.0,-0.31124621582,0.416591088867,-10.4482960449,1.0,0.0,0.0,0.0,1.0,0.0,0.0,0.0,1.0
1463662138474781973,646,1463662138007280808,,1.04854059219,0.491014957428,-140.869522095,0.0100959995762,1.0,0.0,0.0,0.0,1.0,0.0,0.0,0.0,1.0,0.487804889679,-0.243902444839,-0.0609756112099,1.0,0.0,0.0,0.0,1.0,0.0,0.0,0.0,1.0,-0.430956298828,0.411802685547,-10.3046439453,1.0,0.0,0.0,0.0,1.0,0.0,0.0,0.0,1.0
1463662138475089051,647,1463662138017372435,,1.02835547924,0.487313181162,-140.80279541,0.0100959995762,1.0,0.0,0.0,0.0,1.0,0.0,0.0,0.0,1.0,1.15853655338,-0.914634168148,0.18292683363,1.0,0.0,0.0,0.0,1.0,0.0,0.0,0.0,1.0,-0.416591088867,0.272938989258,-10.3764699951,1.0,0.0,0.0,0.0,1.0,0.0,0.0,0.0,1.0
1463662138475427852,648,1463662138027979504,,1.01135849953,0.488533556461,-140.734893799,0.0101760001853,1.0,0.0,0.0,0.0,1.0,0.0,0.0,0.0,1.0,1.8902438879,-0.426829278469,0.243902444839,1.0,0.0,0.0,0.0,1.0,0.0,0.0,0.0,1.0,-0.416591088867,0.349553442383,-10.3477395752,1.0,0.0,0.0,0.0,1.0,0.0,0.0,0.0,1.0
1463662138475714770,649,1463662138037714567,,1.00459289551,0.486172497272,-140.66835022,0.0100680002943,1.0,0.0,0.0,0.0,1.0,0.0,0.0,0.0,1.0,2.31707310677,-0.853658556938,0.18292683363,1.0,0.0,0.0,0.0,1.0,0.0,0.0,0.0,1.0,-0.397437475586,0.244208569336,-10.1897222656,1.0,0.0,0.0,0.0,1.0,0.0,0.0,0.0,1.0
1463662138475998302,650,1463662138047060300,,1.00256884098,0.482717603445,-140.602996826,0.0100779999048,1.0,0.0,0.0,0.0,1.0,0.0,0.0,0.0,1.0,2.5,-0.975609779358,0.0609756112099,1.0,0.0,0.0,0.0,1.0,0.0,0.0,0.0,1.0,-0.402225878906,0.196324536133,-10.3573163818,1.0,0.0,0.0,0.0,1.0,0.0,0.0,0.0,1.0
1463662138476260477,651,1463662138057276737,,1.00777578354,0.480763435364,-140.539245605,0.0101009998471,1.0,0.0,0.0,0.0,1.0,0.0,0.0,0.0,1.0,2.74390244484,-0.731707334518,-0.12195122242,1.0,0.0,0.0,0.0,1.0,0.0,0.0,0.0,1.0,-0.421379492187,0.110133276367,-10.3764699951,1.0,0.0,0.0,0.0,1.0,0.0,0.0,0.0,1.0
1463662138476580682,652,1463662138067542765,,1.01652646065,0.479863792658,-140.473831177,0.0100680002943,1.0,0.0,0.0,0.0,1.0,0.0,0.0,0.0,1.0,2.5,-0.731707334518,0.0609756112099,1.0,0.0,0.0,0.0,1.0,0.0,0.0,0.0,1.0,-0.402225878906,0.0,-10.3860468018,1.0,0.0,0.0,0.0,1.0,0.0,0.0,0.0,1.0
1463662138476871351,653,1463662138077709924,,1.01590204239,0.480257451534,-140.407867432,0.010153000243,1.0,0.0,0.0,0.0,1.0,0.0,0.0,0.0,1.0,2.13414645195,-0.731707334518,0.0609756112099,1.0,0.0,0.0,0.0,1.0,0.0,0.0,0.0,1.0,-0.373495458984,0.100556469727,-10.2376062988,1.0,0.0,0.0,0.0,1.0,0.0,0.0,0.0,1.0
1463662138477142694,654,1463662138087724665,,1.01629948616,0.478497356176,-140.343460083,0.0101070003584,1.0,0.0,0.0,0.0,1.0,0.0,0.0,0.0,1.0,1.8902438879,-0.792682945728,-0.0609756112099,1.0,0.0,0.0,0.0,1.0,0.0,0.0,0.0,1.0,-0.402225878906,0.0383072265625,-10.2615483154,1.0,0.0,0.0,0.0,1.0,0.0,0.0,0.0,1.0
1463662138477439614,655,1463662138097764825,,1.01148927212,0.474967628717,-140.279983521,0.0100630000234,1.0,0.0,0.0,0.0,1.0,0.0,0.0,0.0,1.0,1.95121955872,-0.853658556938,-0.12195122242,1.0,0.0,0.0,0.0,1.0,0.0,0.0,0.0,1.0,-0.426167895508,0.143652099609,-10.3190091553,1.0,0.0,0.0,0.0,1.0,0.0,0.0,0.0,1.0
1463662138477778936,656,1463662138107629022,,1.00506603718,0.473338603973,-140.219390869,0.0100959995762,1.0,0.0,0.0,0.0,1.0,0.0,0.0,0.0,1.0,2.13414645195,-0.670731723309,-0.426829278469,1.0,0.0,0.0,0.0,1.0,0.0,0.0,0.0,1.0,-0.426167895508,0.205901342773,-10.3046439453,1.0,0.0,0.0,0.0,1.0,0.0,0.0,0.0,1.0
1463662138478107579,657,1463662138117901041,,1.00077092648,0.466590851545,-140.15826416,0.010095000267,1.0,0.0,0.0,0.0,1.0,0.0,0.0,0.0,1.0,2.31707310677,-1.03658533096,-0.365853667259,1.0,0.0,0.0,0.0,1.0,0.0,0.0,0.0,1.0,-0.450109912109,0.201112939453,-10.2567599121,1.0,0.0,0.0,0.0,1.0,0.0,0.0,0.0,1.0
1463662138478419814,658,1463662138127984698,,0.998180687428,0.46531611681,-140.093276978,0.0101020000875,1.0,0.0,0.0,0.0,1.0,0.0,0.0,0.0,1.0,2.31707310677,-0.609756112099,-0.0,1.0,0.0,0.0,0.0,1.0,0.0,0.0,0.0,1.0,-0.430956298828,0.172382519531,-10.299855542,1.0,0.0,0.0,0.0,1.0,0.0,0.0,0.0,1.0
1463662138478745488,659,1463662138138980784,,0.998300552368,0.459994375706,-140.025787354,0.0101209999993,1.0,0.0,0.0,0.0,1.0,0.0,0.0,0.0,1.0,2.56097555161,-1.09756100178,0.243902444839,1.0,0.0,0.0,0.0,1.0,0.0,0.0,0.0,1.0,-0.411802685547,0.167594116211,-10.2328178955,1.0,0.0,0.0,0.0,1.0,0.0,0.0,0.0,1.0
1463662138479037615,660,1463662138148219105,,0.993596374989,0.455749392509,-139.955993652,0.0100880004466,1.0,0.0,0.0,0.0,1.0,0.0,0.0,0.0,1.0,2.68292689323,-0.609756112099,0.487804889679,1.0,0.0,0.0,0.0,1.0,0.0,0.0,0.0,1.0,-0.483628735352,0.277727392578,-10.2807019287,1.0,0.0,0.0,0.0,1.0,0.0,0.0,0.0,1.0
1463662138479346568,661,1463662138158218114,,1.00178933144,0.448074370623,-139.888656616,0.0100849997252,1.0,0.0,0.0,0.0,1.0,0.0,0.0,0.0,1.0,2.92682933807,-0.853658556938,0.243902444839,1.0,0.0,0.0,0.0,1.0,0.0,0.0,0.0,1.0,-0.507570751953,0.0909796630859,-10.3860468018,1.0,0.0,0.0,0.0,1.0,0.0,0.0,0.0,1.0
1463662138479630309,662,1463662138168585355,,1.01071894169,0.447560042143,-139.824249268,0.0101039996371,1.0,0.0,0.0,0.0,1.0,0.0,0.0,0.0,1.0,3.17073178291,-0.609756112099,-0.0609756112099,1.0,0.0,0.0,0.0,1.0,0.0,0.0,0.0,1.0,-0.421379492187,0.119710083008,-10.3190091553,1.0,0.0,0.0,0.0,1.0,0.0,0.0,0.0,1.0
1463662138479966766,663,1463662138178716780,,1.02116703987,0.442104905844,-139.760482788,0.0101020000875,1.0,0.0,0.0,0.0,1.0,0.0,0.0,0.0,1.0,2.80487799644,-0.914634168148,-0.12195122242,1.0,0.0,0.0,0.0,1.0,0.0,0.0,0.0,1.0,-0.45489831543,0.0239420166016,-10.314220752,1.0,0.0,0.0,0.0,1.0,0.0,0.0,0.0,1.0
1463662138480357033,664,1463662138189486113,,1.02474045753,0.442756205797,-139.695892334,0.0101319998503,1.0,0.0,0.0,0.0,1.0,0.0,0.0,0.0,1.0,2.13414645195,-0.853658556938,-0.0609756112099,1.0,0.0,0.0,0.0,1.0,0.0,0.0,0.0,1.0,-0.354341845703,0.0239420166016,-10.2519715088,1.0,0.0,0.0,0.0,1.0,0.0,0.0,0.0,1.0
1463662138480799496,665,1463662138199597795,,1.03245580196,0.437718212605,-139.628997803,0.0101039996371,1.0,0.0,0.0,0.0,1.0,0.0,0.0,0.0,1.0,2.25609779358,-0.914634168148,0.18292683363,1.0,0.0,0.0,0.0,1.0,0.0,0.0,0.0,1.0,-0.445321508789,-0.0287304199219,-10.2759135254,1.0,0.0,0.0,0.0,1.0,0.0,0.0,0.0,1.0
1463662138481134598,666,1463662138209312594,,1.03309392929,0.440433979034,-139.565261841,0.0100880004466,1.0,0.0,0.0,0.0,1.0,0.0,0.0,0.0,1.0,1.8292683363,-0.670731723309,-0.12195122242,1.0,0.0,0.0,0.0,1.0,0.0,0.0,0.0,1.0,-0.354341845703,0.0191536132812,-10.3477395752,1.0,0.0,0.0,0.0,1.0,0.0,0.0,0.0,1.0
1463662138481516323,667,1463662138219367965,,1.02799081802,0.436915338039,-139.501708984,0.0100739998743,1.0,0.0,0.0,0.0,1.0,0.0,0.0,0.0,1.0,1.52439022064,-1.03658533096,-0.12195122242,1.0,0.0,0.0,0.0,1.0,0.0,0.0,0.0,1.0,-0.397437475586,0.067037651051,-10.2759135254,1.0,0.0,0.0,0.0,1.0,0.0,0.0,0.0,1.0
1463662138481847258,668,1463662138229178665,,1.02422380447,0.430638045073,-139.436431885,0.0101520000026,1.0,0.0,0.0,0.0,1.0,0.0,0.0,0.0,1.0,1.8292683363,-1.03658533096,-0.0,1.0,0.0,0.0,0.0,1.0,0.0,0.0,0.0,1.0,-0.45489831543,0.100556469727,-10.4674496582,1.0,0.0,0.0,0.0,1.0,0.0,0.0,0.0,1.0
1463662138482154179,669,1463662138239232786,,1.01717615128,0.423111051321,-139.374771118,0.0101810004562,1.0,0.0,0.0,0.0,1.0,0.0,0.0,0.0,1.0,1.8292683363,-1.2195122242,-0.365853667259,1.0,0.0,0.0,0.0,1.0,0.0,0.0,0.0,1.0,-0.440533105469,0.15801730957,-10.3381627686,1.0,0.0,0.0,0.0,1.0,0.0,0.0,0.0,1.0
1463662138482512098,670,1463662138249984460,,1.0040589571,0.413088262081,-139.3175354,0.0100670000538,1.0,0.0,0.0,0.0,1.0,0.0,0.0,0.0,1.0,2.43902444839,-0.914634168148,-0.731707334518,1.0,0.0,0.0,0.0,1.0,0.0,0.0,0.0,1.0,-0.541089611728,0.378283862305,-10.2376062988,1.0,0.0,0.0,0.0,1.0,0.0,0.0,0.0,1.0
1463662138482817144,671,1463662138260029517,,1.00009453297,0.409064263105,-139.262969971,0.0100410003215,1.0,0.0,0.0,0.0,1.0,0.0,0.0,0.0,1.0,3.65853667259,-1.09756100178,-0.975609779358,1.0,0.0,0.0,0.0,1.0,0.0,0.0,0.0,1.0,-0.407014282227,0.440533105469,-10.3429511719,1.0,0.0,0.0,0.0,1.0,0.0,0.0,0.0,1.0
1463662138483104896,672,1463662138270073325,,0.986687004566,0.408891916275,-139.207565308,0.0100990002975,1.0,0.0,0.0,0.0,1.0,0.0,0.0,0.0,1.0,4.45121955872,-0.914634168148,-0.914634168148,1.0,0.0,0.0,0.0,1.0,0.0,0.0,0.0,1.0,-0.368707055664,0.751779321289,-10.2567599121,1.0,0.0,0.0,0.0,1.0,0.0,0.0,0.0,1.0
1463662138484081397,673,1463662138280112652,,1.00376915932,0.400772422552,-139.153411865,0.010208000429,1.0,0.0,0.0,0.0,1.0,0.0,0.0,0.0,1.0,6.34146356583,-1.15853655338,-1.09756100178,1.0,0.0,0.0,0.0,1.0,0.0,0.0,0.0,1.0,-0.469263525391,0.555454785156,-10.3333743652,1.0,0.0,0.0,0.0,1.0,0.0,0.0,0.0,1.0
1463662138484384099,674,1463662138290150781,,1.04222679138,0.399059712887,-139.103393555,0.00998099986464,1.0,0.0,0.0,0.0,1.0,0.0,0.0,0.0,1.0,7.56097555161,-0.975609779358,-1.40243899822,1.0,0.0,0.0,0.0,1.0,0.0,0.0,0.0,1.0,-0.387860668945,0.373495458984,-10.2711251221,1.0,0.0,0.0,0.0,1.0,0.0,0.0,0.0,1.0
1463662138484672893,675,1463662138299814375,,1.07717347145,0.39743077755,-139.047012329,0.0101319998503,1.0,0.0,0.0,0.0,1.0,0.0,0.0,0.0,1.0,7.19512224197,-0.975609779358,-0.853658556938,1.0,0.0,0.0,0.0,1.0,0.0,0.0,0.0,1.0,-0.383072265625,0.373495458984,-10.2519715088,1.0,0.0,0.0,0.0,1.0,0.0,0.0,0.0,1.0
1463662138484952779,676,1463662138310643873,,1.11950588226,0.402303367853,-138.982162476,0.0100769996643,1.0,0.0,0.0,0.0,1.0,0.0,0.0,0.0,1.0,7.13414621353,-0.609756112099,-0.0,1.0,0.0,0.0,0.0,1.0,0.0,0.0,0.0,1.0,-0.335188232422,0.225054956055,-10.4482960449,1.0,0.0,0.0,0.0,1.0,0.0,0.0,0.0,1.0
1463662138485226101,677,1463662138320580164,,1.16097974777,0.404584825039,-138.907073975,0.0101279998198,1.0,0.0,0.0,0.0,1.0,0.0,0.0,0.0,1.0,6.95121955872,-0.914634168148,0.975609779358,1.0,0.0,0.0,0.0,1.0,0.0,0.0,0.0,1.0,-0.316034619141,0.201112939453,-10.2759135254,1.0,0.0,0.0,0.0,1.0,0.0,0.0,0.0,1.0
1463662138485504841,678,1463662138330185311,,1.2140327692,0.405379652977,-138.828598022,0.0100739998743,1.0,0.0,0.0,0.0,1.0,0.0,0.0,0.0,1.0,6.70731735229,-1.03658533096,1.34146344662,1.0,0.0,0.0,0.0,1.0,0.0,0.0,0.0,1.0,-0.316034619141,-0.0622492431641,-10.2280294922,1.0,0.0,0.0,0.0,1.0,0.0,0.0,0.0,1.0
1463662138485824785,679,1463662138340688146,,1.25273883343,0.41059589386,-138.746902466,0.0100859999657,1.0,0.0,0.0,0.0,1.0,0.0,0.0,0.0,1.0,5.48780488968,-0.853658556938,1.64634156227,1.0,0.0,0.0,0.0,1.0,0.0,0.0,0.0,1.0,-0.268150604204,-0.0335188255255,-10.2567599121,1.0,0.0,0.0,0.0,1.0,0.0,0.0,0.0,1.0
1463662138486120715,680,1463662138350531559,,1.29170393944,0.408636927605,-138.664993286,0.0101110003889,1.0,0.0,0.0,0.0,1.0,0.0,0.0,0.0,1.0,5.12195110321,-1.03658533096,1.64634156227,1.0,0.0,0.0,0.0,1.0,0.0,0.0,0.0,1.0,-0.363918652344,-0.110133276367,-10.314220752,1.0,0.0,0.0,0.0,1.0,0.0,0.0,0.0,1.0
1463662138486409457,681,1463662138360602245,,1.33361780643,0.409927248955,-138.586135864,0.0101070003584,1.0,0.0,0.0,0.0,1.0,0.0,0.0,0.0,1.0,5.85365867615,-0.609756112099,1.34146344662,1.0,0.0,0.0,0.0,1.0,0.0,0.0,0.0,1.0,-0.387860668945,-0.0383072265625,-10.4291424316,1.0,0.0,0.0,0.0,1.0,0.0,0.0,0.0,1.0
1463662138486681425,682,1463662138370913853,,1.39547789097,0.397415816784,-138.526535034,0.0101009998471,1.0,0.0,0.0,0.0,1.0,0.0,0.0,0.0,1.0,6.28048801422,-1.2195122242,-0.548780500889,1.0,0.0,0.0,0.0,1.0,0.0,0.0,0.0,1.0,-0.536301208408,-0.335188232422,-10.4626612549,1.0,0.0,0.0,0.0,1.0,0.0,0.0,0.0,1.0
1463662138486992670,683,1463662138380818420,,1.44250047207,0.400531560183,-138.479202271,0.0101009998471,1.0,0.0,0.0,0.0,1.0,0.0,0.0,0.0,1.0,5.79268312454,-0.670731723309,-1.76829278469,1.0,0.0,0.0,0.0,1.0,0.0,0.0,0.0,1.0,-0.349553442383,-0.162805712891,-10.2088758789,1.0,0.0,0.0,0.0,1.0,0.0,0.0,0.0,1.0
1463662138487297716,684,1463662138391054756,,1.48320996761,0.400404304266,-138.425750732,0.0100959995762,1.0,0.0,0.0,0.0,1.0,0.0,0.0,0.0,1.0,4.75609779358,-0.975609779358,-1.15853655338,1.0,0.0,0.0,0.0,1.0,0.0,0.0,0.0,1.0,-0.354341845703,-0.248996972656,-10.3812583984,1.0,0.0,0.0,0.0,1.0,0.0,0.0,0.0,1.0
1463662138487599636,685,1463662138401078821,,1.50777971745,0.394646912813,-138.361236572,0.0101920003071,1.0,0.0,0.0,0.0,1.0,0.0,0.0,0.0,1.0,3.17073178291,-1.2804877758,-0.12195122242,1.0,0.0,0.0,0.0,1.0,0.0,0.0,0.0,1.0,-0.387860668945,-0.244208569336,-10.2088758789,1.0,0.0,0.0,0.0,1.0,0.0,0.0,0.0,1.0
1463662138487924946,686,1463662138411380584,,1.51300501823,0.388951092958,-138.287887573,0.0100090000778,1.0,0.0,0.0,0.0,1.0,0.0,0.0,0.0,1.0,1.70731711388,-0.548780500889,0.853658556938,1.0,0.0,0.0,0.0,1.0,0.0,0.0,0.0,1.0,-0.521935925381,-0.172382519531,-10.314220752,1.0,0.0,0.0,0.0,1.0,0.0,0.0,0.0,1.0
1463662138488226710,687,1463662138421059388,,1.51317214966,0.383587568998,-138.215377808,0.0100729996338,1.0,0.0,0.0,0.0,1.0,0.0,0.0,0.0,1.0,1.52439022064,-0.731707334518,0.731707334518,1.0,0.0,0.0,0.0,1.0,0.0,0.0,0.0,1.0,-0.483628735352,-0.114921679688,-10.3190091553,1.0,0.0,0.0,0.0,1.0,0.0,0.0,0.0,1.0
1463662138488484197,688,1463662138431121948,,1.51403737068,0.37701267004,-138.147018433,0.0102030001581,1.0,0.0,0.0,0.0,1.0,0.0,0.0,0.0,1.0,1.8292683363,-0.914634168148,0.243902444839,1.0,0.0,0.0,0.0,1.0,0.0,0.0,0.0,1.0,-0.469263525391,-0.0718260498047,-10.2136642822,1.0,0.0,0.0,0.0,1.0,0.0,0.0,0.0,1.0
1463662138488769813,689,1463662138441355315,,1.51320457458,0.368502229452,-138.089675903,0.0100020002574,1.0,0.0,0.0,0.0,1.0,0.0,0.0,0.0,1.0,1.64634156227,-0.548780500889,-0.731707334518,1.0,0.0,0.0,0.0,1.0,0.0,0.0,0.0,1.0,-0.584185168546,-0.076614453125,-10.314220752,1.0,0.0,0.0,0.0,1.0,0.0,0.0,0.0,1.0
1463662138489062044,690,1463662138451086262,,1.50996243954,0.363134771585,-138.029403687,0.0100889997557,1.0,0.0,0.0,0.0,1.0,0.0,0.0,0.0,1.0,0.609756112099,-0.792682945728,-0.487804889679,1.0,0.0,0.0,0.0,1.0,0.0,0.0,0.0,1.0,-0.478840332031,-0.220266552734,-10.2471831055,1.0,0.0,0.0,0.0,1.0,0.0,0.0,0.0,1.0
1463662138489327762,691,1463662138461963164,,1.49883782864,0.350855350494,-137.961959839,0.0101239997894,1.0,0.0,0.0,0.0,1.0,0.0,0.0,0.0,1.0,-0.426829278469,-0.426829278469,0.18292683363,1.0,0.0,0.0,0.0,1.0,0.0,0.0,0.0,1.0,-0.660799658203,-0.263362164351,-10.1514150391,1.0,0.0,0.0,0.0,1.0,0.0,0.0,0.0,1.0
1463662138770577647,692,1463662138472168818,,1.47444880009,0.353839337826,-137.887542725,0.0101600000635,1.0,0.0,0.0,0.0,1.0,0.0,0.0,0.0,1.0,-1.34146344662,-0.670731723309,0.853658556938,1.0,0.0,0.0,0.0,1.0,0.0,0.0,0.0,1.0,-0.354341845703,-0.196324536133,-10.419565625,1.0,0.0,0.0,0.0,1.0,0.0,0.0,0.0,1.0
1463662138770954943,693,1463662138482839543,,1.4405374527,0.355876505375,-137.816757202,0.0101690003648,1.0,0.0,0.0,0.0,1.0,0.0,0.0,0.0,1.0,-2.01219511032,-0.487804889679,0.487804889679,1.0,0.0,0.0,0.0,1.0,0.0,0.0,0.0,1.0,-0.407014282227,-0.143652099609,-10.419565625,1.0,0.0,0.0,0.0,1.0,0.0,0.0,0.0,1.0
1463662138771297651,694,1463662138492081615,,1.39420509338,0.357466727495,-137.749938965,0.00997299980372,1.0,0.0,0.0,0.0,1.0,0.0,0.0,0.0,1.0,-2.25609779358,-0.731707334518,0.243902444839,1.0,0.0,0.0,0.0,1.0,0.0,0.0,0.0,1.0,-0.363918652344,0.0574608398438,-10.2088758789,1.0,0.0,0.0,0.0,1.0,0.0,0.0,0.0,1.0
1463662138771578631,695,1463662138501911327,,1.35544407368,0.358697801828,-137.6849823,0.010153000243,1.0,0.0,0.0,0.0,1.0,0.0,0.0,0.0,1.0,-2.13414645195,-0.609756112099,-0.0609756112099,1.0,0.0,0.0,0.0,1.0,0.0,0.0,0.0,1.0,-0.397437475586,-0.0622492431641,-10.2807019287,1.0,0.0,0.0,0.0,1.0,0.0,0.0,0.0,1.0
1463662138771932226,696,1463662138512564445,,1.31790852547,0.354270815849,-137.620620728,0.0100649995729,1.0,0.0,0.0,0.0,1.0,0.0,0.0,0.0,1.0,-2.56097555161,-0.853658556938,-0.0609756112099,1.0,0.0,0.0,0.0,1.0,0.0,0.0,0.0,1.0,-0.45489831543,-0.148440512063,-10.2615483154,1.0,0.0,0.0,0.0,1.0,0.0,0.0,0.0,1.0
1463662138772205340,697,1463662138522495214,,1.26968097687,0.359299778938,-137.554092407,0.0101009998471,1.0,0.0,0.0,0.0,1.0,0.0,0.0,0.0,1.0,-3.65853667259,-0.426829278469,0.12195122242,1.0,0.0,0.0,0.0,1.0,0.0,0.0,0.0,1.0,-0.368707055664,-0.15322890625,-10.4243540283,1.0,0.0,0.0,0.0,1.0,0.0,0.0,0.0,1.0
1463662138772503146,698,1463662138532444788,,1.21152293682,0.360658526421,-137.483947754,0.0101960003376,1.0,0.0,0.0,0.0,1.0,0.0,0.0,0.0,1.0,-4.32926845551,-0.853658556938,0.426829278469,1.0,0.0,0.0,0.0,1.0,0.0,0.0,0.0,1.0,-0.354341845703,-0.0957680664062,-10.3668931885,1.0,0.0,0.0,0.0,1.0,0.0,0.0,0.0,1.0
1463662138772795169,699,1463662138543345183,,1.15092873573,0.363171488047,-137.409988403,0.0100239999592,1.0,0.0,0.0,0.0,1.0,0.0,0.0,0.0,1.0,-5.0,-0.426829278469,0.914634168148,1.0,0.0,0.0,0.0,1.0,0.0,0.0,0.0,1.0,-0.407014282227,-0.143652099609,-10.285490332,1.0,0.0,0.0,0.0,1.0,0.0,0.0,0.0,1.0
1463662138773067345,700,1463662138552993201,,1.07745170593,0.364244490862,-137.339660645,0.0103930002078,1.0,0.0,0.0,0.0,1.0,0.0,0.0,0.0,1.0,-5.42682933807,0.0,0.304878056049,1.0,0.0,0.0,0.0,1.0,0.0,0.0,0.0,1.0,-0.502782348633,-0.0239420166016,-10.0412817627,1.0,0.0,0.0,0.0,1.0,0.0,0.0,0.0,1.0
1463662138773357389,701,1463662138562886830,,1.00190234184,0.363369524479,-137.277511597,0.00994000025094,1.0,0.0,0.0,0.0,1.0,0.0,0.0,0.0,1.0,-5.36585378647,-0.914634168148,-0.18292683363,1.0,0.0,0.0,0.0,1.0,0.0,0.0,0.0,1.0,-0.387860668945,0.0957680664062,-10.3285859619,1.0,0.0,0.0,0.0,1.0,0.0,0.0,0.0,1.0
1463662138773641547,702,1463662138572626580,,0.925566494465,0.362180709839,-137.214172363,0.00993300043046,1.0,0.0,0.0,0.0,1.0,0.0,0.0,0.0,1.0,-5.60975599289,-0.609756112099,-0.0609756112099,1.0,0.0,0.0,0.0,1.0,0.0,0.0,0.0,1.0,-0.45489831543,0.0814028564453,-10.4291424316,1.0,0.0,0.0,0.0,1.0,0.0,0.0,0.0,1.0
1463662138773936747,703,1463662138583930421,,0.840374648571,0.361532837152,-137.145111084,0.010153000243,1.0,0.0,0.0,0.0,1.0,0.0,0.0,0.0,1.0,-6.28048801422,-0.670731723309,0.365853667259,1.0,0.0,0.0,0.0,1.0,0.0,0.0,0.0,1.0,-0.426167895508,0.100556469727,-10.2376062988,1.0,0.0,0.0,0.0,1.0,0.0,0.0,0.0,1.0
1463662138774193296,704,1463662138593348561,,0.739081323147,0.366068303585,-137.075210571,0.010108999908,1.0,0.0,0.0,0.0,1.0,0.0,0.0,0.0,1.0,-6.64634132385,-0.487804889679,0.487804889679,1.0,0.0,0.0,0.0,1.0,0.0,0.0,0.0,1.0,-0.368707055664,0.344765039063,-10.2423947021,1.0,0.0,0.0,0.0,1.0,0.0,0.0,0.0,1.0
1463662138774485580,705,1463662138603532910,,0.64060229063,0.369787633419,-137.012390137,0.010098000057,1.0,0.0,0.0,0.0,1.0,0.0,0.0,0.0,1.0,-4.75609779358,-0.731707334518,-0.18292683363,1.0,0.0,0.0,0.0,1.0,0.0,0.0,0.0,1.0,-0.344765039063,0.660799658203,-10.3094323486,1.0,0.0,0.0,0.0,1.0,0.0,0.0,0.0,1.0
1463662138774756975,706,1463662138614200510,,0.54532968998,0.377781450748,-136.956634521,0.0100699998438,1.0,0.0,0.0,0.0,1.0,0.0,0.0,0.0,1.0,-2.92682933807,-0.304878056049,-0.853658556938,1.0,0.0,0.0,0.0,1.0,0.0,0.0,0.0,1.0,-0.354341845703,0.976834277344,-10.4866032715,1.0,0.0,0.0,0.0,1.0,0.0,0.0,0.0,1.0
1463662138775916317,707,1463662138624147896,,0.475446641445,0.38893699646,-136.904098511,0.01070000045,1.0,0.0,0.0,0.0,1.0,0.0,0.0,0.0,1.0,1.09756100178,-0.365853667259,-1.46341466904,1.0,0.0,0.0,0.0,1.0,0.0,0.0,0.0,1.0,-0.292092584273,1.17315874041,-10.2567599121,1.0,0.0,0.0,0.0,1.0,0.0,0.0,0.0,1.0
1463662138776305542,708,1463662138633599583,,0.446752309799,0.397410303354,-136.860946655,0.0094990003854,1.0,0.0,0.0,0.0,1.0,0.0,0.0,0.0,1.0,3.53658556938,-0.487804889679,-1.8292683363,1.0,0.0,0.0,0.0,1.0,0.0,0.0,0.0,1.0,-0.296881024126,0.991199487305,-10.2902787354,1.0,0.0,0.0,0.0,1.0,0.0,0.0,0.0,1.0
1463662138776653511,709,1463662138644277860,,0.452817887068,0.414640545845,-136.807693481,0.0103000001982,1.0,0.0,0.0,0.0,1.0,0.0,0.0,0.0,1.0,5.48780488968,0.0,-1.2195122242,1.0,0.0,0.0,0.0,1.0,0.0,0.0,0.0,1.0,-0.244208569336,0.703895288086,-10.4578728516,1.0,0.0,0.0,0.0,1.0,0.0,0.0,0.0,1.0
1463662138776928657,710,1463662138653273697,,0.470772147179,0.428994357586,-136.746353149,0.00986899994314,1.0,0.0,0.0,0.0,1.0,0.0,0.0,0.0,1.0,5.48780488968,-0.609756112099,-0.18292683363,1.0,0.0,0.0,0.0,1.0,0.0,0.0,0.0,1.0,-0.167594116211,0.478840332031,-10.5153336914,1.0,0.0,0.0,0.0,1.0,0.0,0.0,0.0,1.0
1463662138777217294,711,1463662138663798566,,0.494123339653,0.425838261843,-136.663894653,0.0101549997926,1.0,0.0,0.0,0.0,1.0,0.0,0.0,0.0,1.0,5.24390268326,-0.792682945728,1.70731711388,1.0,0.0,0.0,0.0,1.0,0.0,0.0,0.0,1.0,-0.450109912109,0.339976635742,-10.3908352051,1.0,0.0,0.0,0.0,1.0,0.0,0.0,0.0,1.0
1463662138777508588,712,1463662138673793512,,0.517439544201,0.43038380146,-136.578231812,0.0100830001757,1.0,0.0,0.0,0.0,1.0,0.0,0.0,0.0,1.0,3.84146332741,-1.09756100178,2.07317066193,1.0,0.0,0.0,0.0,1.0,0.0,0.0,0.0,1.0,-0.253785375977,0.076614453125,-10.405200415,1.0,0.0,0.0,0.0,1.0,0.0,0.0,0.0,1.0
1463662138777774722,713,1463662138684241911,,0.54193764925,0.436753988266,-136.496536255,0.0101199997589,1.0,0.0,0.0,0.0,1.0,0.0,0.0,0.0,1.0,3.29268312454,-1.15853655338,1.64634156227,1.0,0.0,0.0,0.0,1.0,0.0,0.0,0.0,1.0,-0.205901342773,-0.0478840332031,-10.2471831055,1.0,0.0,0.0,0.0,1.0,0.0,0.0,0.0,1.0
1463662138778048826,714,1463662138694691405,,0.569380581379,0.434002429247,-136.424514771,0.0100670000538,1.0,0.0,0.0,0.0,1.0,0.0,0.0,0.0,1.0,3.65853667259,-0.975609779358,0.731707334518,1.0,0.0,0.0,0.0,1.0,0.0,0.0,0.0,1.0,-0.407014282227,-0.0430956298828,-10.3716815918,1.0,0.0,0.0,0.0,1.0,0.0,0.0,0.0,1.0
1463662138778312147,715,1463662138704527108,,0.605710446835,0.435047805309,-136.364334106,0.0102350004017,1.0,0.0,0.0,0.0,1.0,0.0,0.0,0.0,1.0,3.65853667259,-0.670731723309,-0.548780500889,1.0,0.0,0.0,0.0,1.0,0.0,0.0,0.0,1.0,-0.387860668945,-0.196324536133,-10.1466266357,1.0,0.0,0.0,0.0,1.0,0.0,0.0,0.0,1.0
1463662138778592346,716,1463662138714126108,,0.630552589893,0.433809280396,-136.314743042,0.0100210001692,1.0,0.0,0.0,0.0,1.0,0.0,0.0,0.0,1.0,3.7804877758,-0.853658556938,-1.46341466904,1.0,0.0,0.0,0.0,1.0,0.0,0.0,0.0,1.0,-0.397437475586,0.00957680664062,-10.1705686523,1.0,0.0,0.0,0.0,1.0,0.0,0.0,0.0,1.0
1463662138778890203,717,1463662138724352859,,0.64781409502,0.431217610836,-136.265106201,0.0100299995393,1.0,0.0,0.0,0.0,1.0,0.0,0.0,0.0,1.0,3.96341490746,-0.426829278469,-1.46341466904,1.0,0.0,0.0,0.0,1.0,0.0,0.0,0.0,1.0,-0.493205541992,0.172382519531,-10.060435376,1.0,0.0,0.0,0.0,1.0,0.0,0.0,0.0,1.0
1463662138779156702,718,1463662138734497619,,0.658576965332,0.4392157197,-136.214950562,0.0101239997894,1.0,0.0,0.0,0.0,1.0,0.0,0.0,0.0,1.0,3.7804877758,0.243902444839,-1.46341466904,1.0,0.0,0.0,0.0,1.0,0.0,0.0,0.0,1.0,-0.426167895508,0.253785375977,-10.060435376,1.0,0.0,0.0,0.0,1.0,0.0,0.0,0.0,1.0
1463662138779426690,719,1463662138745058692,,0.651963174343,0.451132565737,-136.158294678,0.0101680001244,1.0,0.0,0.0,0.0,1.0,0.0,0.0,0.0,1.0,2.74390244484,1.15853655338,-0.853658556938,1.0,0.0,0.0,0.0,1.0,0.0,0.0,0.0,1.0,-0.531512805087,0.383072265625,-10.3190091553,1.0,0.0,0.0,0.0,1.0,0.0,0.0,0.0,1.0
1463662138832190225,720,1463662138754197727,,0.634978532791,0.474253892899,-136.091842651,0.0100589999929,1.0,0.0,0.0,0.0,1.0,0.0,0.0,0.0,1.0,2.5,1.09756100178,0.18292683363,1.0,0.0,0.0,0.0,1.0,0.0,0.0,0.0,1.0,-0.31124621582,0.531512805087,-10.3333743652,1.0,0.0,0.0,0.0,1.0,0.0,0.0,0.0,1.0
1463662138832488290,721,1463662138764404997,,0.617710292339,0.499305218458,-136.020767212,0.0101209999993,1.0,0.0,0.0,0.0,1.0,0.0,0.0,0.0,1.0,3.59756112099,1.2195122242,0.609756112099,1.0,0.0,0.0,0.0,1.0,0.0,0.0,0.0,1.0,-0.301669427446,0.751779321289,-10.4961800781,1.0,0.0,0.0,0.0,1.0,0.0,0.0,0.0,1.0
1463662138832782345,722,1463662138774551059,,0.613168597221,0.529923737049,-135.953826904,0.0101709999144,1.0,0.0,0.0,0.0,1.0,0.0,0.0,0.0,1.0,5.36585378647,0.548780500889,0.18292683363,1.0,0.0,0.0,0.0,1.0,0.0,0.0,0.0,1.0,-0.0718260498047,0.818816967773,-10.1131078125,1.0,0.0,0.0,0.0,1.0,0.0,0.0,0.0,1.0
1463662138833100154,723,1463662138785088482,,0.635926306248,0.563730955124,-135.899703979,0.00999299995601,1.0,0.0,0.0,0.0,1.0,0.0,0.0,0.0,1.0,7.56097555161,0.487804889679,-0.975609779358,1.0,0.0,0.0,0.0,1.0,0.0,0.0,0.0,1.0,0.00957680664062,0.746990917969,-10.4578728516,1.0,0.0,0.0,0.0,1.0,0.0,0.0,0.0,1.0
1463662138833402491,724,1463662138794878397,,0.693539440632,0.596011996269,-135.8462677,0.0100779999048,1.0,0.0,0.0,0.0,1.0,0.0,0.0,0.0,1.0,9.5731716156,-0.12195122242,-1.09756100178,1.0,0.0,0.0,0.0,1.0,0.0,0.0,0.0,1.0,0.0957680664062,0.478840332031,-10.4722380615,1.0,0.0,0.0,0.0,1.0,0.0,0.0,0.0,1.0
1463662138833731499,725,1463662138804729571,,0.763766169548,0.641246259212,-135.788787842,0.010098000057,1.0,0.0,0.0,0.0,1.0,0.0,0.0,0.0,1.0,9.75609779358,0.548780500889,-0.731707334518,1.0,0.0,0.0,0.0,1.0,0.0,0.0,0.0,1.0,0.210689746094,0.268150604204,-10.2280294922,1.0,0.0,0.0,0.0,1.0,0.0,0.0,0.0,1.0
1463662138834061392,726,1463662138814945487,,0.823368191719,0.676006913185,-135.72328186,0.0101300003007,1.0,0.0,0.0,0.0,1.0,0.0,0.0,0.0,1.0,10.1219511032,0.0,0.0609756112099,1.0,0.0,0.0,0.0,1.0,0.0,0.0,0.0,1.0,0.134075302102,0.526724328702,-10.4099888184,1.0,0.0,0.0,0.0,1.0,0.0,0.0,0.0,1.0
1463662138834402277,727,1463662138824891623,,0.900819480419,0.717458069324,-135.651000977,0.0100990002975,1.0,0.0,0.0,0.0,1.0,0.0,0.0,0.0,1.0,11.7073173523,0.853658556938,0.731707334518,1.0,0.0,0.0,0.0,1.0,0.0,0.0,0.0,1.0,0.110133276367,0.478840332031,-10.3621047852,1.0,0.0,0.0,0.0,1.0,0.0,0.0,0.0,1.0
1463662138882997578,728,1463662138835696326,,0.988230466843,0.743260741234,-135.586257935,0.0100830001757,1.0,0.0,0.0,0.0,1.0,0.0,0.0,0.0,1.0,12.1951217651,0.18292683363,-0.0,1.0,0.0,0.0,0.0,1.0,0.0,0.0,0.0,1.0,-0.0430956298828,0.373495458984,-10.4674496582,1.0,0.0,0.0,0.0,1.0,0.0,0.0,0.0,1.0
1463662138883342839,729,1463662138845195103,,1.08202707767,0.753522455692,-135.519317627,0.0101269995794,1.0,0.0,0.0,0.0,1.0,0.0,0.0,0.0,1.0,12.5609760284,0.18292683363,0.18292683363,1.0,0.0,0.0,0.0,1.0,0.0,0.0,0.0,1.0,-0.3064578125,0.301669427446,-9.96466730957,1.0,0.0,0.0,0.0,1.0,0.0,0.0,0.0,1.0
1463662138883685755,730,1463662138855362679,,1.18889260292,0.755610823631,-135.4556427,0.0100959995762,1.0,0.0,0.0,0.0,1.0,0.0,0.0,0.0,1.0,13.7804880142,0.0609756112099,-0.12195122242,1.0,0.0,0.0,0.0,1.0,0.0,0.0,0.0,1.0,-0.450109912109,0.282515795898,-10.5823713379,1.0,0.0,0.0,0.0,1.0,0.0,0.0,0.0,1.0
1463662138884045861,731,1463662138866523322,,1.28564047813,0.748665630817,-135.385513306,0.0102760000154,1.0,0.0,0.0,0.0,1.0,0.0,0.0,0.0,1.0,14.3902444839,-3.71951246262,0.487804889679,1.0,0.0,0.0,0.0,1.0,0.0,0.0,0.0,1.0,0.0957680664062,0.598550451572,-10.6158901611,1.0,0.0,0.0,0.0,1.0,0.0,0.0,0.0,1.0
1463662138927681768,732,1463662138875977977,,1.40459120274,0.770379066467,-135.328430176,0.00990299973637,1.0,0.0,0.0,0.0,1.0,0.0,0.0,0.0,1.0,16.4634151459,0.548780500889,-0.670731723309,1.0,0.0,0.0,0.0,1.0,0.0,0.0,0.0,1.0,-0.162805712891,0.45968671875,-10.1753570557,1.0,0.0,0.0,0.0,1.0,0.0,0.0,0.0,1.0
1463662138928273785,733,1463662138886574524,,1.51640427113,0.756573438644,-135.271591187,0.0101239997894,1.0,0.0,0.0,0.0,1.0,0.0,0.0,0.0,1.0,16.8292694092,-2.43902444839,-0.731707334518,1.0,0.0,0.0,0.0,1.0,0.0,0.0,0.0,1.0,-0.268150604204,0.699106884766,-10.4818148682,1.0,0.0,0.0,0.0,1.0,0.0,0.0,0.0,1.0
1463662138928629776,734,1463662138896504043,,1.64424335957,0.769216835499,-135.207839966,0.0101020000875,1.0,0.0,0.0,0.0,1.0,0.0,0.0,0.0,1.0,19.4512195587,-1.2804877758,-0.0609756112099,1.0,0.0,0.0,0.0,1.0,0.0,0.0,0.0,1.0,0.00478840332031,0.852335791016,-10.285490332,1.0,0.0,0.0,0.0,1.0,0.0,0.0,0.0,1.0
1463662138928934041,735,1463662138906365688,,1.8012368679,0.742838561535,-135.136932373,0.0100830001757,1.0,0.0,0.0,0.0,1.0,0.0,0.0,0.0,1.0,21.4634151459,-2.13414645195,0.670731723309,1.0,0.0,0.0,0.0,1.0,0.0,0.0,0.0,1.0,-0.545877978516,0.679953271484,-10.5009684814,1.0,0.0,0.0,0.0,1.0,0.0,0.0,0.0,1.0
1463662138970558759,736,1463662138915997297,,1.97096443176,0.731159925461,-135.054443359,0.0101020000875,1.0,0.0,0.0,0.0,1.0,0.0,0.0,0.0,1.0,21.9512195587,-1.70731711388,1.76829278469,1.0,0.0,0.0,0.0,1.0,0.0,0.0,0.0,1.0,-0.339976635742,0.502782348633,-10.2759135254,1.0,0.0,0.0,0.0,1.0,0.0,0.0,0.0,1.0
1463662138970890788,737,1463662138926147943,,2.17598342896,0.710648298264,-134.968093872,0.0101889995858,1.0,0.0,0.0,0.0,1.0,0.0,0.0,0.0,1.0,23.1707324982,-2.5,2.07317066193,1.0,0.0,0.0,0.0,1.0,0.0,0.0,0.0,1.0,-0.349553442383,0.0909796630859,-10.3716815918,1.0,0.0,0.0,0.0,1.0,0.0,0.0,0.0,1.0
1463662138971316582,738,1463662138936067252,,2.37948989868,0.677170813084,-134.875778198,0.0100859999657,1.0,0.0,0.0,0.0,1.0,0.0,0.0,0.0,1.0,23.1097564697,-2.43902444839,2.74390244484,1.0,0.0,0.0,0.0,1.0,0.0,0.0,0.0,1.0,-0.593762048251,0.0335188255255,-10.3716815918,1.0,0.0,0.0,0.0,1.0,0.0,0.0,0.0,1.0
1463662138971594749,739,1463662138946452674,,2.59522819519,0.648105740547,-134.777618408,0.0100469999015,1.0,0.0,0.0,0.0,1.0,0.0,0.0,0.0,1.0,23.2317085266,-1.34146344662,3.29268312454,1.0,0.0,0.0,0.0,1.0,0.0,0.0,0.0,1.0,-0.703895288086,-0.215478149414,-10.2423947021,1.0,0.0,0.0,0.0,1.0,0.0,0.0,0.0,1.0
1463662139005200913,740,1463662138957886743,,2.81570458412,0.608896017075,-134.691192627,0.0100880004466,1.0,0.0,0.0,0.0,1.0,0.0,0.0,0.0,1.0,23.5975627899,-3.59756112099,2.19512200356,1.0,0.0,0.0,0.0,1.0,0.0,0.0,0.0,1.0,-0.478840332031,-0.258573779297,-10.1466266357,1.0,0.0,0.0,0.0,1.0,0.0,0.0,0.0,1.0
1463662139005260505,741,1463662138966923992,,3.05350160599,0.564985096455,-134.631317139,0.0101330000907,1.0,0.0,0.0,0.0,1.0,0.0,0.0,0.0,1.0,24.9390239716,-4.14634132385,-0.426829278469,1.0,0.0,0.0,0.0,1.0,0.0,0.0,0.0,1.0,-0.507570751953,-0.368707055664,-10.6063133545,1.0,0.0,0.0,0.0,1.0,0.0,0.0,0.0,1.0
1463662139005318275,742,1463662138976715834,,3.26968646049,0.519854426384,-134.565643311,0.0100999996066,1.0,0.0,0.0,0.0,1.0,0.0,0.0,0.0,1.0,23.658536911,-5.42682933807,0.243902444839,1.0,0.0,0.0,0.0,1.0,0.0,0.0,0.0,1.0,-0.292092584273,-0.268150604204,-10.6829278076,1.0,0.0,0.0,0.0,1.0,0.0,0.0,0.0,1.0
1463662139005373647,743,1463662138986982695,,3.4988591671,0.471562325954,-134.510940552,0.0100760003552,1.0,0.0,0.0,0.0,1.0,0.0,0.0,0.0,1.0,24.6951236725,-9.08536529541,-0.609756112099,1.0,0.0,0.0,0.0,1.0,0.0,0.0,0.0,1.0,0.325611425781,-0.373495458984,-10.8170031006,1.0,0.0,0.0,0.0,1.0,0.0,0.0,0.0,1.0
1463662139055918305,744,1463662138997821831,,3.70001387596,0.360423356295,-134.445159912,0.0105910003185,1.0,0.0,0.0,0.0,1.0,0.0,0.0,0.0,1.0,24.6951236725,-12.2560977936,0.426829278469,1.0,0.0,0.0,0.0,1.0,0.0,0.0,0.0,1.0,-0.15801730957,0.31124621582,-11.2240173828,1.0,0.0,0.0,0.0,1.0,0.0,0.0,0.0,1.0
1463662139056250282,745,1463662139010507391,,3.9388256073,0.204728633165,-134.364257812,0.0107570001855,1.0,0.0,0.0,0.0,1.0,0.0,0.0,0.0,1.0,26.7682933807,-17.0731716156,2.07317066193,1.0,0.0,0.0,0.0,1.0,0.0,0.0,0.0,1.0,0.00957680664062,0.0430956298828,-10.9941740234,1.0,0.0,0.0,0.0,1.0,0.0,0.0,0.0,1.0
1463662139058727583,746,1463662139016851369,,4.15219163895,0.0812632665038,-134.296951294,0.00895499996841,1.0,0.0,0.0,0.0,1.0,0.0,0.0,0.0,1.0,26.4634151459,-20.1219520569,2.31707310677,1.0,0.0,0.0,0.0,1.0,0.0,0.0,0.0,1.0,0.699106884766,-0.373495458984,-10.7834842773,1.0,0.0,0.0,0.0,1.0,0.0,0.0,0.0,1.0
1463662139059137906,747,1463662139026960290,,4.43402194977,-0.0977179631591,-134.195877075,0.0101110003889,1.0,0.0,0.0,0.0,1.0,0.0,0.0,0.0,1.0,23.5365848541,-21.2195129395,4.93902444839,1.0,0.0,0.0,0.0,1.0,0.0,0.0,0.0,1.0,0.177170922852,-1.69988317871,-10.4099888184,1.0,0.0,0.0,0.0,1.0,0.0,0.0,0.0,1.0
1463662139077590273,748,1463662139037330501,,4.62917995453,-0.285407781601,-134.089263916,0.0100619997829,1.0,0.0,0.0,0.0,1.0,0.0,0.0,0.0,1.0,19.1463432312,-23.3536586761,5.79268312454,1.0,0.0,0.0,0.0,1.0,0.0,0.0,0.0,1.0,0.387860668945,-1.01514150391,-10.6350437744,1.0,0.0,0.0,0.0,1.0,0.0,0.0,0.0,1.0
1463662139077901466,749,1463662139047131302,,4.81598424911,-0.498460680246,-133.984436035,0.0101539995521,1.0,0.0,0.0,0.0,1.0,0.0,0.0,0.0,1.0,18.5365848541,-24.2682933807,5.67073154449,1.0,0.0,0.0,0.0,1.0,0.0,0.0,0.0,1.0,0.0909796630859,-0.995987890625,-10.7547538574,1.0,0.0,0.0,0.0,1.0,0.0,0.0,0.0,1.0
1463662139079034502,750,1463662139057459059,,5.08192014694,-0.884768009186,-133.907043457,0.0102949999273,1.0,0.0,0.0,0.0,1.0,0.0,0.0,0.0,1.0,16.0975608826,-30.4268321991,3.59756112099,1.0,0.0,0.0,0.0,1.0,0.0,0.0,0.0,1.0,-1.71903679199,-2.52827695312,-8.97346782227,1.0,0.0,0.0,0.0,1.0,0.0,0.0,0.0,1.0
1463662139079416382,751,1463662139067321536,,5.18500995636,-1.1824452877,-133.875305176,0.00987899955362,1.0,0.0,0.0,0.0,1.0,0.0,0.0,0.0,1.0,12.5609760284,-33.2926826477,-0.487804889679,1.0,0.0,0.0,0.0,1.0,0.0,0.0,0.0,1.0,-0.143652099609,-0.689530078125,-10.5967365479,1.0,0.0,0.0,0.0,1.0,0.0,0.0,0.0,1.0
1463662139112987281,752,1463662139077751548,,5.34654569626,-1.42878043652,-133.832885742,0.0100919995457,1.0,0.0,0.0,0.0,1.0,0.0,0.0,0.0,1.0,16.6463413239,-30.1829280853,0.304878056049,1.0,0.0,0.0,0.0,1.0,0.0,0.0,0.0,1.0,0.301669427446,-0.972045874023,-10.3429511719,1.0,0.0,0.0,0.0,1.0,0.0,0.0,0.0,1.0
1463662139113337698,753,1463662139088815613,,5.53152179718,-1.84013617039,-133.813781738,0.0109230000526,1.0,0.0,0.0,0.0,1.0,0.0,0.0,0.0,1.0,17.9268302917,-33.9024391174,-1.70731711388,1.0,0.0,0.0,0.0,1.0,0.0,0.0,0.0,1.0,-1.75734401855,-1.05823706072,-11.7938373779,1.0,0.0,0.0,0.0,1.0,0.0,0.0,0.0,1.0
1463662139113656392,754,1463662139097579435,,5.72917890549,-2.10293650627,-133.830215454,0.00926799979061,1.0,0.0,0.0,0.0,1.0,0.0,0.0,0.0,1.0,20.4268302917,-29.6951236725,-5.48780488968,1.0,0.0,0.0,0.0,1.0,0.0,0.0,0.0,1.0,-0.660799658203,-1.16358193377,-9.30865547017,1.0,0.0,0.0,0.0,1.0,0.0,0.0,0.0,1.0
1463662139113953729,755,1463662139107733311,,5.92325496674,-2.43118357658,-133.903442383,0.0100969998166,1.0,0.0,0.0,0.0,1.0,0.0,0.0,0.0,1.0,17.8048782349,-26.6463432312,-11.1585359573,1.0,0.0,0.0,0.0,1.0,0.0,0.0,0.0,1.0,-2.74375510254,-1.69030637207,-12.5743471191,1.0,0.0,0.0,0.0,1.0,0.0,0.0,0.0,1.0
1463662139324803043,756,1463662139118144257,,6.05715322495,-2.77394390106,-134.004058838,0.0101239997894,1.0,0.0,0.0,0.0,1.0,0.0,0.0,0.0,1.0,16.0975608826,-28.9634151459,-13.7195129395,1.0,0.0,0.0,0.0,1.0,0.0,0.0,0.0,1.0,-2.5234885498,-0.679953271484,-12.0093155273,1.0,0.0,0.0,0.0,1.0,0.0,0.0,0.0,1.0
1463662139324857218,757,1463662139128064348,,6.12622308731,-2.92772126198,-134.085037231,0.0101629998535,1.0,0.0,0.0,0.0,1.0,0.0,0.0,0.0,1.0,12.9878053665,-13.5365858078,-13.5365858078,1.0,0.0,0.0,0.0,1.0,0.0,0.0,0.0,1.0,-1.93451494141,-0.00957680664062,-12.6270195557,1.0,0.0,0.0,0.0,1.0,0.0,0.0,0.0,1.0
1463662139325513255,758,1463662139138134252,,6.26049947739,-3.14862823486,-134.206130981,0.0100459996611,1.0,0.0,0.0,0.0,1.0,0.0,0.0,0.0,1.0,18.4146347046,-20.9146347046,-16.7682933807,1.0,0.0,0.0,0.0,1.0,0.0,0.0,0.0,1.0,-2.02070620117,-0.239420166016,-13.1154366943,1.0,0.0,0.0,0.0,1.0,0.0,0.0,0.0,1.0
1463662139325571701,759,1463662139148207960,,6.44899845123,-3.36978697777,-134.400772095,0.0100840004161,1.0,0.0,0.0,0.0,1.0,0.0,0.0,0.0,1.0,21.2195129395,-18.9024391174,-24.0853652954,1.0,0.0,0.0,0.0,1.0,0.0,0.0,0.0,1.0,-2.37025978969,-0.646434448242,-11.3006318359,1.0,0.0,0.0,0.0,1.0,0.0,0.0,0.0,1.0
1463662139325613947,760,1463662139158315735,,6.63452386856,-3.56020832062,-134.636672974,0.0100959995762,1.0,0.0,0.0,0.0,1.0,0.0,0.0,0.0,1.0,20.7317085266,-18.475610733,-28.1707324982,1.0,0.0,0.0,0.0,1.0,0.0,0.0,0.0,1.0,-2.09732050817,-0.699106884766,-12.004527124,1.0,0.0,0.0,0.0,1.0,0.0,0.0,0.0,1.0
1463662139330462491,761,1463662139168461120,,6.84328174591,-3.76098585129,-134.932540894,0.0100889997557,1.0,0.0,0.0,0.0,1.0,0.0,0.0,0.0,1.0,20.3048782349,-19.8780498505,-33.7804870605,1.0,0.0,0.0,0.0,1.0,0.0,0.0,0.0,1.0,-2.14041643031,-1.18273554705,-11.5065331787,1.0,0.0,0.0,0.0,1.0,0.0,0.0,0.0,1.0
1463662139332094873,762,1463662139179140752,,7.03858375549,-3.94093871117,-135.272506714,0.0102700004354,1.0,0.0,0.0,0.0,1.0,0.0,0.0,0.0,1.0,16.8902435303,-19.2073173523,-37.5,1.0,0.0,0.0,0.0,1.0,0.0,0.0,0.0,1.0,-1.89620771484,-1.47961662598,-11.2288057861,1.0,0.0,0.0,0.0,1.0,0.0,0.0,0.0,1.0
1463662139332248750,763,1463662139188606347,,7.19163799286,-4.09702110291,-135.631011963,0.00996300019324,1.0,0.0,0.0,0.0,1.0,0.0,0.0,0.0,1.0,12.8048782349,-18.9024391174,-40.3658561707,1.0,0.0,0.0,0.0,1.0,0.0,0.0,0.0,1.0,-1.70467158203,-1.54186586914,-11.2048637695,1.0,0.0,0.0,0.0,1.0,0.0,0.0,0.0,1.0
1463662139332827171,764,1463662139199179765,,7.30317115784,-4.25258255005,-136.02684021,0.0101229995489,1.0,0.0,0.0,0.0,1.0,0.0,0.0,0.0,1.0,8.04878044128,-18.658536911,-43.4756126404,1.0,0.0,0.0,0.0,1.0,0.0,0.0,0.0,1.0,-1.76213242187,-1.53707746582,-10.8313683105,1.0,0.0,0.0,0.0,1.0,0.0,0.0,0.0,1.0
1463662139332884836,765,1463662139209118609,,7.38087558746,-4.40564823151,-136.448623657,0.0100889997557,1.0,0.0,0.0,0.0,1.0,0.0,0.0,0.0,1.0,2.92682933807,-18.7195110321,-46.0365867615,1.0,0.0,0.0,0.0,1.0,0.0,0.0,0.0,1.0,-1.82438166504,-1.85311208496,-10.8122146973,1.0,0.0,0.0,0.0,1.0,0.0,0.0,0.0,1.0
1463662139333225304,766,1463662139219555965,,7.40379667282,-4.56157016754,-136.897033691,0.0100999996066,1.0,0.0,0.0,0.0,1.0,0.0,0.0,0.0,1.0,-3.35365867615,-17.5000019073,-48.7195129395,1.0,0.0,0.0,0.0,1.0,0.0,0.0,0.0,1.0,-2.14520483363,-1.90099611816,-10.3908352051,1.0,0.0,0.0,0.0,1.0,0.0,0.0,0.0,1.0
1463662139333506909,767,1463662139229803449,,7.38123655319,-4.6966509819,-137.378494263,0.0100819999352,1.0,0.0,0.0,0.0,1.0,0.0,0.0,0.0,1.0,-9.02439117432,-15.548781395,-52.2560997009,1.0,0.0,0.0,0.0,1.0,0.0,0.0,0.0,1.0,-2.25054956055,-2.05901342773,-10.3956236084,1.0,0.0,0.0,0.0,1.0,0.0,0.0,0.0,1.0
1463662139333810184,768,1463662139239670406,,7.28655099869,-4.82687425613,-137.89692688,0.0101209999993,1.0,0.0,0.0,0.0,1.0,0.0,0.0,0.0,1.0,-14.6341466904,-13.841463089,-56.0975608826,1.0,0.0,0.0,0.0,1.0,0.0,0.0,0.0,1.0,-2.62404501953,-1.71424838867,-10.5680061279,1.0,0.0,0.0,0.0,1.0,0.0,0.0,0.0,1.0
1463662139334128305,769,1463662139249853922,,7.16451263428,-4.90778541565,-138.464508057,0.0100769996643,1.0,0.0,0.0,0.0,1.0,0.0,0.0,0.0,1.0,-16.4634151459,-10.2439022064,-61.7682952881,1.0,0.0,0.0,0.0,1.0,0.0,0.0,0.0,1.0,-2.53785375977,-1.42694418945,-10.6925046143,1.0,0.0,0.0,0.0,1.0,0.0,0.0,0.0,1.0
1463662139334626036,770,1463662139259801881,,7.02391052246,-4.97331619263,-139.078781128,0.0101229995489,1.0,0.0,0.0,0.0,1.0,0.0,0.0,0.0,1.0,-17.2560977936,-7.98780536652,-66.5243911743,1.0,0.0,0.0,0.0,1.0,0.0,0.0,0.0,1.0,-2.83952316895,-1.14442839355,-10.927136377,1.0,0.0,0.0,0.0,1.0,0.0,0.0,0.0,1.0
1463662139334683701,771,1463662139270344045,,6.8865480423,-4.99324321747,-139.745223999,0.0100910002366,1.0,0.0,0.0,0.0,1.0,0.0,0.0,0.0,1.0,-17.317073822,-3.41463422775,-72.4390258789,1.0,0.0,0.0,0.0,1.0,0.0,0.0,0.0,1.0,-2.95444484863,-1.07260241682,-10.8361567139,1.0,0.0,0.0,0.0,1.0,0.0,0.0,0.0,1.0
1463662139335054746,772,1463662139279986542,,6.76251602173,-4.96893262863,-140.468582153,0.010098000057,1.0,0.0,0.0,0.0,1.0,0.0,0.0,0.0,1.0,-16.7073173523,1.2195122242,-78.5365829468,1.0,0.0,0.0,0.0,1.0,0.0,0.0,0.0,1.0,-3.12203896484,-1.09175595703,-10.8217915039,1.0,0.0,0.0,0.0,1.0,0.0,0.0,0.0,1.0
1463662139335327704,773,1463662139290590329,,6.64797306061,-4.89639949799,-141.248504639,0.0101110003889,1.0,0.0,0.0,0.0,1.0,0.0,0.0,0.0,1.0,-16.341463089,5.18292713165,-84.4512176514,1.0,0.0,0.0,0.0,1.0,0.0,0.0,0.0,1.0,-3.03584770508,-1.09654436035,-10.7499654541,1.0,0.0,0.0,0.0,1.0,0.0,0.0,0.0,1.0
1463662139335592171,774,1463662139300587879,,6.53103971481,-4.77220058441,-142.068710327,0.0101389996707,1.0,0.0,0.0,0.0,1.0,0.0,0.0,0.0,1.0,-15.548781395,9.02439117432,-88.7195129395,1.0,0.0,0.0,0.0,1.0,0.0,0.0,0.0,1.0,-2.77727392578,-0.828393774414,-10.5823713379,1.0,0.0,0.0,0.0,1.0,0.0,0.0,0.0,1.0
1463662139492068177,775,1463662139309898711,,6.41484022141,-4.61448383331,-142.924102783,0.0100819999352,1.0,0.0,0.0,0.0,1.0,0.0,0.0,0.0,1.0,-14.8170728683,12.1341466904,-93.0487823486,1.0,0.0,0.0,0.0,1.0,0.0,0.0,0.0,1.0,-2.77248552246,-0.646434448242,-10.658985791,1.0,0.0,0.0,0.0,1.0,0.0,0.0,0.0,1.0
1463662139492328529,776,1463662139320068527,,6.32647371292,-4.41903162003,-143.838607788,0.0103500001132,1.0,0.0,0.0,0.0,1.0,0.0,0.0,0.0,1.0,-12.8048782349,15.0609760284,-96.7682952881,1.0,0.0,0.0,0.0,1.0,0.0,0.0,0.0,1.0,-2.74854350586,-0.818816967773,-10.7308118408,1.0,0.0,0.0,0.0,1.0,0.0,0.0,0.0,1.0
1463662139492601122,777,1463662139330565580,,6.25235366821,-4.19406652451,-144.738586426,0.00991600006819,1.0,0.0,0.0,0.0,1.0,0.0,0.0,0.0,1.0,-12.3170728683,18.4146347046,-99.4512252808,1.0,0.0,0.0,0.0,1.0,0.0,0.0,0.0,1.0,-2.63362182617,-0.938527050781,-10.6637741943,1.0,0.0,0.0,0.0,1.0,0.0,0.0,0.0,1.0
1463662139492879081,778,1463662139340051021,,6.16914606094,-3.93611192703,-145.654632568,0.00999999977648,1.0,0.0,0.0,0.0,1.0,0.0,0.0,0.0,1.0,-13.048781395,21.0975627899,-100.548782349,1.0,0.0,0.0,0.0,1.0,0.0,0.0,0.0,1.0,-2.52827695312,-0.976834277344,-10.7882726807,1.0,0.0,0.0,0.0,1.0,0.0,0.0,0.0,1.0
1463662139494055404,779,1463662139350855516,,6.07110786438,-3.6490240097,-146.58605957,0.0101399999112,1.0,0.0,0.0,0.0,1.0,0.0,0.0,0.0,1.0,-14.4512205124,23.9024391174,-101.036590576,1.0,0.0,0.0,0.0,1.0,0.0,0.0,0.0,1.0,-2.43250888672,-1.01992990723,-10.4387192383,1.0,0.0,0.0,0.0,1.0,0.0,0.0,0.0,1.0
1463662139494462862,780,1463662139360842283,,5.96009778976,-3.34694170952,-147.507614136,0.0100809996948,1.0,0.0,0.0,0.0,1.0,0.0,0.0,0.0,1.0,-15.9146347046,25.975610733,-100.731704712,1.0,0.0,0.0,0.0,1.0,0.0,0.0,0.0,1.0,-2.37025978969,-1.09654436035,-10.2232410889,1.0,0.0,0.0,0.0,1.0,0.0,0.0,0.0,1.0
1463662139494723787,781,1463662139370383619,,5.82104825974,-3.01862931252,-148.432907104,0.0100849997252,1.0,0.0,0.0,0.0,1.0,0.0,0.0,0.0,1.0,-16.8292694092,27.8048782349,-101.280487061,1.0,0.0,0.0,0.0,1.0,0.0,0.0,0.0,1.0,-2.2170307373,-0.852335791016,-10.6302553711,1.0,0.0,0.0,0.0,1.0,0.0,0.0,0.0,1.0
1463662139495003829,782,1463662139380709344,,5.6867108345,-2.68491983414,-149.35836792,0.0100849997252,1.0,0.0,0.0,0.0,1.0,0.0,0.0,0.0,1.0,-15.7317075729,29.5731697083,-101.402442932,1.0,0.0,0.0,0.0,1.0,0.0,0.0,0.0,1.0,-2.32237546422,-0.794874951172,-10.4866032715,1.0,0.0,0.0,0.0,1.0,0.0,0.0,0.0,1.0
1463662139495280120,783,1463662139391332769,,5.54833936691,-2.33490729332,-150.295211792,0.0102249998599,1.0,0.0,0.0,0.0,1.0,0.0,0.0,0.0,1.0,-15.2439022064,30.6097583771,-101.280487061,1.0,0.0,0.0,0.0,1.0,0.0,0.0,0.0,1.0,-2.23139594727,-0.756567724609,-10.6829278076,1.0,0.0,0.0,0.0,1.0,0.0,0.0,0.0,1.0
1463662139495540368,784,1463662139402328751,,5.41874551773,-1.98415410519,-151.210968018,0.0100090000778,1.0,0.0,0.0,0.0,1.0,0.0,0.0,0.0,1.0,-14.5731706619,31.8292694092,-101.158538818,1.0,0.0,0.0,0.0,1.0,0.0,0.0,0.0,1.0,-2.17393510742,-0.814028564453,-10.5632177246,1.0,0.0,0.0,0.0,1.0,0.0,0.0,0.0,1.0
1463662139495799626,785,1463662139410945364,,5.30214500427,-1.6182141304,-152.147796631,0.0100779999048,1.0,0.0,0.0,0.0,1.0,0.0,0.0,0.0,1.0,-13.7804880142,31.8902454376,-102.500007629,1.0,0.0,0.0,0.0,1.0,0.0,0.0,0.0,1.0,-1.89141931152,-1.01992990723,-10.7451770508,1.0,0.0,0.0,0.0,1.0,0.0,0.0,0.0,1.0
1463662139496083262,786,1463662139421969736,,5.17783069611,-1.24240875244,-153.116333008,0.0102249998599,1.0,0.0,0.0,0.0,1.0,0.0,0.0,0.0,1.0,-13.1097564697,31.2804889679,-104.146339417,1.0,0.0,0.0,0.0,1.0,0.0,0.0,0.0,1.0,-1.57538469238,-0.847547387695,-10.5632177246,1.0,0.0,0.0,0.0,1.0,0.0,0.0,0.0,1.0
1463662139496353616,787,1463662139431383344,,5.04749202728,-0.892301440239,-154.083312988,0.0099849998951,1.0,0.0,0.0,0.0,1.0,0.0,0.0,0.0,1.0,-11.1585359573,29.8780498505,-106.097564697,1.0,0.0,0.0,0.0,1.0,0.0,0.0,0.0,1.0,-1.57059628906,-0.397437475586,-10.7068698242,1.0,0.0,0.0,0.0,1.0,0.0,0.0,0.0,1.0
1463662139496624803,788,1463662139441257386,,4.95595788956,-0.557329118252,-155.087081909,0.0100880004466,1.0,0.0,0.0,0.0,1.0,0.0,0.0,0.0,1.0,-8.17073154449,27.4390258789,-108.414642334,1.0,0.0,0.0,0.0,1.0,0.0,0.0,0.0,1.0,-1.40300217285,-0.670376464844,-10.7451770508,1.0,0.0,0.0,0.0,1.0,0.0,0.0,0.0,1.0
1463662139496878278,789,1463662139451515757,,4.88825464249,-0.248759791255,-156.114105225,0.0101479999721,1.0,0.0,0.0,0.0,1.0,0.0,0.0,0.0,1.0,-7.50000047684,25.6707324982,-109.878051758,1.0,0.0,0.0,0.0,1.0,0.0,0.0,0.0,1.0,-1.53707746582,-1.08696755371,-10.7020814209,1.0,0.0,0.0,0.0,1.0,0.0,0.0,0.0,1.0
1463662139497139516,790,1463662139461846482,,4.81982326508,0.0404050536454,-157.145278931,0.0100959995762,1.0,0.0,0.0,0.0,1.0,0.0,0.0,0.0,1.0,-8.84146404266,23.9024391174,-110.609764099,1.0,0.0,0.0,0.0,1.0,0.0,0.0,0.0,1.0,-1.44130939941,-1.38384855957,-10.4770264648,1.0,0.0,0.0,0.0,1.0,0.0,0.0,0.0,1.0
1463662139546060960,791,1463662139483026084,,4.57284545898,0.554171323776,-159.235473633,0.0205639991909,1.0,0.0,0.0,0.0,1.0,0.0,0.0,0.0,1.0,-13.9024391174,21.0975627899,-109.817077637,1.0,0.0,0.0,0.0,1.0,0.0,0.0,0.0,1.0,-1.38863696289,-1.37427175293,-9.76834277344,1.0,0.0,0.0,0.0,1.0,0.0,0.0,0.0,1.0
1463662139546442944,792,1463662139485877400,,4.53314733505,0.629977762699,-159.557556152,0.00315800006501,1.0,0.0,0.0,0.0,1.0,0.0,0.0,0.0,1.0,-14.2682924271,20.9146347046,-110.060974121,1.0,0.0,0.0,0.0,1.0,0.0,0.0,0.0,1.0,-1.41257897949,-1.40300217285,-9.86411083984,1.0,0.0,0.0,0.0,1.0,0.0,0.0,0.0,1.0
1463662139546726737,793,1463662139492661705,,4.44423389435,0.779421508312,-160.230712891,0.00658599985763,1.0,0.0,0.0,0.0,1.0,0.0,0.0,0.0,1.0,-15.6707315445,19.9390239716,-110.182929993,1.0,0.0,0.0,0.0,1.0,0.0,0.0,0.0,1.0,-1.42215578613,-1.49398183594,-9.70609353027,1.0,0.0,0.0,0.0,1.0,0.0,0.0,0.0,1.0
1463662139547028449,794,1463662139502185069,,4.28054523468,1.00324785709,-161.256698608,0.010045000352,1.0,0.0,0.0,0.0,1.0,0.0,0.0,0.0,1.0,-18.3536586761,18.4146347046,-109.939025879,1.0,0.0,0.0,0.0,1.0,0.0,0.0,0.0,1.0,-1.11090957031,-1.45567460937,-9.32780908345,1.0,0.0,0.0,0.0,1.0,0.0,0.0,0.0,1.0
1463662139557009695,795,1463662139512033377,,4.06746244431,1.21413195133,-162.29473877,0.010111999698,1.0,0.0,0.0,0.0,1.0,0.0,0.0,0.0,1.0,-20.2439022064,16.5243911743,-110.182929993,1.0,0.0,0.0,0.0,1.0,0.0,0.0,0.0,1.0,-0.948103857422,-1.01992990723,-9.45230756977,1.0,0.0,0.0,0.0,1.0,0.0,0.0,0.0,1.0
1463662139557334744,796,1463662139523689980,,3.85450053215,1.40292418003,-163.341049194,0.0100840004161,1.0,0.0,0.0,0.0,1.0,0.0,0.0,0.0,1.0,-20.4878044128,13.4756097794,-110.975616455,1.0,0.0,0.0,0.0,1.0,0.0,0.0,0.0,1.0,-0.694318481445,-1.06781401349,-9.33259748677,1.0,0.0,0.0,0.0,1.0,0.0,0.0,0.0,1.0
1463662139557617443,797,1463662139533600069,,3.63746786118,1.55903601646,-164.416122437,0.0102180000395,1.0,0.0,0.0,0.0,1.0,0.0,0.0,0.0,1.0,-21.2804889679,10.9756097794,-112.195121765,1.0,0.0,0.0,0.0,1.0,0.0,0.0,0.0,1.0,-0.76135612793,-1.1875240965,-9.20809958496,1.0,0.0,0.0,0.0,1.0,0.0,0.0,0.0,1.0
1463662139557897746,798,1463662139544533802,,3.41289639473,1.68612825871,-165.483840942,0.0100060002878,1.0,0.0,0.0,0.0,1.0,0.0,0.0,0.0,1.0,-22.0121955872,8.04878044128,-113.414634705,1.0,0.0,0.0,0.0,1.0,0.0,0.0,0.0,1.0,-0.622492431641,-1.12048637695,-9.18894597168,1.0,0.0,0.0,0.0,1.0,0.0,0.0,0.0,1.0
1463662139621513074,799,1463662139552601009,,3.18250179291,1.78620564938,-166.609970093,0.0102789998055,1.0,0.0,0.0,0.0,1.0,0.0,0.0,0.0,1.0,-21.8902435303,5.48780488968,-116.036582947,1.0,0.0,0.0,0.0,1.0,0.0,0.0,0.0,1.0,-0.632069238281,-1.13006318359,-9.28950185688,1.0,0.0,0.0,0.0,1.0,0.0,0.0,0.0,1.0
1463662139621835518,800,1463662139562226889,,2.95805215836,1.84998750687,-167.714111328,0.00992299988866,1.0,0.0,0.0,0.0,1.0,0.0,0.0,0.0,1.0,-21.5853652954,2.31707310677,-117.500007629,1.0,0.0,0.0,0.0,1.0,0.0,0.0,0.0,1.0,-0.569819995117,-1.02471831055,-9.14106193848,1.0,0.0,0.0,0.0,1.0,0.0,0.0,0.0,1.0
1463662139622172548,801,1463662139574020856,,2.72018194199,1.88569676876,-168.860427856,0.0100969998166,1.0,0.0,0.0,0.0,1.0,0.0,0.0,0.0,1.0,-21.5243911743,-0.914634168148,-119.512199402,1.0,0.0,0.0,0.0,1.0,0.0,0.0,0.0,1.0,-0.45489831543,-0.866701000977,-9.2942902602,1.0,0.0,0.0,0.0,1.0,0.0,0.0,0.0,1.0
1463662139622476917,802,1463662139582387118,,2.48645544052,1.89104783535,-170.025894165,0.0101140001789,1.0,0.0,0.0,0.0,1.0,0.0,0.0,0.0,1.0,-20.8536586761,-5.06097555161,-120.975608826,1.0,0.0,0.0,0.0,1.0,0.0,0.0,0.0,1.0,-0.191536132812,-0.790086547852,-9.10754311523,1.0,0.0,0.0,0.0,1.0,0.0,0.0,0.0,1.0
1463662139640241160,803,1463662139592429935,,2.25043463707,1.84629130363,-171.204574585,0.0100830001757,1.0,0.0,0.0,0.0,1.0,0.0,0.0,0.0,1.0,-21.0365848541,-9.26829242706,-122.439033508,1.0,0.0,0.0,0.0,1.0,0.0,0.0,0.0,1.0,-0.253785375977,-0.751779321289,-9.29907866352,1.0,0.0,0.0,0.0,1.0,0.0,0.0,0.0,1.0
1463662139640609809,804,1463662139603242400,,2.01820111275,1.74836933613,-172.394790649,0.0101030003279,1.0,0.0,0.0,0.0,1.0,0.0,0.0,0.0,1.0,-20.7926826477,-14.1463422775,-123.17073822,1.0,0.0,0.0,0.0,1.0,0.0,0.0,0.0,1.0,-0.253785375977,-0.732625708008,-9.41878874653,1.0,0.0,0.0,0.0,1.0,0.0,0.0,0.0,1.0
1463662139640925117,805,1463662139612579538,,1.80164086819,1.60972952843,-173.604492188,0.0100999996066,1.0,0.0,0.0,0.0,1.0,0.0,0.0,0.0,1.0,-20.3658542633,-17.6829280853,-125.06098175,1.0,0.0,0.0,0.0,1.0,0.0,0.0,0.0,1.0,-0.292092584273,-0.861912597656,-9.5432884019,1.0,0.0,0.0,0.0,1.0,0.0,0.0,0.0,1.0
1463662139641204535,806,1463662139623280632,,1.57547497749,1.41409218311,-174.889068604,0.0106779998168,1.0,0.0,0.0,0.0,1.0,0.0,0.0,0.0,1.0,-20.1219520569,-22.1951236725,-125.487808228,1.0,0.0,0.0,0.0,1.0,0.0,0.0,0.0,1.0,-0.253785375977,-0.77093293457,-9.53849999858,1.0,0.0,0.0,0.0,1.0,0.0,0.0,0.0,1.0
1463662139697016810,807,1463662139633926613,,1.37501788139,1.20884943008,-176.046188354,0.00953099969774,1.0,0.0,0.0,0.0,1.0,0.0,0.0,0.0,1.0,-20.1219520569,-26.4024391174,-126.524391174,1.0,0.0,0.0,0.0,1.0,0.0,0.0,0.0,1.0,-0.0478840332031,-0.689530078125,-9.5193463853,1.0,0.0,0.0,0.0,1.0,0.0,0.0,0.0,1.0
1463662139697310917,808,1463662139642921617,,1.17305731773,0.944771289825,-177.270675659,0.010098000057,1.0,0.0,0.0,0.0,1.0,0.0,0.0,0.0,1.0,-18.841463089,-30.6097583771,-126.341461182,1.0,0.0,0.0,0.0,1.0,0.0,0.0,0.0,1.0,-0.076614453125,-0.512359155273,-9.21288798828,1.0,0.0,0.0,0.0,1.0,0.0,0.0,0.0,1.0
1463662139697569029,809,1463662139654141903,,0.989111840725,0.625935792923,-178.510681152,0.0101910000667,1.0,0.0,0.0,0.0,1.0,0.0,0.0,0.0,1.0,-17.8658542633,-34.817073822,-126.768295288,1.0,0.0,0.0,0.0,1.0,0.0,0.0,0.0,1.0,-0.210689746094,-0.550666381836,-9.39963513325,1.0,0.0,0.0,0.0,1.0,0.0,0.0,0.0,1.0
1463662139697901527,810,1463662139664947596,,0.789525806904,0.228278785944,-179.828903198,0.0108570000157,1.0,0.0,0.0,0.0,1.0,0.0,0.0,0.0,1.0,-17.5609760284,-39.0853652954,-126.524391174,1.0,0.0,0.0,0.0,1.0,0.0,0.0,0.0,1.0,-0.373495458984,-0.287304199219,-9.39005832661,1.0,0.0,0.0,0.0,1.0,0.0,0.0,0.0,1.0
1463662139717157714,811,1463662139674384385,,0.614916622639,-0.190975770354,178.921127319,0.0102479998022,1.0,0.0,0.0,0.0,1.0,0.0,0.0,0.0,1.0,-13.3536586761,-42.0731697083,-127.134147644,1.0,0.0,0.0,0.0,1.0,0.0,0.0,0.0,1.0,-0.598550451572,0.368707055664,-9.50019277202,1.0,0.0,0.0,0.0,1.0,0.0,0.0,0.0,1.0
1463662139717412335,812,1463662139683807786,,0.512324690819,-0.603906333447,177.753417969,0.00954699981958,1.0,0.0,0.0,0.0,1.0,0.0,0.0,0.0,1.0,-8.65853691101,-43.7195129395,-127.56098175,1.0,0.0,0.0,0.0,1.0,0.0,0.0,0.0,1.0,-0.737414111328,0.277727392578,-9.50019277202,1.0,0.0,0.0,0.0,1.0,0.0,0.0,0.0,1.0
1463662139717678886,813,1463662139694173881,,0.457092732191,-1.0252661705,176.594512939,0.00966699980199,1.0,0.0,0.0,0.0,1.0,0.0,0.0,0.0,1.0,-5.24390268326,-45.3048782349,-125.182922363,1.0,0.0,0.0,0.0,1.0,0.0,0.0,0.0,1.0,-0.555454785156,0.162805712891,-9.36611631001,1.0,0.0,0.0,0.0,1.0,0.0,0.0,0.0,1.0
1463662139718017948,814,1463662139704867838,,0.436188817024,-1.48711371422,175.375595093,0.0104499999434,1.0,0.0,0.0,0.0,1.0,0.0,0.0,0.0,1.0,-3.47560977936,-47.0121994019,-121.951217651,1.0,0.0,0.0,0.0,1.0,0.0,0.0,0.0,1.0,-0.416591088867,-0.00957680664062,-9.17458076172,1.0,0.0,0.0,0.0,1.0,0.0,0.0,0.0,1.0
1463662139771936656,815,1463662139715014265,,0.447120845318,-1.94946599007,174.222442627,0.0102890003473,1.0,0.0,0.0,0.0,1.0,0.0,0.0,0.0,1.0,-3.53658556938,-49.5121955872,-117.317077637,1.0,0.0,0.0,0.0,1.0,0.0,0.0,0.0,1.0,-0.186747729492,-0.359130249023,-8.60954975444,1.0,0.0,0.0,0.0,1.0,0.0,0.0,0.0,1.0
1463662139772275093,816,1463662139724364791,,0.491057783365,-2.42502117157,173.123535156,0.0101439999416,1.0,0.0,0.0,0.0,1.0,0.0,0.0,0.0,1.0,-3.65853667259,-52.3780517578,-113.414634705,1.0,0.0,0.0,0.0,1.0,0.0,0.0,0.0,1.0,-0.119710083008,-0.76135612793,-8.60954975444,1.0,0.0,0.0,0.0,1.0,0.0,0.0,0.0,1.0
1463662139772602903,817,1463662139733891332,,0.521435141563,-2.88685154915,172.117538452,0.00951999984682,1.0,0.0,0.0,0.0,1.0,0.0,0.0,0.0,1.0,-3.53658556938,-54.817073822,-110.731704712,1.0,0.0,0.0,0.0,1.0,0.0,0.0,0.0,1.0,-0.076614453125,-0.45968671875,-8.62870336773,1.0,0.0,0.0,0.0,1.0,0.0,0.0,0.0,1.0
1463662139772958842,818,1463662139743934983,,0.553522229195,-3.40257668495,171.094238281,0.0100959995762,1.0,0.0,0.0,0.0,1.0,0.0,0.0,0.0,1.0,-2.86585378647,-57.134147644,-106.402442932,1.0,0.0,0.0,0.0,1.0,0.0,0.0,0.0,1.0,-0.191536132812,-0.263362164351,-8.77235488281,1.0,0.0,0.0,0.0,1.0,0.0,0.0,0.0,1.0
1463662139797829521,819,1463662139754142357,,0.584439396858,-3.94665026665,170.093307495,0.010095000267,1.0,0.0,0.0,0.0,1.0,0.0,0.0,0.0,1.0,-2.07317066193,-58.3536605835,-104.207321167,1.0,0.0,0.0,0.0,1.0,0.0,0.0,0.0,1.0,-0.526724328702,-0.00478840332031,-8.82502731934,1.0,0.0,0.0,0.0,1.0,0.0,0.0,0.0,1.0
1463662139798177022,820,1463662139764731350,,0.642083823681,-4.55070257187,169.105987549,0.010377000086,1.0,0.0,0.0,0.0,1.0,0.0,0.0,0.0,1.0,-0.853658556938,-61.0975608826,-100.060974121,1.0,0.0,0.0,0.0,1.0,0.0,0.0,0.0,1.0,-0.905008227539,-0.105344873047,-9.25119521484,1.0,0.0,0.0,0.0,1.0,0.0,0.0,0.0,1.0
1463662139798466649,821,1463662139775019309,,0.706674098969,-5.10773944855,168.199569702,0.00985100027174,1.0,0.0,0.0,0.0,1.0,0.0,0.0,0.0,1.0,0.304878056049,-60.9756088257,-96.8902511597,1.0,0.0,0.0,0.0,1.0,0.0,0.0,0.0,1.0,-0.727837304687,0.0239420166016,-8.85375773926,1.0,0.0,0.0,0.0,1.0,0.0,0.0,0.0,1.0
1463662139798759349,822,1463662139784341080,,0.79230684042,-5.68571805954,167.296569824,0.0100819999352,1.0,0.0,0.0,0.0,1.0,0.0,0.0,0.0,1.0,1.09756100178,-61.6463394165,-94.2682952881,1.0,0.0,0.0,0.0,1.0,0.0,0.0,0.0,1.0,-0.881066210937,-0.0622492431641,-9.2176763916,1.0,0.0,0.0,0.0,1.0,0.0,0.0,0.0,1.0
1463662139833909861,823,1463662139794867356,,0.891467154026,-6.29589319229,166.39894104,0.0104000000283,1.0,0.0,0.0,0.0,1.0,0.0,0.0,0.0,1.0,2.13414645195,-62.5609779358,-90.9146347046,1.0,0.0,0.0,0.0,1.0,0.0,0.0,0.0,1.0,-1.06781401349,0.0191536132812,-9.27034882812,1.0,0.0,0.0,0.0,1.0,0.0,0.0,0.0,1.0
1463662139834258716,824,1463662139805381494,,0.996543228626,-6.84385824203,165.585906982,0.00980999972671,1.0,0.0,0.0,0.0,1.0,0.0,0.0,0.0,1.0,2.43902444839,-60.9146347046,-87.3170776367,1.0,0.0,0.0,0.0,1.0,0.0,0.0,0.0,1.0,-0.976834277344,-0.0622492431641,-9.14106193848,1.0,0.0,0.0,0.0,1.0,0.0,0.0,0.0,1.0
1463662139834541519,825,1463662139814819325,,1.11685526371,-7.41372013092,164.793899536,0.0100889997557,1.0,0.0,0.0,0.0,1.0,0.0,0.0,0.0,1.0,2.01219511032,-61.4634132385,-82.6219482422,1.0,0.0,0.0,0.0,1.0,0.0,0.0,0.0,1.0,-1.09654436035,-0.3064578125,-9.18415756836,1.0,0.0,0.0,0.0,1.0,0.0,0.0,0.0,1.0
1463662139834837241,826,1463662139825618089,,1.22978508472,-7.95855998993,164.040145874,0.0101629998535,1.0,0.0,0.0,0.0,1.0,0.0,0.0,0.0,1.0,0.426829278469,-61.5853691101,-78.0487823486,1.0,0.0,0.0,0.0,1.0,0.0,0.0,0.0,1.0,-0.699106884766,-0.416591088867,-9.04529387207,1.0,0.0,0.0,0.0,1.0,0.0,0.0,0.0,1.0
1463662139890475167,827,1463662139835456188,,1.33313524723,-8.53102588654,163.302200317,0.0106060001999,1.0,0.0,0.0,0.0,1.0,0.0,0.0,0.0,1.0,-1.52439022064,-61.7682952881,-73.2317123413,1.0,0.0,0.0,0.0,1.0,0.0,0.0,0.0,1.0,-0.837970581055,-0.531512805087,-9.23683000488,1.0,0.0,0.0,0.0,1.0,0.0,0.0,0.0,1.0
1463662139890795632,828,1463662139845012110,,1.40722227097,-9.06381797791,162.670471191,0.00960399955511,1.0,0.0,0.0,0.0,1.0,0.0,0.0,0.0,1.0,-3.65853667259,-62.5,-69.2682952881,1.0,0.0,0.0,0.0,1.0,0.0,0.0,0.0,1.0,-1.10133276367,-0.574608398438,-9.59117243511,1.0,0.0,0.0,0.0,1.0,0.0,0.0,0.0,1.0
1463662139891121827,829,1463662139855091547,,1.4450327158,-9.62367916107,162.045928955,0.0100419996306,1.0,0.0,0.0,0.0,1.0,0.0,0.0,0.0,1.0,-6.09756088257,-61.2804870605,-65.8536605835,1.0,0.0,0.0,0.0,1.0,0.0,0.0,0.0,1.0,-1.49398183594,-0.330399829102,-9.90720646973,1.0,0.0,0.0,0.0,1.0,0.0,0.0,0.0,1.0
1463662139891446303,830,1463662139865488585,,1.47608923912,-10.1944227219,161.429244995,0.0103519996628,1.0,0.0,0.0,0.0,1.0,0.0,0.0,0.0,1.0,-6.7682929039,-59.5121994019,-63.2317123413,1.0,0.0,0.0,0.0,1.0,0.0,0.0,0.0,1.0,-1.7908628418,-0.292092584273,-9.88326445312,1.0,0.0,0.0,0.0,1.0,0.0,0.0,0.0,1.0
1463662139913361798,831,1463662139877434918,,1.50088381767,-10.7677659988,160.81477356,0.0109400004148,1.0,0.0,0.0,0.0,1.0,0.0,0.0,0.0,1.0,-7.86585378647,-57.1951217651,-59.7560997009,1.0,0.0,0.0,0.0,1.0,0.0,0.0,0.0,1.0,-1.85311208496,-0.378283862305,-10.1274730225,1.0,0.0,0.0,0.0,1.0,0.0,0.0,0.0,1.0
1463662139913675126,832,1463662139886222755,,1.51631641388,-11.2397613525,160.290527344,0.00982899963856,1.0,0.0,0.0,0.0,1.0,0.0,0.0,0.0,1.0,-9.20731735229,-53.9634170532,-56.8292694092,1.0,0.0,0.0,0.0,1.0,0.0,0.0,0.0,1.0,-1.74776721191,-0.512359155273,-10.2040874756,1.0,0.0,0.0,0.0,1.0,0.0,0.0,0.0,1.0
1463662139914052996,833,1463662139896578536,,1.51548373699,-11.6689014435,159.831100464,0.00928699970245,1.0,0.0,0.0,0.0,1.0,0.0,0.0,0.0,1.0,-11.8902444839,-51.7073173523,-52.7439041138,1.0,0.0,0.0,0.0,1.0,0.0,0.0,0.0,1.0,-1.86747729492,-0.76135612793,-10.0317049561,1.0,0.0,0.0,0.0,1.0,0.0,0.0,0.0,1.0
1463662139914373357,834,1463662139907321303,,1.47208464146,-12.1329956055,159.335739136,0.0107770003378,1.0,0.0,0.0,0.0,1.0,0.0,0.0,0.0,1.0,-15.6707315445,-47.3780517578,-49.3292694092,1.0,0.0,0.0,0.0,1.0,0.0,0.0,0.0,1.0,-2.15957004359,-0.804451757813,-10.1035310059,1.0,0.0,0.0,0.0,1.0,0.0,0.0,0.0,1.0
1463662139980180786,835,1463662139916683549,,1.40958464146,-12.5124607086,158.927337646,0.00950300041586,1.0,0.0,0.0,0.0,1.0,0.0,0.0,0.0,1.0,-18.9634151459,-44.3292694092,-46.2195129395,1.0,0.0,0.0,0.0,1.0,0.0,0.0,0.0,1.0,-2.23139594727,-1.00556469727,-10.2088758789,1.0,0.0,0.0,0.0,1.0,0.0,0.0,0.0,1.0
1463662139982449045,836,1463662139926366572,,1.26990687847,-12.8864622116,158.511749268,0.0105590000749,1.0,0.0,0.0,0.0,1.0,0.0,0.0,0.0,1.0,-23.2317085266,-39.3292694092,-43.2317085266,1.0,0.0,0.0,0.0,1.0,0.0,0.0,0.0,1.0,-2.35110588414,-0.636857641602,-10.1466266357,1.0,0.0,0.0,0.0,1.0,0.0,0.0,0.0,1.0
1463662139982882756,837,1463662139936557120,,1.11830687523,-13.1916007996,158.143814087,0.00970899965614,1.0,0.0,0.0,0.0,1.0,0.0,0.0,0.0,1.0,-24.8780498505,-35.1219520569,-42.0731697083,1.0,0.0,0.0,0.0,1.0,0.0,0.0,0.0,1.0,-2.53785375977,-0.512359155273,-10.5632177246,1.0,0.0,0.0,0.0,1.0,0.0,0.0,0.0,1.0
1463662139983256354,838,1463662139946017298,,0.960802137852,-13.4505844116,157.775253296,0.00997100025415,1.0,0.0,0.0,0.0,1.0,0.0,0.0,0.0,1.0,-25.9146347046,-29.6341457367,-41.0975646973,1.0,0.0,0.0,0.0,1.0,0.0,0.0,0.0,1.0,-2.52827695312,-0.646434448242,-10.3477395752,1.0,0.0,0.0,0.0,1.0,0.0,0.0,0.0,1.0
1463662139997209606,839,1463662139956981140,,0.784575462341,-13.6661128998,157.405334473,0.0100769996643,1.0,0.0,0.0,0.0,1.0,0.0,0.0,0.0,1.0,-27.682926178,-23.7804889679,-40.9756088257,1.0,0.0,0.0,0.0,1.0,0.0,0.0,0.0,1.0,-2.80121594238,-0.61770402832,-10.3381627686,1.0,0.0,0.0,0.0,1.0,0.0,0.0,0.0,1.0
1463662139999282783,840,1463662139966679374,,0.595017790794,-13.824848175,157.02532959,0.0104289995506,1.0,0.0,0.0,0.0,1.0,0.0,0.0,0.0,1.0,-28.475610733,-18.2926826477,-40.7926826477,1.0,0.0,0.0,0.0,1.0,0.0,0.0,0.0,1.0,-2.68150585937,-0.593762048251,-10.3190091553,1.0,0.0,0.0,0.0,1.0,0.0,0.0,0.0,1.0
1463662139999631794,841,1463662139977500017,,0.410892397165,-13.9229803085,156.673797607,0.00977599993348,1.0,0.0,0.0,0.0,1.0,0.0,0.0,0.0,1.0,-28.7804889679,-12.2560977936,-40.4878044128,1.0,0.0,0.0,0.0,1.0,0.0,0.0,0.0,1.0,-2.82036955566,-0.493205541992,-10.1945106689,1.0,0.0,0.0,0.0,1.0,0.0,0.0,0.0,1.0
1463662139999919025,842,1463662139986683017,,0.224310934544,-13.9786710739,156.30418396,0.0101239997894,1.0,0.0,0.0,0.0,1.0,0.0,0.0,0.0,1.0,-28.6585388184,-7.13414621353,-41.0365867615,1.0,0.0,0.0,0.0,1.0,0.0,0.0,0.0,1.0,-3.00232888184,-0.493205541992,-10.4435076416,1.0,0.0,0.0,0.0,1.0,0.0,0.0,0.0,1.0
1463662140068245793,843,1463662139996927688,,0.0430831685662,-13.9807186127,155.932388306,0.0100990002975,1.0,0.0,0.0,0.0,1.0,0.0,0.0,0.0,1.0,-28.7804889679,-2.37804889679,-41.2195129395,1.0,0.0,0.0,0.0,1.0,0.0,0.0,0.0,1.0,-2.91134921875,-0.565031591797,-10.5488525146,1.0,0.0,0.0,0.0,1.0,0.0,0.0,0.0,1.0
1463662140068313303,844,1463662140007868714,,-0.157770738006,-13.9160985947,155.537719727,0.0108510004357,1.0,0.0,0.0,0.0,1.0,0.0,0.0,0.0,1.0,-28.9634151459,3.47560977936,-40.8536605835,1.0,0.0,0.0,0.0,1.0,0.0,0.0,0.0,1.0,-2.79642753906,-0.474051928711,-10.4387192383,1.0,0.0,0.0,0.0,1.0,0.0,0.0,0.0,1.0
1463662140070246563,845,1463662140017982323,,-0.33535990119,-13.8172664642,155.19921875,0.009382000193,1.0,0.0,0.0,0.0,1.0,0.0,0.0,0.0,1.0,-29.7560997009,7.13414621353,-40.4268302917,1.0,0.0,0.0,0.0,1.0,0.0,0.0,0.0,1.0,-2.58094938965,-0.531512805087,-10.4435076416,1.0,0.0,0.0,0.0,1.0,0.0,0.0,0.0,1.0
1463662140070343818,846,1463662140026859809,,-0.541462600231,-13.683590889,154.846786499,0.0100560002029,1.0,0.0,0.0,0.0,1.0,0.0,0.0,0.0,1.0,-31.0365867615,9.87804889679,-39.390247345,1.0,0.0,0.0,0.0,1.0,0.0,0.0,0.0,1.0,-2.50912333984,-0.497993945312,-10.3285859619,1.0,0.0,0.0,0.0,1.0,0.0,0.0,0.0,1.0
1463662140095559862,847,1463662140040264644,,-0.75944674015,-13.5090303421,154.507858276,0.0100840004161,1.0,0.0,0.0,0.0,1.0,0.0,0.0,0.0,1.0,-31.0365867615,13.9024391174,-38.1097564697,1.0,0.0,0.0,0.0,1.0,0.0,0.0,0.0,1.0,-2.4995465332,-0.330399829102,-10.4818148682,1.0,0.0,0.0,0.0,1.0,0.0,0.0,0.0,1.0
1463662140095850427,848,1463662140048122392,,-0.98008787632,-13.3221502304,154.173995972,0.0100959995762,1.0,0.0,0.0,0.0,1.0,0.0,0.0,0.0,1.0,-31.4024391174,15.7317075729,-37.4390220642,1.0,0.0,0.0,0.0,1.0,0.0,0.0,0.0,1.0,-2.59052619629,-0.363918652344,-10.5823713379,1.0,0.0,0.0,0.0,1.0,0.0,0.0,0.0,1.0
1463662140096336802,849,1463662140059522497,,-1.20641696453,-13.1079206467,153.848083496,0.0101319998503,1.0,0.0,0.0,0.0,1.0,0.0,0.0,0.0,1.0,-31.8292694092,19.2073173523,-36.4024391174,1.0,0.0,0.0,0.0,1.0,0.0,0.0,0.0,1.0,-2.71981308594,-0.378283862305,-10.6637741943,1.0,0.0,0.0,0.0,1.0,0.0,0.0,0.0,1.0
1463662140096676645,850,1463662140070346631,,-1.47581422329,-12.8207006454,153.480575562,0.0115860002115,1.0,0.0,0.0,0.0,1.0,0.0,0.0,0.0,1.0,-31.8902454376,22.9878044128,-35.9756088257,1.0,0.0,0.0,0.0,1.0,0.0,0.0,0.0,1.0,-2.72460148926,-0.215478149414,-10.8457335205,1.0,0.0,0.0,0.0,1.0,0.0,0.0,0.0,1.0
1463662140097002111,851,1463662140077325809,,-1.67426860332,-12.5877790451,153.211166382,0.00858800020069,1.0,0.0,0.0,0.0,1.0,0.0,0.0,0.0,1.0,-30.9146327972,24.6951236725,-35.6707344055,1.0,0.0,0.0,0.0,1.0,0.0,0.0,0.0,1.0,-2.55700737305,-0.0383072265625,-11.01811604,1.0,0.0,0.0,0.0,1.0,0.0,0.0,0.0,1.0
1463662140097282205,852,1463662140091658336,,-1.91173636913,-12.2518024445,152.873352051,0.0111720003188,1.0,0.0,0.0,0.0,1.0,0.0,0.0,0.0,1.0,-27.6219520569,28.1097564697,-34.634147644,1.0,0.0,0.0,0.0,1.0,0.0,0.0,0.0,1.0,-2.55221896973,0.210689746094,-10.8648871338,1.0,0.0,0.0,0.0,1.0,0.0,0.0,0.0,1.0
1463662140132806784,853,1463662140098194582,,-2.08486175537,-11.9690923691,152.602508545,0.0090640000999,1.0,0.0,0.0,0.0,1.0,0.0,0.0,0.0,1.0,-26.2195129395,29.1463413239,-33.9634132385,1.0,0.0,0.0,0.0,1.0,0.0,0.0,0.0,1.0,-2.43729729004,0.0574608398438,-10.8074262939,1.0,0.0,0.0,0.0,1.0,0.0,0.0,0.0,1.0
1463662140133163140,854,1463662140109033301,,-2.26798844337,-11.635181427,152.318557739,0.010108999908,1.0,0.0,0.0,0.0,1.0,0.0,0.0,0.0,1.0,-23.658536911,30.975610733,-32.317073822,1.0,0.0,0.0,0.0,1.0,0.0,0.0,0.0,1.0,-2.37983659633,0.301669427446,-10.8313683105,1.0,0.0,0.0,0.0,1.0,0.0,0.0,0.0,1.0
1463662140133470791,855,1463662140118242920,,-2.41981315613,-11.2871274948,152.045959473,0.0100870002061,1.0,0.0,0.0,0.0,1.0,0.0,0.0,0.0,1.0,-20.6707324982,33.1707305908,-31.0365867615,1.0,0.0,0.0,0.0,1.0,0.0,0.0,0.0,1.0,-2.43250888672,0.244208569336,-10.7499654541,1.0,0.0,0.0,0.0,1.0,0.0,0.0,0.0,1.0
1463662140133743644,856,1463662140128643917,,-2.54440975189,-10.9279069901,151.790817261,0.0100999996066,1.0,0.0,0.0,0.0,1.0,0.0,0.0,0.0,1.0,-18.2926826477,34.817073822,-29.0243911743,1.0,0.0,0.0,0.0,1.0,0.0,0.0,0.0,1.0,-2.47081611328,0.105344873047,-10.6972930176,1.0,0.0,0.0,0.0,1.0,0.0,0.0,0.0,1.0
1463662140183776767,857,1463662140138278912,,-2.65653395653,-10.5420084,151.558578491,0.0100959995762,1.0,0.0,0.0,0.0,1.0,0.0,0.0,0.0,1.0,-15.975610733,37.317073822,-26.7682933807,1.0,0.0,0.0,0.0,1.0,0.0,0.0,0.0,1.0,-2.38462499965,0.229843359375,-10.7212350342,1.0,0.0,0.0,0.0,1.0,0.0,0.0,0.0,1.0
1463662140184070092,858,1463662140148921716,,-2.75767731667,-10.1330900192,151.348754883,0.0102380001917,1.0,0.0,0.0,0.0,1.0,0.0,0.0,0.0,1.0,-13.9024391174,38.4146347046,-24.2682933807,1.0,0.0,0.0,0.0,1.0,0.0,0.0,0.0,1.0,-2.18351191406,0.296881024126,-10.6350437744,1.0,0.0,0.0,0.0,1.0,0.0,0.0,0.0,1.0
1463662140184586576,859,1463662140158716058,,-2.83594346046,-9.72480297089,151.16468811,0.00997500028461,1.0,0.0,0.0,0.0,1.0,0.0,0.0,0.0,1.0,-11.5853662491,39.6951217651,-22.1341457367,1.0,0.0,0.0,0.0,1.0,0.0,0.0,0.0,1.0,-2.19787712402,0.277727392578,-10.7499654541,1.0,0.0,0.0,0.0,1.0,0.0,0.0,0.0,1.0
1463662140184882142,860,1463662140169285101,,-2.91264200211,-9.30375289917,150.999984741,0.0102019999176,1.0,0.0,0.0,0.0,1.0,0.0,0.0,0.0,1.0,-9.87804889679,39.5121955872,-20.0,1.0,0.0,0.0,0.0,1.0,0.0,0.0,0.0,1.0,-2.05901342773,0.469263525391,-10.8888291504,1.0,0.0,0.0,0.0,1.0,0.0,0.0,0.0,1.0
1463662140186389557,861,1463662140179172270,,-2.96713685989,-8.88753890991,150.857421875,0.00999400019646,1.0,0.0,0.0,0.0,1.0,0.0,0.0,0.0,1.0,-7.62195110321,40.3048782349,-18.0487823486,1.0,0.0,0.0,0.0,1.0,0.0,0.0,0.0,1.0,-2.07816689489,0.440533105469,-10.9079827637,1.0,0.0,0.0,0.0,1.0,0.0,0.0,0.0,1.0
1463662140209586130,862,1463662140188410226,,-3.01202917099,-8.4727602005,150.734100342,0.0100769996643,1.0,0.0,0.0,0.0,1.0,0.0,0.0,0.0,1.0,-5.67073154449,40.7926826477,-16.0975608826,1.0,0.0,0.0,0.0,1.0,0.0,0.0,0.0,1.0,-2.23139594727,0.565031591797,-11.01811604,1.0,0.0,0.0,0.0,1.0,0.0,0.0,0.0,1.0
1463662140210010881,863,1463662140198648073,,-3.02204465866,-8.04606151581,150.613998413,0.0101150004193,1.0,0.0,0.0,0.0,1.0,0.0,0.0,0.0,1.0,-2.31707310677,41.1585350037,-15.6707315445,1.0,0.0,0.0,0.0,1.0,0.0,0.0,0.0,1.0,-1.97761057129,0.512359155273,-10.7978494873,1.0,0.0,0.0,0.0,1.0,0.0,0.0,0.0,1.0
1463662140210383750,864,1463662140208881336,,-3.01030373573,-7.62742328644,150.516998291,0.0101439999416,1.0,0.0,0.0,0.0,1.0,0.0,0.0,0.0,1.0,-0.426829278469,40.3658561707,-13.3536586761,1.0,0.0,0.0,0.0,1.0,0.0,0.0,0.0,1.0,-1.88184250488,0.373495458984,-10.4674496582,1.0,0.0,0.0,0.0,1.0,0.0,0.0,0.0,1.0
1463662140237653281,865,1463662140219469236,,-2.98274612427,-7.20449399948,150.431838989,0.0100609995425,1.0,0.0,0.0,0.0,1.0,0.0,0.0,0.0,1.0,2.19512200356,39.8780479431,-12.4390249252,1.0,0.0,0.0,0.0,1.0,0.0,0.0,0.0,1.0,-1.52750065918,0.512359155273,-10.1466266357,1.0,0.0,0.0,0.0,1.0,0.0,0.0,0.0,1.0
1463662140238136740,866,1463662140229356561,,-2.92283272743,-6.79386901855,150.353973389,0.0100840004161,1.0,0.0,0.0,0.0,1.0,0.0,0.0,0.0,1.0,5.36585378647,37.8048782349,-11.8292684555,1.0,0.0,0.0,0.0,1.0,0.0,0.0,0.0,1.0,-1.30723410645,0.469263525391,-10.0508585693,1.0,0.0,0.0,0.0,1.0,0.0,0.0,0.0,1.0
1463662140252769416,867,1463662140239150122,,-2.85328197479,-6.40385007858,150.285827637,0.0101239997894,1.0,0.0,0.0,0.0,1.0,0.0,0.0,0.0,1.0,8.23170757294,35.7926826477,-11.2195119858,1.0,0.0,0.0,0.0,1.0,0.0,0.0,0.0,1.0,-1.28808049316,0.785298144531,-10.1418382324,1.0,0.0,0.0,0.0,1.0,0.0,0.0,0.0,1.0
1463662140253161194,868,1463662140249338169,,-2.74983930588,-6.03034925461,150.222045898,0.0101370001212,1.0,0.0,0.0,0.0,1.0,0.0,0.0,0.0,1.0,13.4146347046,33.2926826477,-11.1585359573,1.0,0.0,0.0,0.0,1.0,0.0,0.0,0.0,1.0,-1.05823706072,1.07739082014,-10.0029745361,1.0,0.0,0.0,0.0,1.0,0.0,0.0,0.0,1.0
1463662140266267391,869,1463662140259084067,,-2.59833931923,-5.69956827164,150.16204834,0.0100320000201,1.0,0.0,0.0,0.0,1.0,0.0,0.0,0.0,1.0,19.0853652954,30.9146327972,-11.0975618362,1.0,0.0,0.0,0.0,1.0,0.0,0.0,0.0,1.0,-1.24498486328,1.16837033709,-9.84495722656,1.0,0.0,0.0,0.0,1.0,0.0,0.0,0.0,1.0
1463662140285096482,870,1463662140269416928,,-2.39740896225,-5.38946390152,150.103134155,0.0101439999416,1.0,0.0,0.0,0.0,1.0,0.0,0.0,0.0,1.0,23.9024391174,29.0853672028,-11.0975618362,1.0,0.0,0.0,0.0,1.0,0.0,0.0,0.0,1.0,-1.24019645996,1.10612116699,-9.44751916645,1.0,0.0,0.0,0.0,1.0,0.0,0.0,0.0,1.0
1463662140285467058,871,1463662140279614509,,-2.14510536194,-5.09761810303,150.044113159,0.0101450001821,1.0,0.0,0.0,0.0,1.0,0.0,0.0,0.0,1.0,29.3292694092,26.7073173523,-11.341463089,1.0,0.0,0.0,0.0,1.0,0.0,0.0,0.0,1.0,-1.06302561017,1.09654436035,-9.193734375,1.0,0.0,0.0,0.0,1.0,0.0,0.0,0.0,1.0
1463662140363216342,872,1463662140289769739,,-1.84693658352,-4.83577489853,149.995941162,0.0100389998406,1.0,0.0,0.0,0.0,1.0,0.0,0.0,0.0,1.0,33.4146347046,25.182926178,-10.4268293381,1.0,0.0,0.0,0.0,1.0,0.0,0.0,0.0,1.0,-1.20667770978,0.905008227539,-9.1219083252,1.0,0.0,0.0,0.0,1.0,0.0,0.0,0.0,1.0
1463662140363620257,873,1463662140299823391,,-1.52265775204,-4.59242153168,149.950653076,0.010095000267,1.0,0.0,0.0,0.0,1.0,0.0,0.0,0.0,1.0,37.0731697083,22.9268302917,-10.4268293381,1.0,0.0,0.0,0.0,1.0,0.0,0.0,0.0,1.0,-1.12527478027,1.0534486574,-9.13627353516,1.0,0.0,0.0,0.0,1.0,0.0,0.0,0.0,1.0
1463662140364936133,874,1463662140310098119,,-1.15021181107,-4.38171720505,149.907775879,0.0102310003713,1.0,0.0,0.0,0.0,1.0,0.0,0.0,0.0,1.0,40.3658561707,20.4878044128,-10.2439022064,1.0,0.0,0.0,0.0,1.0,0.0,0.0,0.0,1.0,-1.28329208984,0.842758984375,-9.25598361816,1.0,0.0,0.0,0.0,1.0,0.0,0.0,0.0,1.0
1463662140365552684,875,1463662140319891159,,-0.755174219608,-4.20226478577,149.852767944,0.010098000057,1.0,0.0,0.0,0.0,1.0,0.0,0.0,0.0,1.0,42.134147644,19.1463432312,-11.5853662491,1.0,0.0,0.0,0.0,1.0,0.0,0.0,0.0,1.0,-1.52750065918,0.651222851562,-9.44273076313,1.0,0.0,0.0,0.0,1.0,0.0,0.0,0.0,1.0
1463662140366019525,876,1463662140330550319,,-0.3572961092,-4.05092716217,149.803970337,0.00997599959373,1.0,0.0,0.0,0.0,1.0,0.0,0.0,0.0,1.0,42.317073822,16.7682933807,-11.1585359573,1.0,0.0,0.0,0.0,1.0,0.0,0.0,0.0,1.0,-1.60890351563,0.497993945312,-9.85932243652,1.0,0.0,0.0,0.0,1.0,0.0,0.0,0.0,1.0
1463662140366384997,877,1463662140340866251,,0.0374441295862,-3.89380049706,149.735702515,0.0101359998807,1.0,0.0,0.0,0.0,1.0,0.0,0.0,0.0,1.0,42.6219520569,15.0609760284,-13.2317075729,1.0,0.0,0.0,0.0,1.0,0.0,0.0,0.0,1.0,-1.24019645996,0.675164868164,-9.98860932617,1.0,0.0,0.0,0.0,1.0,0.0,0.0,0.0,1.0
1463662140368037121,878,1463662140350782799,,0.474586516619,-3.77353405952,149.659317017,0.0100840004161,1.0,0.0,0.0,0.0,1.0,0.0,0.0,0.0,1.0,43.9024391174,13.4756097794,-13.9634151459,1.0,0.0,0.0,0.0,1.0,0.0,0.0,0.0,1.0,-1.50355864258,0.0526724365234,-9.50498117534,1.0,0.0,0.0,0.0,1.0,0.0,0.0,0.0,1.0
1463662140369533649,879,1463662140360185312,,0.88532859087,-3.67879247665,149.584854126,0.0100680002943,1.0,0.0,0.0,0.0,1.0,0.0,0.0,0.0,1.0,43.3536567688,12.0731716156,-14.0243902206,1.0,0.0,0.0,0.0,1.0,0.0,0.0,0.0,1.0,-1.69988317871,0.320823022461,-9.58159562847,1.0,0.0,0.0,0.0,1.0,0.0,0.0,0.0,1.0
1463662140530495176,880,1463662140370723568,,1.31060481071,-3.60586261749,149.503753662,0.0102000003681,1.0,0.0,0.0,0.0,1.0,0.0,0.0,0.0,1.0,42.9878044128,10.6707315445,-14.5731706619,1.0,0.0,0.0,0.0,1.0,0.0,0.0,0.0,1.0,-1.82917006836,0.0383072265625,-9.4954043687,1.0,0.0,0.0,0.0,1.0,0.0,0.0,0.0,1.0
1463662140530847521,881,1463662140380893957,,1.70777702332,-3.54958128929,149.425201416,0.0100199999288,1.0,0.0,0.0,0.0,1.0,0.0,0.0,0.0,1.0,41.5243911743,9.5731716156,-14.5731706619,1.0,0.0,0.0,0.0,1.0,0.0,0.0,0.0,1.0,-2.06380183105,0.0718260498047,-10.3094323486,1.0,0.0,0.0,0.0,1.0,0.0,0.0,0.0,1.0
1463662140531146212,882,1463662140391491754,,2.08760237694,-3.47816824913,149.319778442,0.0101049998775,1.0,0.0,0.0,0.0,1.0,0.0,0.0,0.0,1.0,42.5,9.45121955872,-17.4390239716,1.0,0.0,0.0,0.0,1.0,0.0,0.0,0.0,1.0,-1.81959326172,0.598550451572,-10.5153336914,1.0,0.0,0.0,0.0,1.0,0.0,0.0,0.0,1.0
1463662140531465739,883,1463662140400946775,,2.52162337303,-3.43683838844,149.218597412,0.0100889997557,1.0,0.0,0.0,0.0,1.0,0.0,0.0,0.0,1.0,41.4024391174,7.74390268326,-16.6463413239,1.0,0.0,0.0,0.0,1.0,0.0,0.0,0.0,1.0,-2.07816689489,-0.718260498047,-10.5919481445,1.0,0.0,0.0,0.0,1.0,0.0,0.0,0.0,1.0
1463662140531752345,884,1463662140411303702,,2.84493637085,-3.37689113617,149.096466064,0.0102300001308,1.0,0.0,0.0,0.0,1.0,0.0,0.0,0.0,1.0,39.2073173523,6.52439069748,-19.1463432312,1.0,0.0,0.0,0.0,1.0,0.0,0.0,0.0,1.0,-1.51313544922,0.967257470703,-10.5105452881,1.0,0.0,0.0,0.0,1.0,0.0,0.0,0.0,1.0
1463662140532950963,885,1463662140421412571,,3.23348712921,-3.36108469963,148.974899292,0.00996400043368,1.0,0.0,0.0,0.0,1.0,0.0,0.0,0.0,1.0,41.0975646973,4.57317066193,-19.0243911743,1.0,0.0,0.0,0.0,1.0,0.0,0.0,0.0,1.0,-1.84832368164,-0.119710083008,-9.90720646973,1.0,0.0,0.0,0.0,1.0,0.0,0.0,0.0,1.0
1463662140533331958,886,1463662140431768300,,3.60453557968,-3.34802103043,148.860321045,0.0101239997894,1.0,0.0,0.0,0.0,1.0,0.0,0.0,0.0,1.0,37.4390220642,4.32926845551,-18.1097564697,1.0,0.0,0.0,0.0,1.0,0.0,0.0,0.0,1.0,-1.78128603516,-0.411802685547,-9.47146118306,1.0,0.0,0.0,0.0,1.0,0.0,0.0,0.0,1.0
1463662140533647787,887,1463662140441700163,,3.92836165428,-3.35841751099,148.751296997,0.0100959995762,1.0,0.0,0.0,0.0,1.0,0.0,0.0,0.0,1.0,33.9024391174,3.10975623131,-17.6219520569,1.0,0.0,0.0,0.0,1.0,0.0,0.0,0.0,1.0,-2.02070620117,-0.3064578125,-9.67736311035,1.0,0.0,0.0,0.0,1.0,0.0,0.0,0.0,1.0
1463662140533936268,888,1463662140451920507,,4.21868419647,-3.36787128448,148.651168823,0.0101770004258,1.0,0.0,0.0,0.0,1.0,0.0,0.0,0.0,1.0,31.2195129395,2.37804889679,-16.7073173523,1.0,0.0,0.0,0.0,1.0,0.0,0.0,0.0,1.0,-1.90578452148,-0.225054956055,-9.85932243652,1.0,0.0,0.0,0.0,1.0,0.0,0.0,0.0,1.0
1463662140534212299,889,1463662140461770692,,4.47454166412,-3.36753845215,148.543899536,0.010150000453,1.0,0.0,0.0,0.0,1.0,0.0,0.0,0.0,1.0,28.9024410248,2.74390244484,-17.5609760284,1.0,0.0,0.0,0.0,1.0,0.0,0.0,0.0,1.0,-1.83395847168,-0.0909796630859,-9.94551369629,1.0,0.0,0.0,0.0,1.0,0.0,0.0,0.0,1.0
1463662140534503593,890,1463662140471992859,,4.70040750504,-3.37895488739,148.439727783,0.00998799968511,1.0,0.0,0.0,0.0,1.0,0.0,0.0,0.0,1.0,27.5,1.70731711388,-17.4390239716,1.0,0.0,0.0,0.0,1.0,0.0,0.0,0.0,1.0,-1.84353527832,0.076614453125,-9.82580361328,1.0,0.0,0.0,0.0,1.0,0.0,0.0,0.0,1.0
1463662140534779677,891,1463662140481842783,,4.91034317017,-3.39653015137,148.325515747,0.0100750001147,1.0,0.0,0.0,0.0,1.0,0.0,0.0,0.0,1.0,26.8902454376,1.40243899822,-18.4146347046,1.0,0.0,0.0,0.0,1.0,0.0,0.0,0.0,1.0,-1.93930334473,0.258573779297,-9.92157167969,1.0,0.0,0.0,0.0,1.0,0.0,0.0,0.0,1.0
1463662140535052218,892,1463662140492604094,,5.10507774353,-3.42425727844,148.211425781,0.0102230003104,1.0,0.0,0.0,0.0,1.0,0.0,0.0,0.0,1.0,26.7073173523,0.670731723309,-18.2926826477,1.0,0.0,0.0,0.0,1.0,0.0,0.0,0.0,1.0,-1.93451494141,0.497993945312,-9.62947966167,1.0,0.0,0.0,0.0,1.0,0.0,0.0,0.0,1.0
1463662140535340230,893,1463662140501776259,,5.31498908997,-3.45645880699,148.104141235,0.00997000001371,1.0,0.0,0.0,0.0,1.0,0.0,0.0,0.0,1.0,27.1951236725,1.8292683363,-17.9268302917,1.0,0.0,0.0,0.0,1.0,0.0,0.0,0.0,1.0,-2.22181914063,0.201112939453,-9.5432884019,1.0,0.0,0.0,0.0,1.0,0.0,0.0,0.0,1.0
1463662140535646370,894,1463662140512695719,,5.52368831635,-3.48163795471,148.000946045,0.0101570002735,1.0,0.0,0.0,0.0,1.0,0.0,0.0,0.0,1.0,25.975610733,1.8902438879,-17.317073822,1.0,0.0,0.0,0.0,1.0,0.0,0.0,0.0,1.0,-2.07337849156,0.0335188255255,-9.41878874653,1.0,0.0,0.0,0.0,1.0,0.0,0.0,0.0,1.0
1463662140614011996,895,1463662140522586535,,5.71713685989,-3.50517344475,147.905593872,0.0100720003247,1.0,0.0,0.0,0.0,1.0,0.0,0.0,0.0,1.0,25.1219520569,2.19512200356,-16.7073173523,1.0,0.0,0.0,0.0,1.0,0.0,0.0,0.0,1.0,-2.09732050817,0.076614453125,-9.39963513325,1.0,0.0,0.0,0.0,1.0,0.0,0.0,0.0,1.0
1463662140614313136,896,1463662140532555331,,5.8922867775,-3.51734018326,147.824035645,0.0101319998503,1.0,0.0,0.0,0.0,1.0,0.0,0.0,0.0,1.0,24.0853652954,2.74390244484,-15.4268302917,1.0,0.0,0.0,0.0,1.0,0.0,0.0,0.0,1.0,-1.95845695801,0.177170922852,-9.29907866352,1.0,0.0,0.0,0.0,1.0,0.0,0.0,0.0,1.0
1463662140614612556,897,1463662140543067698,,6.07166433334,-3.53292441368,147.748535156,0.010329999961,1.0,0.0,0.0,0.0,1.0,0.0,0.0,0.0,1.0,23.9024391174,2.19512200356,-14.6341466904,1.0,0.0,0.0,0.0,1.0,0.0,0.0,0.0,1.0,-1.90578452148,0.0957680664062,-9.27992563477,1.0,0.0,0.0,0.0,1.0,0.0,0.0,0.0,1.0
1463662140614907236,898,1463662140552296799,,6.24199771881,-3.53721165657,147.687469482,0.00981900002807,1.0,0.0,0.0,0.0,1.0,0.0,0.0,0.0,1.0,22.9878044128,1.8902438879,-13.4756097794,1.0,0.0,0.0,0.0,1.0,0.0,0.0,0.0,1.0,-1.66157595215,-0.100556469727,-9.30865547017,1.0,0.0,0.0,0.0,1.0,0.0,0.0,0.0,1.0
1463662140616044022,899,1463662140562207617,,6.40321350098,-3.55218315125,147.62411499,0.010108999908,1.0,0.0,0.0,0.0,1.0,0.0,0.0,0.0,1.0,21.5853652954,1.2804877758,-13.4756097794,1.0,0.0,0.0,0.0,1.0,0.0,0.0,0.0,1.0,-1.77649763184,-0.129286889648,-9.50019277202,1.0,0.0,0.0,0.0,1.0,0.0,0.0,0.0,1.0
1463662140616388709,900,1463662140573097854,,6.52734994888,-3.57132863998,147.566696167,0.0102129997686,1.0,0.0,0.0,0.0,1.0,0.0,0.0,0.0,1.0,20.0,-0.304878056049,-12.8048782349,1.0,0.0,0.0,0.0,1.0,0.0,0.0,0.0,1.0,-1.54665427246,0.210689746094,-9.41400034321,1.0,0.0,0.0,0.0,1.0,0.0,0.0,0.0,1.0
1463662140616793927,901,1463662140583206359,,6.61577606201,-3.58371210098,147.485488892,0.0100060002878,1.0,0.0,0.0,0.0,1.0,0.0,0.0,0.0,1.0,22.682926178,-0.548780500889,-15.6707315445,1.0,0.0,0.0,0.0,1.0,0.0,0.0,0.0,1.0,-1.46525141602,1.25935007324,-9.46667277974,1.0,0.0,0.0,0.0,1.0,0.0,0.0,0.0,1.0
1463662140617068916,902,1463662140593764254,,6.82465934753,-3.64876818657,147.409347534,0.0100870002061,1.0,0.0,0.0,0.0,1.0,0.0,0.0,0.0,1.0,24.9390239716,-2.43902444839,-14.2682924271,1.0,0.0,0.0,0.0,1.0,0.0,0.0,0.0,1.0,-1.97282216797,-0.402225878906,-9.20331118164,1.0,0.0,0.0,0.0,1.0,0.0,0.0,0.0,1.0
1463662140647435373,903,1463662140603599852,,6.98179149628,-3.69964814186,147.321914673,0.0101749999449,1.0,0.0,0.0,0.0,1.0,0.0,0.0,0.0,1.0,21.4024391174,-3.10975623131,-15.3658533096,1.0,0.0,0.0,0.0,1.0,0.0,0.0,0.0,1.0,-1.69030637207,-0.143652099609,-9.44273076313,1.0,0.0,0.0,0.0,1.0,0.0,0.0,0.0,1.0
1463662140647739950,904,1463662140613750863,,7.13471603394,-3.77084946632,147.248352051,0.0100490003824,1.0,0.0,0.0,0.0,1.0,0.0,0.0,0.0,1.0,20.2439022064,-3.17073178291,-14.0243902206,1.0,0.0,0.0,0.0,1.0,0.0,0.0,0.0,1.0,-1.96324536133,-0.325611425781,-9.13627353516,1.0,0.0,0.0,0.0,1.0,0.0,0.0,0.0,1.0
1463662140648012127,905,1463662140623515409,,7.25455522537,-3.82552909851,147.175552368,0.0101190004498,1.0,0.0,0.0,0.0,1.0,0.0,0.0,0.0,1.0,18.4146347046,-2.13414645195,-14.1463422775,1.0,0.0,0.0,0.0,1.0,0.0,0.0,0.0,1.0,-1.89620771484,-0.0957680664062,-9.27513723145,1.0,0.0,0.0,0.0,1.0,0.0,0.0,0.0,1.0
1463662140648277375,906,1463662140633013613,,7.34910202026,-3.90392255783,147.100570679,0.0100819999352,1.0,0.0,0.0,0.0,1.0,0.0,0.0,0.0,1.0,17.6219520569,-3.10975623131,-14.3902444839,1.0,0.0,0.0,0.0,1.0,0.0,0.0,0.0,1.0,-2.13083962367,0.177170922852,-9.17458076172,1.0,0.0,0.0,0.0,1.0,0.0,0.0,0.0,1.0
1463662140685348333,907,1463662140644107423,,7.4474568367,-3.96641612053,147.024414062,0.0109780002385,1.0,0.0,0.0,0.0,1.0,0.0,0.0,0.0,1.0,18.4146347046,-2.80487799644,-14.0243902206,1.0,0.0,0.0,0.0,1.0,0.0,0.0,0.0,1.0,-1.82438166504,0.349553442383,-9.14106193848,1.0,0.0,0.0,0.0,1.0,0.0,0.0,0.0,1.0
1463662140685387818,908,1463662140653170613,,7.55532312393,-4.01669788361,146.962600708,0.00921399984509,1.0,0.0,0.0,0.0,1.0,0.0,0.0,0.0,1.0,17.0121955872,-3.10975623131,-13.4756097794,1.0,0.0,0.0,0.0,1.0,0.0,0.0,0.0,1.0,-1.7908628418,-0.368707055664,-9.39963513325,1.0,0.0,0.0,0.0,1.0,0.0,0.0,0.0,1.0
1463662140685427720,909,1463662140665058449,,7.65261554718,-4.09749889374,146.891479492,0.0116459997371,1.0,0.0,0.0,0.0,1.0,0.0,0.0,0.0,1.0,13.7804880142,-4.63414621353,-12.6829271317,1.0,0.0,0.0,0.0,1.0,0.0,0.0,0.0,1.0,-1.81001645508,-0.378283862305,-9.56723041851,1.0,0.0,0.0,0.0,1.0,0.0,0.0,0.0,1.0
1463662140685465590,910,1463662140676131057,,7.72606372833,-4.15816307068,146.844390869,0.00924799963832,1.0,0.0,0.0,0.0,1.0,0.0,0.0,0.0,1.0,10.1219511032,-5.30487823486,-11.341463089,1.0,0.0,0.0,0.0,1.0,0.0,0.0,0.0,1.0,-1.62326872559,-0.972045874023,-9.58159562847,1.0,0.0,0.0,0.0,1.0,0.0,0.0,0.0,1.0
1463662140733578371,911,1463662140685930869,,7.736515522,-4.22715520859,146.800750732,0.00939099956304,1.0,0.0,0.0,0.0,1.0,0.0,0.0,0.0,1.0,4.93902444839,-6.52439069748,-10.8536586761,1.0,0.0,0.0,0.0,1.0,0.0,0.0,0.0,1.0,-1.56580788574,-0.713472094727,-9.71567033691,1.0,0.0,0.0,0.0,1.0,0.0,0.0,0.0,1.0
1463662140733630566,912,1463662140694678595,,7.68650817871,-4.32668066025,146.75213623,0.0100999996066,1.0,0.0,0.0,0.0,1.0,0.0,0.0,0.0,1.0,2.37804889679,-8.41463470459,-11.0365858078,1.0,0.0,0.0,0.0,1.0,0.0,0.0,0.0,1.0,-1.69988317871,-0.0957680664062,-9.79707319336,1.0,0.0,0.0,0.0,1.0,0.0,0.0,0.0,1.0
1463662140734339736,913,1463662140703831487,,7.63800144196,-4.43508768082,146.695632935,0.0101009998471,1.0,0.0,0.0,0.0,1.0,0.0,0.0,0.0,1.0,1.64634156227,-9.32926845551,-11.6463422775,1.0,0.0,0.0,0.0,1.0,0.0,0.0,0.0,1.0,-1.72382519531,-0.229843359375,-9.77313117676,1.0,0.0,0.0,0.0,1.0,0.0,0.0,0.0,1.0
1463662140734459910,914,1463662140713613067,,7.56523036957,-4.57017040253,146.648422241,0.010098000057,1.0,0.0,0.0,0.0,1.0,0.0,0.0,0.0,1.0,-0.914634168148,-10.6707315445,-10.548781395,1.0,0.0,0.0,0.0,1.0,0.0,0.0,0.0,1.0,-1.94409174805,-0.253785375977,-9.73003554687,1.0,0.0,0.0,0.0,1.0,0.0,0.0,0.0,1.0
1463662140772545813,915,1463662140724225501,,7.47963094711,-4.70713949203,146.60899353,0.0101100001484,1.0,0.0,0.0,0.0,1.0,0.0,0.0,0.0,1.0,-3.04878044128,-10.4268293381,-9.75609779358,1.0,0.0,0.0,0.0,1.0,0.0,0.0,0.0,1.0,-2.02070620117,-0.402225878906,-9.71088193359,1.0,0.0,0.0,0.0,1.0,0.0,0.0,0.0,1.0
1463662140772599832,916,1463662140733719538,,7.36254119873,-4.85807085037,146.585174561,0.0100859999657,1.0,0.0,0.0,0.0,1.0,0.0,0.0,0.0,1.0,-4.81707286835,-10.8536586761,-8.29268264771,1.0,0.0,0.0,0.0,1.0,0.0,0.0,0.0,1.0,-2.14999323695,-0.15801730957,-9.54807680523,1.0,0.0,0.0,0.0,1.0,0.0,0.0,0.0,1.0
1463662140772927121,917,1463662140746164072,,7.22755861282,-4.99446868896,146.574188232,0.0101169999689,1.0,0.0,0.0,0.0,1.0,0.0,0.0,0.0,1.0,-7.01219511032,-10.3048782349,-7.07317113876,1.0,0.0,0.0,0.0,1.0,0.0,0.0,0.0,1.0,-2.01112939453,-0.244208569336,-9.69172832031,1.0,0.0,0.0,0.0,1.0,0.0,0.0,0.0,1.0
1463662140773225968,918,1463662140755232211,,7.10152816772,-5.13014364243,146.575332642,0.0100940000266,1.0,0.0,0.0,0.0,1.0,0.0,0.0,0.0,1.0,-9.5731716156,-11.5853662491,-5.42682933807,1.0,0.0,0.0,0.0,1.0,0.0,0.0,0.0,1.0,-1.7908628418,-0.852335791016,-9.78749638672,1.0,0.0,0.0,0.0,1.0,0.0,0.0,0.0,1.0
1463662140827429407,919,1463662140764651184,,6.92064332962,-5.27037143707,146.584777832,0.0101420003921,1.0,0.0,0.0,0.0,1.0,0.0,0.0,0.0,1.0,-14.2073173523,-12.1341466904,-4.63414621353,1.0,0.0,0.0,0.0,1.0,0.0,0.0,0.0,1.0,-1.77170922852,-0.718260498047,-9.81622680664,1.0,0.0,0.0,0.0,1.0,0.0,0.0,0.0,1.0
1463662140827805401,920,1463662140775146935,,6.68845748901,-5.41478824615,146.59336853,0.0101680001244,1.0,0.0,0.0,0.0,1.0,0.0,0.0,0.0,1.0,-16.2195110321,-13.9634151459,-4.81707286835,1.0,0.0,0.0,0.0,1.0,0.0,0.0,0.0,1.0,-1.57059628906,-0.162805712891,-10.0412817627,1.0,0.0,0.0,0.0,1.0,0.0,0.0,0.0,1.0
1463662140828207910,921,1463662140785204390,,6.45333099365,-5.58342266083,146.592269897,0.0103569999337,1.0,0.0,0.0,0.0,1.0,0.0,0.0,0.0,1.0,-15.548781395,-15.3048791885,-5.73170757294,1.0,0.0,0.0,0.0,1.0,0.0,0.0,0.0,1.0,-1.75255561523,-0.00478840332031,-10.0508585693,1.0,0.0,0.0,0.0,1.0,0.0,0.0,0.0,1.0
1463662140828254844,922,1463662140795060512,,6.24517154694,-5.76822280884,146.585678101,0.00974499993026,1.0,0.0,0.0,0.0,1.0,0.0,0.0,0.0,1.0,-15.6707315445,-15.9146347046,-6.15853643417,1.0,0.0,0.0,0.0,1.0,0.0,0.0,0.0,1.0,-2.12605122035,-0.205901342773,-9.80665,1.0,0.0,0.0,0.0,1.0,0.0,0.0,0.0,1.0
1463662140933564484,923,1463662140805157661,,6.034948349,-5.96966695786,146.58682251,0.0101070003584,1.0,0.0,0.0,0.0,1.0,0.0,0.0,0.0,1.0,-17.0731716156,-15.2439022064,-5.30487823486,1.0,0.0,0.0,0.0,1.0,0.0,0.0,0.0,1.0,-2.38941340297,-0.517147558594,-9.56723041851,1.0,0.0,0.0,0.0,1.0,0.0,0.0,0.0,1.0
1463662140935146493,924,1463662140815081554,,5.80340194702,-6.17180204391,146.590332031,0.0101370001212,1.0,0.0,0.0,0.0,1.0,0.0,0.0,0.0,1.0,-18.3536586761,-13.7804880142,-5.36585378647,1.0,0.0,0.0,0.0,1.0,0.0,0.0,0.0,1.0,-2.60489140625,-0.335188232422,-9.25598361816,1.0,0.0,0.0,0.0,1.0,0.0,0.0,0.0,1.0
1463662140938849135,925,1463662140825311327,,5.55803632736,-6.35356616974,146.595062256,0.010053999722,1.0,0.0,0.0,0.0,1.0,0.0,0.0,0.0,1.0,-19.2682914734,-13.1707324982,-5.42682933807,1.0,0.0,0.0,0.0,1.0,0.0,0.0,0.0,1.0,-2.46602770996,-0.196324536133,-9.44751916645,1.0,0.0,0.0,0.0,1.0,0.0,0.0,0.0,1.0
1463662140939223306,926,1463662140835343882,,5.33179950714,-6.5042424202,146.592956543,0.0101180002093,1.0,0.0,0.0,0.0,1.0,0.0,0.0,0.0,1.0,-19.9390239716,-11.8902444839,-5.97560977936,1.0,0.0,0.0,0.0,1.0,0.0,0.0,0.0,1.0,-2.17393510742,-0.61770402832,-9.45230756977,1.0,0.0,0.0,0.0,1.0,0.0,0.0,0.0,1.0
1463662140939694575,927,1463662140845419725,,5.08262729645,-6.65111446381,146.583114624,0.0100790001452,1.0,0.0,0.0,0.0,1.0,0.0,0.0,0.0,1.0,-21.2195129395,-12.1341466904,-6.89024400711,1.0,0.0,0.0,0.0,1.0,0.0,0.0,0.0,1.0,-2.16435844691,-0.387860668945,-9.69172832031,1.0,0.0,0.0,0.0,1.0,0.0,0.0,0.0,1.0
1463662140939787819,928,1463662140855663146,,4.81293582916,-6.7985868454,146.56036377,0.0104339998215,1.0,0.0,0.0,0.0,1.0,0.0,0.0,0.0,1.0,-20.3658542633,-12.4390249252,-8.35365867615,1.0,0.0,0.0,0.0,1.0,0.0,0.0,0.0,1.0,-2.10210891149,0.0287304199219,-9.82580361328,1.0,0.0,0.0,0.0,1.0,0.0,0.0,0.0,1.0
1463662140939834649,929,1463662140866155719,,4.5805273056,-6.94807052612,146.526489258,0.00990699976683,1.0,0.0,0.0,0.0,1.0,0.0,0.0,0.0,1.0,-17.8658542633,-12.8048782349,-9.63414573669,1.0,0.0,0.0,0.0,1.0,0.0,0.0,0.0,1.0,-2.22181914063,0.124498486328,-9.68693991699,1.0,0.0,0.0,0.0,1.0,0.0,0.0,0.0,1.0
