%time,field.header.seq,field.header.stamp,field.header.frame_id,field.orientation.x,field.orientation.y,field.orientation.z,field.orientation.w,field.orientation_covariance0,field.orientation_covariance1,field.orientation_covariance2,field.orientation_covariance3,field.orientation_covariance4,field.orientation_covariance5,field.orientation_covariance6,field.orientation_covariance7,field.orientation_covariance8,field.angular_velocity.x,field.angular_velocity.y,field.angular_velocity.z,field.angular_velocity_covariance0,field.angular_velocity_covariance1,field.angular_velocity_covariance2,field.angular_velocity_covariance3,field.angular_velocity_covariance4,field.angular_velocity_covariance5,field.angular_velocity_covariance6,field.angular_velocity_covariance7,field.angular_velocity_covariance8,field.linear_acceleration.x,field.linear_acceleration.y,field.linear_acceleration.z,field.linear_acceleration_covariance0,field.linear_acceleration_covariance1,field.linear_acceleration_covariance2,field.linear_acceleration_covariance3,field.linear_acceleration_covariance4,field.linear_acceleration_covariance5,field.linear_acceleration_covariance6,field.linear_acceleration_covariance7,field.linear_acceleration_covariance8
1463662449012126550,538,1463662448912497195,,-10.0005912781,-6.7282500267,154.477478027,0.0190200004727,1.0,0.0,0.0,0.0,1.0,0.0,0.0,0.0,1.0,-0.487804889679,13.658536911,-5.18292713165,1.0,0.0,0.0,0.0,1.0,0.0,0.0,0.0,1.0,1.5562310791,1.91536132812,-9.56723041851,1.0,0.0,0.0,0.0,1.0,0.0,0.0,0.0,1.0
1463662449014927442,539,1463662448915740496,,-10.0077285767,-6.69058799744,154.448806763,0.00240599992685,1.0,0.0,0.0,0.0,1.0,0.0,0.0,0.0,1.0,-0.853658556938,12.9878053665,-5.79268312454,1.0,0.0,0.0,0.0,1.0,0.0,0.0,0.0,1.0,1.40300217285,2.18351191406,-9.7348239502,1.0,0.0,0.0,0.0,1.0,0.0,0.0,0.0,1.0
1463662449015250928,540,1463662448924000805,,-10.0257730484,-6.5564699173,154.333023071,0.00884999986738,1.0,0.0,0.0,0.0,1.0,0.0,0.0,0.0,1.0,0.487804889679,12.0121955872,-7.19512224197,1.0,0.0,0.0,0.0,1.0,0.0,0.0,0.0,1.0,1.52750065918,2.25533796387,-9.61511445171,1.0,0.0,0.0,0.0,1.0,0.0,0.0,0.0,1.0
1463662449015668387,541,1463662448934176091,,-10.0443086624,-6.4322385788,154.196578979,0.010156000033,1.0,0.0,0.0,0.0,1.0,0.0,0.0,0.0,1.0,1.2195122242,9.51219558716,-8.04878044128,1.0,0.0,0.0,0.0,1.0,0.0,0.0,0.0,1.0,1.49877023926,2.35589428746,-9.61990285503,1.0,0.0,0.0,0.0,1.0,0.0,0.0,0.0,1.0
1463662449015760224,542,1463662448944538071,,-10.0355854034,-6.3337187767,154.06036377,0.0100579997525,1.0,0.0,0.0,0.0,1.0,0.0,0.0,0.0,1.0,0.548780500889,6.21951246262,-8.35365867615,1.0,0.0,0.0,0.0,1.0,0.0,0.0,0.0,1.0,1.65678754883,1.74776721191,-9.61511445171,1.0,0.0,0.0,0.0,1.0,0.0,0.0,0.0,1.0
1463662449016444806,543,1463662448954411227,,-10.0418052673,-6.27169275284,153.939041138,0.0100429998711,1.0,0.0,0.0,0.0,1.0,0.0,0.0,0.0,1.0,-2.13414645195,3.23170733452,-7.25609779358,1.0,0.0,0.0,0.0,1.0,0.0,0.0,0.0,1.0,1.5322890625,1.52750065918,-9.77791958008,1.0,0.0,0.0,0.0,1.0,0.0,0.0,0.0,1.0
1463662449016879924,544,1463662448964075863,,-10.0749082565,-6.24154996872,153.82119751,0.0101359998807,1.0,0.0,0.0,0.0,1.0,0.0,0.0,0.0,1.0,-5.48780488968,0.548780500889,-7.19512224197,1.0,0.0,0.0,0.0,1.0,0.0,0.0,0.0,1.0,1.4844050293,1.44130939941,-10.1226846191,1.0,0.0,0.0,0.0,1.0,0.0,0.0,0.0,1.0
1463662449016925816,545,1463662448974676889,,-10.155339241,-6.24043083191,153.709533691,0.0100859999657,1.0,0.0,0.0,0.0,1.0,0.0,0.0,0.0,1.0,-8.5365858078,-0.853658556938,-7.07317113876,1.0,0.0,0.0,0.0,1.0,0.0,0.0,0.0,1.0,1.22104284668,1.75734401855,-10.1945106689,1.0,0.0,0.0,0.0,1.0,0.0,0.0,0.0,1.0
1463662449016980877,546,1463662448984186345,,-10.2700538635,-6.26161718369,153.589553833,0.0101039996371,1.0,0.0,0.0,0.0,1.0,0.0,0.0,0.0,1.0,-10.4268293381,-1.70731711388,-8.23170757294,1.0,0.0,0.0,0.0,1.0,0.0,0.0,0.0,1.0,1.01514150391,2.07816689489,-10.2376062988,1.0,0.0,0.0,0.0,1.0,0.0,0.0,0.0,1.0
1463662449017038229,547,1463662448994815970,,-10.3957824707,-6.29912137985,153.467010498,0.010214000009,1.0,0.0,0.0,0.0,1.0,0.0,0.0,0.0,1.0,-10.0609760284,-1.40243899822,-8.47560977936,1.0,0.0,0.0,0.0,1.0,0.0,0.0,0.0,1.0,0.675164868164,2.35589428746,-10.2423947021,1.0,0.0,0.0,0.0,1.0,0.0,0.0,0.0,1.0
1463662449017084486,548,1463662449004286722,,-10.5265312195,-6.33655738831,153.340103149,0.0100330002606,1.0,0.0,0.0,0.0,1.0,0.0,0.0,0.0,1.0,-7.86585378647,-0.792682945728,-9.39024448395,1.0,0.0,0.0,0.0,1.0,0.0,0.0,0.0,1.0,0.603338854892,3.01190568848,-10.4099888184,1.0,0.0,0.0,0.0,1.0,0.0,0.0,0.0,1.0
1463662449038853760,549,1463662449015759599,,-10.6272163391,-6.35964107513,153.210662842,0.0103139998391,1.0,0.0,0.0,0.0,1.0,0.0,0.0,0.0,1.0,-2.86585378647,1.52439022064,-9.08536529541,1.0,0.0,0.0,0.0,1.0,0.0,0.0,0.0,1.0,0.445321508789,3.3710359375,-10.3573163818,1.0,0.0,0.0,0.0,1.0,0.0,0.0,0.0,1.0
1463662449038890328,550,1463662449024757310,,-10.6697072983,-6.36961221695,153.084991455,0.00985100027174,1.0,0.0,0.0,0.0,1.0,0.0,0.0,0.0,1.0,0.792682945728,2.31707310677,-8.96341514587,1.0,0.0,0.0,0.0,1.0,0.0,0.0,0.0,1.0,0.512359155273,3.00232888184,-10.2519715088,1.0,0.0,0.0,0.0,1.0,0.0,0.0,0.0,1.0
1463662449038946378,551,1463662449034684642,,-10.6686449051,-6.33420228958,152.95753479,0.0100929997861,1.0,0.0,0.0,0.0,1.0,0.0,0.0,0.0,1.0,2.31707310677,4.75609779358,-8.04878044128,1.0,0.0,0.0,0.0,1.0,0.0,0.0,0.0,1.0,0.881066210937,2.47081611328,-10.3716815918,1.0,0.0,0.0,0.0,1.0,0.0,0.0,0.0,1.0
1463662449046950347,552,1463662449044571394,,-10.6621351242,-6.29800653458,152.825637817,0.0100889997557,1.0,0.0,0.0,0.0,1.0,0.0,0.0,0.0,1.0,0.731707334518,3.29268312454,-8.5365858078,1.0,0.0,0.0,0.0,1.0,0.0,0.0,0.0,1.0,1.19710090314,2.08295529821,-10.4482960449,1.0,0.0,0.0,0.0,1.0,0.0,0.0,0.0,1.0
1463662449077629455,553,1463662449054918632,,-10.6760225296,-6.26438808441,152.677642822,0.0101349996403,1.0,0.0,0.0,0.0,1.0,0.0,0.0,0.0,1.0,-1.03658533096,4.57317066193,-9.87804889679,1.0,0.0,0.0,0.0,1.0,0.0,0.0,0.0,1.0,0.972045874023,2.1930887207,-10.6063133545,1.0,0.0,0.0,0.0,1.0,0.0,0.0,0.0,1.0
1463662449077685297,554,1463662449065208206,,-10.7020254135,-6.24526309967,152.511260986,0.0100760003552,1.0,0.0,0.0,0.0,1.0,0.0,0.0,0.0,1.0,-0.304878056049,4.08536577225,-12.1341466904,1.0,0.0,0.0,0.0,1.0,0.0,0.0,0.0,1.0,0.876277807617,2.59052619629,-10.4818148682,1.0,0.0,0.0,0.0,1.0,0.0,0.0,0.0,1.0
1463662449077886837,555,1463662449074922744,,-10.7248601913,-6.22486352921,152.328063965,0.0100680002943,1.0,0.0,0.0,0.0,1.0,0.0,0.0,0.0,1.0,2.31707310677,6.46341466904,-13.658536911,1.0,0.0,0.0,0.0,1.0,0.0,0.0,0.0,1.0,0.517147558594,3.08373173828,-10.4530844482,1.0,0.0,0.0,0.0,1.0,0.0,0.0,0.0,1.0
1463662449091876865,556,1463662449084769595,,-10.7160987854,-6.1975107193,152.126434326,0.0101100001484,1.0,0.0,0.0,0.0,1.0,0.0,0.0,0.0,1.0,6.7682929039,7.62195110321,-15.3658533096,1.0,0.0,0.0,0.0,1.0,0.0,0.0,0.0,1.0,0.497993945312,3.36624753418,-10.3668931885,1.0,0.0,0.0,0.0,1.0,0.0,0.0,0.0,1.0
1463662449101555773,557,1463662449095119698,,-10.6755313873,-6.14908742905,151.910812378,0.010095000267,1.0,0.0,0.0,0.0,1.0,0.0,0.0,0.0,1.0,11.7073173523,11.0975618362,-16.341463089,1.0,0.0,0.0,0.0,1.0,0.0,0.0,0.0,1.0,0.282515795898,3.67749375,-10.1322614258,1.0,0.0,0.0,0.0,1.0,0.0,0.0,0.0,1.0
1463662449107927568,558,1463662449105362598,,-10.5820102692,-6.08669185638,151.67364502,0.0101450001821,1.0,0.0,0.0,0.0,1.0,0.0,0.0,0.0,1.0,17.7439022064,12.7439022064,-18.1707305908,1.0,0.0,0.0,0.0,1.0,0.0,0.0,0.0,1.0,0.31124621582,3.9360675293,-10.2711251221,1.0,0.0,0.0,0.0,1.0,0.0,0.0,0.0,1.0
1463662449120075286,559,1463662449115508556,,-10.4368000031,-5.99806451797,151.406707764,0.0100769996643,1.0,0.0,0.0,0.0,1.0,0.0,0.0,0.0,1.0,23.2317085266,14.8170728683,-20.975610733,1.0,0.0,0.0,0.0,1.0,0.0,0.0,0.0,1.0,0.531512805087,3.99831677246,-10.1562034424,1.0,0.0,0.0,0.0,1.0,0.0,0.0,0.0,1.0
1463662449132858569,560,1463662449125512096,,-10.2206087112,-5.89688491821,151.103775024,0.010161999613,1.0,0.0,0.0,0.0,1.0,0.0,0.0,0.0,1.0,29.3902435303,15.7926826477,-24.0853652954,1.0,0.0,0.0,0.0,1.0,0.0,0.0,0.0,1.0,0.670376464844,3.84987626953,-10.0700121826,1.0,0.0,0.0,0.0,1.0,0.0,0.0,0.0,1.0
1463662449141105856,561,1463662449135769113,,-9.9751958847,-5.79103708267,150.778991699,0.0100400000811,1.0,0.0,0.0,0.0,1.0,0.0,0.0,0.0,1.0,33.8414649963,15.9146347046,-26.7682933807,1.0,0.0,0.0,0.0,1.0,0.0,0.0,0.0,1.0,0.823605371094,3.94085593262,-9.62947966167,1.0,0.0,0.0,0.0,1.0,0.0,0.0,0.0,1.0
1463662449150487427,562,1463662449146181100,,-9.68654823303,-5.67156362534,150.429641724,0.010108999908,1.0,0.0,0.0,0.0,1.0,0.0,0.0,0.0,1.0,36.4634170532,15.9146347046,-28.8414649963,1.0,0.0,0.0,0.0,1.0,0.0,0.0,0.0,1.0,1.08696755371,3.57214887695,-9.47624958638,1.0,0.0,0.0,0.0,1.0,0.0,0.0,0.0,1.0
1463662449172790793,563,1463662449155769005,,-9.39578056335,-5.5455365181,150.066711426,0.0100880004466,1.0,0.0,0.0,0.0,1.0,0.0,0.0,0.0,1.0,35.7317085266,15.7926826477,-30.1829280853,1.0,0.0,0.0,0.0,1.0,0.0,0.0,0.0,1.0,1.26413847656,3.37582434082,-9.58159562847,1.0,0.0,0.0,0.0,1.0,0.0,0.0,0.0,1.0
1463662449173094068,564,1463662449165948354,,-9.09951400757,-5.41222858429,149.69178772,0.0101140001789,1.0,0.0,0.0,0.0,1.0,0.0,0.0,0.0,1.0,34.1463432312,14.8780498505,-31.2195129395,1.0,0.0,0.0,0.0,1.0,0.0,0.0,0.0,1.0,1.55144267578,2.93050283203,-9.55765361187,1.0,0.0,0.0,0.0,1.0,0.0,0.0,0.0,1.0
1463662449178762423,565,1463662449176307521,,-8.84677791595,-5.26976966858,149.30696106,0.0101169999689,1.0,0.0,0.0,0.0,1.0,0.0,0.0,0.0,1.0,29.8780498505,14.3902444839,-32.2560958862,1.0,0.0,0.0,0.0,1.0,0.0,0.0,0.0,1.0,1.8866309082,2.98317526855,-9.86411083984,1.0,0.0,0.0,0.0,1.0,0.0,0.0,0.0,1.0
1463662449191205082,566,1463662449186037427,,-8.65399360657,-5.13546943665,148.905853271,0.010095000267,1.0,0.0,0.0,0.0,1.0,0.0,0.0,0.0,1.0,26.4024391174,12.5609760284,-34.4512214661,1.0,0.0,0.0,0.0,1.0,0.0,0.0,0.0,1.0,2.32237546422,3.64397492676,-10.4578728516,1.0,0.0,0.0,0.0,1.0,0.0,0.0,0.0,1.0
1463662449198608959,567,1463662449196323093,,-8.36850357056,-5.0175485611,148.512649536,0.0100899999961,1.0,0.0,0.0,0.0,1.0,0.0,0.0,0.0,1.0,28.7804889679,11.2195119858,-33.2317085266,1.0,0.0,0.0,0.0,1.0,0.0,0.0,0.0,1.0,2.18351191406,2.23618435059,-10.778695874,1.0,0.0,0.0,0.0,1.0,0.0,0.0,0.0,1.0
1463662449211800533,568,1463662449206507286,,-8.13603973389,-4.91255235672,148.151367188,0.0101199997589,1.0,0.0,0.0,0.0,1.0,0.0,0.0,0.0,1.0,27.8658542633,9.45121955872,-30.5487804413,1.0,0.0,0.0,0.0,1.0,0.0,0.0,0.0,1.0,2.01112939453,2.72938989258,-9.74918916016,1.0,0.0,0.0,0.0,1.0,0.0,0.0,0.0,1.0
1463662449219214412,569,1463662449216650952,,-7.85097408295,-4.77538347244,147.829940796,0.0100880004466,1.0,0.0,0.0,0.0,1.0,0.0,0.0,0.0,1.0,27.317073822,8.5365858078,-26.2804889679,1.0,0.0,0.0,0.0,1.0,0.0,0.0,0.0,1.0,2.5234885498,1.47482822266,-9.36132790669,1.0,0.0,0.0,0.0,1.0,0.0,0.0,0.0,1.0
1463662449228819715,570,1463662449226357052,,-7.60067462921,-4.63863658905,147.554916382,0.0101169999689,1.0,0.0,0.0,0.0,1.0,0.0,0.0,0.0,1.0,23.9634151459,6.95121955872,-21.7682933807,1.0,0.0,0.0,0.0,1.0,0.0,0.0,0.0,1.0,2.67192905273,1.36948334961,-9.31823227681,1.0,0.0,0.0,0.0,1.0,0.0,0.0,0.0,1.0
1463662449241185644,571,1463662449236697779,,-7.38351297379,-4.54416751862,147.332229614,0.0100750001147,1.0,0.0,0.0,0.0,1.0,0.0,0.0,0.0,1.0,18.5975627899,3.04878044128,-16.9512195587,1.0,0.0,0.0,0.0,1.0,0.0,0.0,0.0,1.0,2.50433493652,0.876277807617,-9.38048151997,1.0,0.0,0.0,0.0,1.0,0.0,0.0,0.0,1.0
1463662449256540409,572,1463662449246906820,,-7.22972869873,-4.479367733,147.15083313,0.0100940000266,1.0,0.0,0.0,0.0,1.0,0.0,0.0,0.0,1.0,11.1585359573,0.0609756112099,-13.048781395,1.0,0.0,0.0,0.0,1.0,0.0,0.0,0.0,1.0,2.43729729004,0.593762048251,-9.48582756206,1.0,0.0,0.0,0.0,1.0,0.0,0.0,0.0,1.0
1463662449259543987,573,1463662449256882023,,-7.15812349319,-4.4545378685,146.981552124,0.0101279998198,1.0,0.0,0.0,0.0,1.0,0.0,0.0,0.0,1.0,3.71951246262,-2.01219511032,-12.0731716156,1.0,0.0,0.0,0.0,1.0,0.0,0.0,0.0,1.0,2.10210891149,0.694318481445,-9.66778688823,1.0,0.0,0.0,0.0,1.0,0.0,0.0,0.0,1.0
1463662449278667862,574,1463662449266725904,,-7.17173290253,-4.47083282471,146.820587158,0.0100739998743,1.0,0.0,0.0,0.0,1.0,0.0,0.0,0.0,1.0,-1.95121955872,-4.39024400711,-11.8292684555,1.0,0.0,0.0,0.0,1.0,0.0,0.0,0.0,1.0,1.81001645508,1.17315874041,-9.7827079834,1.0,0.0,0.0,0.0,1.0,0.0,0.0,0.0,1.0
1463662449289344108,575,1463662449277137266,,-7.25038909912,-4.53774738312,146.63999939,0.0101150004193,1.0,0.0,0.0,0.0,1.0,0.0,0.0,0.0,1.0,-5.97560977936,-7.19512224197,-14.2682924271,1.0,0.0,0.0,0.0,1.0,0.0,0.0,0.0,1.0,1.51313544922,1.68551796875,-10.0939541992,1.0,0.0,0.0,0.0,1.0,0.0,0.0,0.0,1.0
1463662449289799958,576,1463662449287125023,,-7.34141969681,-4.62938785553,146.428939819,0.0100819999352,1.0,0.0,0.0,0.0,1.0,0.0,0.0,0.0,1.0,-6.64634132385,-8.10975551605,-17.5609760284,1.0,0.0,0.0,0.0,1.0,0.0,0.0,0.0,1.0,1.28808049316,1.84832368164,-10.046070166,1.0,0.0,0.0,0.0,1.0,0.0,0.0,0.0,1.0
1463662449419790822,577,1463662449297477575,,-7.44873714447,-4.73961257935,146.181915283,0.0101420003921,1.0,0.0,0.0,0.0,1.0,0.0,0.0,0.0,1.0,-7.13414621353,-8.78048801422,-21.2195129395,1.0,0.0,0.0,0.0,1.0,0.0,0.0,0.0,1.0,1.13006318359,2.05422502441,-9.72524714355,1.0,0.0,0.0,0.0,1.0,0.0,0.0,0.0,1.0
1463662449420000854,578,1463662449306975519,,-7.55642700195,-4.86409139633,145.89805603,0.010048000142,1.0,0.0,0.0,0.0,1.0,0.0,0.0,0.0,1.0,-6.40243911743,-9.5731716156,-25.3658542633,1.0,0.0,0.0,0.0,1.0,0.0,0.0,0.0,1.0,1.0534486574,2.2170307373,-9.37090471333,1.0,0.0,0.0,0.0,1.0,0.0,0.0,0.0,1.0
1463662449420337519,579,1463662449317082148,,-7.66384267807,-5.00968122482,145.576568604,0.0101490002126,1.0,0.0,0.0,0.0,1.0,0.0,0.0,0.0,1.0,-6.15853643417,-10.6097564697,-29.0243911743,1.0,0.0,0.0,0.0,1.0,0.0,0.0,0.0,1.0,0.933738647461,2.24097275391,-9.05965908203,1.0,0.0,0.0,0.0,1.0,0.0,0.0,0.0,1.0
1463662449420767115,580,1463662449327858461,,-7.76124715805,-5.1719417572,145.22833252,0.0100579997525,1.0,0.0,0.0,0.0,1.0,0.0,0.0,0.0,1.0,-6.0365858078,-11.7073173523,-32.134147644,1.0,0.0,0.0,0.0,1.0,0.0,0.0,0.0,1.0,0.857124194336,2.15478164027,-8.93994899902,1.0,0.0,0.0,0.0,1.0,0.0,0.0,0.0,1.0
1463662449421080600,581,1463662449337703228,,-7.86656093597,-5.34683942795,144.858352661,0.0101549997926,1.0,0.0,0.0,0.0,1.0,0.0,0.0,0.0,1.0,-6.82926845551,-12.6829271317,-34.1463432312,1.0,0.0,0.0,0.0,1.0,0.0,0.0,0.0,1.0,0.847547387695,2.14999323695,-8.74362446289,1.0,0.0,0.0,0.0,1.0,0.0,0.0,0.0,1.0
1463662449421374134,582,1463662449347509968,,-7.98007965088,-5.52138710022,144.481887817,0.0100459996611,1.0,0.0,0.0,0.0,1.0,0.0,0.0,0.0,1.0,-7.37804937363,-12.6829271317,-35.3048782349,1.0,0.0,0.0,0.0,1.0,0.0,0.0,0.0,1.0,0.852335791016,2.30801040039,-8.90643017578,1.0,0.0,0.0,0.0,1.0,0.0,0.0,0.0,1.0
1463662449421640372,583,1463662449359288829,,-8.11314296722,-5.69573926926,144.100112915,0.0102180000395,1.0,0.0,0.0,0.0,1.0,0.0,0.0,0.0,1.0,-8.23170757294,-12.7439022064,-35.3658561707,1.0,0.0,0.0,0.0,1.0,0.0,0.0,0.0,1.0,0.928950244141,2.54743056641,-9.08838950195,1.0,0.0,0.0,0.0,1.0,0.0,0.0,0.0,1.0
1463662449421918643,584,1463662449367746094,,-8.24376678467,-5.86445951462,143.730636597,0.00998600013554,1.0,0.0,0.0,0.0,1.0,0.0,0.0,0.0,1.0,-7.86585378647,-12.2560977936,-35.0609741211,1.0,0.0,0.0,0.0,1.0,0.0,0.0,0.0,1.0,0.861912597656,2.67192905273,-9.13627353516,1.0,0.0,0.0,0.0,1.0,0.0,0.0,0.0,1.0
1463662449422231191,585,1463662449378152404,,-8.37707233429,-6.02928829193,143.362014771,0.0102049997076,1.0,0.0,0.0,0.0,1.0,0.0,0.0,0.0,1.0,-7.01219511032,-11.2804880142,-34.2073173523,1.0,0.0,0.0,0.0,1.0,0.0,0.0,0.0,1.0,0.794874951172,2.84431157227,-9.12669672852,1.0,0.0,0.0,0.0,1.0,0.0,0.0,0.0,1.0
1463662449422532330,586,1463662449388114272,,-8.51002597809,-6.17297410965,143.006149292,0.0100229997188,1.0,0.0,0.0,0.0,1.0,0.0,0.0,0.0,1.0,-5.67073154449,-10.0609760284,-33.6585388184,1.0,0.0,0.0,0.0,1.0,0.0,0.0,0.0,1.0,0.895431420898,3.18428820801,-9.20331118164,1.0,0.0,0.0,0.0,1.0,0.0,0.0,0.0,1.0
1463662449422845137,587,1463662449398462552,,-8.62056159973,-6.29720306396,142.653335571,0.010098000057,1.0,0.0,0.0,0.0,1.0,0.0,0.0,0.0,1.0,-2.98780488968,-8.59756088257,-32.9878044128,1.0,0.0,0.0,0.0,1.0,0.0,0.0,0.0,1.0,0.981622680664,3.30399829102,-9.2655604248,1.0,0.0,0.0,0.0,1.0,0.0,0.0,0.0,1.0
1463662449423187220,588,1463662449408598977,,-8.70564079285,-6.42030620575,142.309310913,0.0101030003279,1.0,0.0,0.0,0.0,1.0,0.0,0.0,0.0,1.0,-0.18292683363,-8.23170757294,-32.134147644,1.0,0.0,0.0,0.0,1.0,0.0,0.0,0.0,1.0,0.905008227539,3.36145913086,-9.23683000488,1.0,0.0,0.0,0.0,1.0,0.0,0.0,0.0,1.0
1463662449423519197,589,1463662449418338259,,-8.75967025757,-6.53433513641,141.975860596,0.0100790001452,1.0,0.0,0.0,0.0,1.0,0.0,0.0,0.0,1.0,2.68292689323,-8.04878044128,-31.158536911,1.0,0.0,0.0,0.0,1.0,0.0,0.0,0.0,1.0,0.986411083984,3.33272871094,-9.23204160156,1.0,0.0,0.0,0.0,1.0,0.0,0.0,0.0,1.0
1463662449474548772,590,1463662449428946891,,-8.46636867523,-6.56509017944,141.631866455,0.0102540003136,1.0,0.0,0.0,0.0,1.0,0.0,0.0,0.0,1.0,4.2682929039,-3.59756112099,-27.1951236725,1.0,0.0,0.0,0.0,1.0,0.0,0.0,0.0,1.0,1.47961662598,-2.15957004359,-8.69095202637,1.0,0.0,0.0,0.0,1.0,0.0,0.0,0.0,1.0
1463662449474844806,591,1463662449438440980,,-8.45031452179,-6.70728349686,141.326080322,0.00995100010186,1.0,0.0,0.0,0.0,1.0,0.0,0.0,0.0,1.0,-4.51219558716,-14.8170728683,-28.0487804413,1.0,0.0,0.0,0.0,1.0,0.0,0.0,0.0,1.0,1.32638771973,0.732625708008,-8.65264538433,1.0,0.0,0.0,0.0,1.0,0.0,0.0,0.0,1.0
1463662449475161156,592,1463662449448916259,,-8.55298423767,-6.77370738983,141.009155273,0.0101159997284,1.0,0.0,0.0,0.0,1.0,0.0,0.0,0.0,1.0,-13.841463089,-13.2926826477,-28.7195110321,1.0,0.0,0.0,0.0,1.0,0.0,0.0,0.0,1.0,2.3654710941,1.12048637695,-8.58081933452,1.0,0.0,0.0,0.0,1.0,0.0,0.0,0.0,1.0
1463662449475481986,593,1463662449458967463,,-8.68623542786,-6.91233110428,140.683929443,0.0101079996675,1.0,0.0,0.0,0.0,1.0,0.0,0.0,0.0,1.0,-14.2682924271,-17.6829280853,-30.6097583771,1.0,0.0,0.0,0.0,1.0,0.0,0.0,0.0,1.0,2.12605122035,1.72382519531,-9.35653950337,1.0,0.0,0.0,0.0,1.0,0.0,0.0,0.0,1.0
1463662449475810994,594,1463662449469042629,,-8.85297012329,-7.12292194366,140.336334229,0.0100990002975,1.0,0.0,0.0,0.0,1.0,0.0,0.0,0.0,1.0,-12.6829271317,-21.341463089,-34.1463432312,1.0,0.0,0.0,0.0,1.0,0.0,0.0,0.0,1.0,1.59453830566,2.65277543945,-9.23204160156,1.0,0.0,0.0,0.0,1.0,0.0,0.0,0.0,1.0
1463662449506392014,595,1463662449479214685,,-8.77557945251,-7.19229221344,139.958145142,0.0100959995762,1.0,0.0,0.0,0.0,1.0,0.0,0.0,0.0,1.0,-16.2195110321,-15.3048791885,-32.865852356,1.0,0.0,0.0,0.0,1.0,0.0,0.0,0.0,1.0,2.40856701625,-1.69030637207,-7.12514414062,1.0,0.0,0.0,0.0,1.0,0.0,0.0,0.0,1.0
1463662449506435094,596,1463662449489061014,,-9.11377620697,-7.4262137413,139.618011475,0.0101030003279,1.0,0.0,0.0,0.0,1.0,0.0,0.0,0.0,1.0,-26.7073173523,-26.8902454376,-34.7560997009,1.0,0.0,0.0,0.0,1.0,0.0,0.0,0.0,1.0,2.49475812988,3.6535517334,-10.3716815918,1.0,0.0,0.0,0.0,1.0,0.0,0.0,0.0,1.0
1463662449506474839,597,1463662449499224162,,-9.37034893036,-7.57189941406,139.294921875,0.0100919995457,1.0,0.0,0.0,0.0,1.0,0.0,0.0,0.0,1.0,-20.0,-22.3780498505,-32.4390220642,1.0,0.0,0.0,0.0,1.0,0.0,0.0,0.0,1.0,3.05978972168,3.16513459473,-9.52413478862,1.0,0.0,0.0,0.0,1.0,0.0,0.0,0.0,1.0
1463662449561851164,598,1463662449509329854,,-9.63799190521,-7.78339958191,138.962799072,0.0101150004193,1.0,0.0,0.0,0.0,1.0,0.0,0.0,0.0,1.0,-23.9634151459,-28.4146347046,-34.0853691101,1.0,0.0,0.0,0.0,1.0,0.0,0.0,0.0,1.0,3.10767375488,2.81558115234,-10.0077629395,1.0,0.0,0.0,0.0,1.0,0.0,0.0,0.0,1.0
1463662449562117454,599,1463662449519671831,,-9.96517086029,-8.06868362427,138.623016357,0.0101720001549,1.0,0.0,0.0,0.0,1.0,0.0,0.0,0.0,1.0,-23.2317085266,-33.2317085266,-36.6463432312,1.0,0.0,0.0,0.0,1.0,0.0,0.0,0.0,1.0,2.71502468262,4.07014282227,-9.56723041851,1.0,0.0,0.0,0.0,1.0,0.0,0.0,0.0,1.0
1463662449562471153,600,1463662449529318703,,-10.2441043854,-8.42063426971,138.269958496,0.0100699998438,1.0,0.0,0.0,0.0,1.0,0.0,0.0,0.0,1.0,-14.0243902206,-34.3292694092,-39.5731735229,1.0,0.0,0.0,0.0,1.0,0.0,0.0,0.0,1.0,1.85311208496,5.55933625488,-10.165780249,1.0,0.0,0.0,0.0,1.0,0.0,0.0,0.0,1.0
1463662449562516837,601,1463662449539833727,,-10.4097528458,-8.87594032288,137.905059814,0.0100819999352,1.0,0.0,0.0,0.0,1.0,0.0,0.0,0.0,1.0,-2.01219511032,-40.2439041138,-42.2560958862,1.0,0.0,0.0,0.0,1.0,0.0,0.0,0.0,1.0,1.03908344744,6.11479104004,-10.5680061279,1.0,0.0,0.0,0.0,1.0,0.0,0.0,0.0,1.0
1463662449562745361,602,1463662449549486746,,-10.4664516449,-9.29771327972,137.526611328,0.0100889997557,1.0,0.0,0.0,0.0,1.0,0.0,0.0,0.0,1.0,7.50000047684,-32.865852356,-42.317073822,1.0,0.0,0.0,0.0,1.0,0.0,0.0,0.0,1.0,0.0957680664062,5.88973608398,-10.5057568848,1.0,0.0,0.0,0.0,1.0,0.0,0.0,0.0,1.0
1463662449562799692,603,1463662449559610565,,-10.3845920563,-9.6962852478,137.138092041,0.0100969998166,1.0,0.0,0.0,0.0,1.0,0.0,0.0,0.0,1.0,17.7439022064,-26.9512195587,-41.7682952881,1.0,0.0,0.0,0.0,1.0,0.0,0.0,0.0,1.0,-0.799663354492,5.34864650879,-10.9175595703,1.0,0.0,0.0,0.0,1.0,0.0,0.0,0.0,1.0
1463662449587429815,604,1463662449570890444,,-10.2063531876,-9.99339485168,136.762039185,0.0100990002975,1.0,0.0,0.0,0.0,1.0,0.0,0.0,0.0,1.0,26.4634151459,-18.5975627899,-38.8414649963,1.0,0.0,0.0,0.0,1.0,0.0,0.0,0.0,1.0,-0.612915625,5.07570751953,-10.8074262939,1.0,0.0,0.0,0.0,1.0,0.0,0.0,0.0,1.0
1463662449587793880,605,1463662449580062818,,-9.93446445465,-10.2068719864,136.399505615,0.0102279996499,1.0,0.0,0.0,0.0,1.0,0.0,0.0,0.0,1.0,28.3536586761,-11.0365858078,-34.3292694092,1.0,0.0,0.0,0.0,1.0,0.0,0.0,0.0,1.0,-0.660799658203,3.4189199707,-10.8792523438,1.0,0.0,0.0,0.0,1.0,0.0,0.0,0.0,1.0
1463662449594808064,606,1463662449590546171,,-9.69355392456,-10.3509349823,136.09072876,0.00996599998325,1.0,0.0,0.0,0.0,1.0,0.0,0.0,0.0,1.0,25.0,-5.24390268326,-28.475610733,1.0,0.0,0.0,0.0,1.0,0.0,0.0,0.0,1.0,-0.794874951172,3.02148249512,-10.898405957,1.0,0.0,0.0,0.0,1.0,0.0,0.0,0.0,1.0
1463662449603608871,607,1463662449601240493,,-9.47207546234,-10.4263858795,135.806518555,0.0100899999961,1.0,0.0,0.0,0.0,1.0,0.0,0.0,0.0,1.0,25.182926178,1.52439022064,-24.817073822,1.0,0.0,0.0,0.0,1.0,0.0,0.0,0.0,1.0,-0.900219824219,3.35667072754,-10.7834842773,1.0,0.0,0.0,0.0,1.0,0.0,0.0,0.0,1.0
1463662449613459159,608,1463662449610781515,,-9.2422580719,-10.4387388229,135.540084839,0.0101129999384,1.0,0.0,0.0,0.0,1.0,0.0,0.0,0.0,1.0,27.2560977936,8.41463470459,-22.0121955872,1.0,0.0,0.0,0.0,1.0,0.0,0.0,0.0,1.0,-1.14921679688,3.56257207031,-10.8888291504,1.0,0.0,0.0,0.0,1.0,0.0,0.0,0.0,1.0
1463662449644872753,609,1463662449620584349,,-8.98844528198,-10.352478981,135.268463135,0.0100870002061,1.0,0.0,0.0,0.0,1.0,0.0,0.0,0.0,1.0,30.6707305908,16.2195110321,-21.5243911743,1.0,0.0,0.0,0.0,1.0,0.0,0.0,0.0,1.0,-0.77093293457,3.77805021973,-10.9893856201,1.0,0.0,0.0,0.0,1.0,0.0,0.0,0.0,1.0
1463662449645137376,610,1463662449630814695,,-8.69050502777,-10.1644496918,134.983444214,0.0101659996435,1.0,0.0,0.0,0.0,1.0,0.0,0.0,0.0,1.0,35.4878044128,23.9634151459,-21.5853652954,1.0,0.0,0.0,0.0,1.0,0.0,0.0,0.0,1.0,-0.292092584273,3.81156904297,-10.7451770508,1.0,0.0,0.0,0.0,1.0,0.0,0.0,0.0,1.0
1463662449645513319,611,1463662449640861992,,-8.36614322662,-9.90577411652,134.699066162,0.0100809996948,1.0,0.0,0.0,0.0,1.0,0.0,0.0,0.0,1.0,38.9024391174,28.0487804413,-21.2804889679,1.0,0.0,0.0,0.0,1.0,0.0,0.0,0.0,1.0,0.354341845703,3.92649072266,-10.9558667969,1.0,0.0,0.0,0.0,1.0,0.0,0.0,0.0,1.0
1463662449664919372,612,1463662449651655547,,-7.98544359207,-9.5750951767,134.410324097,0.0103029999882,1.0,0.0,0.0,0.0,1.0,0.0,0.0,0.0,1.0,42.9878044128,32.1951217651,-20.4268302917,1.0,0.0,0.0,0.0,1.0,0.0,0.0,0.0,1.0,0.814028564453,3.62482131348,-10.8361567139,1.0,0.0,0.0,0.0,1.0,0.0,0.0,0.0,1.0
1463662449664956409,613,1463662449661121872,,-7.59242582321,-9.23899364471,134.138259888,0.00996499974281,1.0,0.0,0.0,0.0,1.0,0.0,0.0,0.0,1.0,43.2317085266,33.4146347046,-19.2073173523,1.0,0.0,0.0,0.0,1.0,0.0,0.0,0.0,1.0,0.885854614258,3.07415493164,-11.0995188965,1.0,0.0,0.0,0.0,1.0,0.0,0.0,0.0,1.0
1463662449702758154,614,1463662449671762227,,-7.19943332672,-8.88862037659,133.879592896,0.0100050000474,1.0,0.0,0.0,0.0,1.0,0.0,0.0,0.0,1.0,41.2195129395,34.0853691101,-17.4390239716,1.0,0.0,0.0,0.0,1.0,0.0,0.0,0.0,1.0,1.04866025408,2.69587106934,-11.8943938477,1.0,0.0,0.0,0.0,1.0,0.0,0.0,0.0,1.0
1463662449702819622,615,1463662449680908972,,-6.8283200264,-8.52781677246,133.641937256,0.0100840004161,1.0,0.0,0.0,0.0,1.0,0.0,0.0,0.0,1.0,38.5975608826,34.2682952881,-15.1829271317,1.0,0.0,0.0,0.0,1.0,0.0,0.0,0.0,1.0,1.13963999023,2.4516625,-11.8321446045,1.0,0.0,0.0,0.0,1.0,0.0,0.0,0.0,1.0
1463662449704805598,616,1463662449691030082,,-6.47962331772,-8.17332077026,133.42755127,0.0100959995762,1.0,0.0,0.0,0.0,1.0,0.0,0.0,0.0,1.0,35.5487823486,34.7560997009,-12.7439022064,1.0,0.0,0.0,0.0,1.0,0.0,0.0,0.0,1.0,0.857124194336,2.08774370153,-11.8177793945,1.0,0.0,0.0,0.0,1.0,0.0,0.0,0.0,1.0
1463662449704865816,617,1463662449701702682,,-6.16405200958,-7.81174755096,133.231796265,0.0101659996435,1.0,0.0,0.0,0.0,1.0,0.0,0.0,0.0,1.0,32.134147644,38.0487823486,-10.4878053665,1.0,0.0,0.0,0.0,1.0,0.0,0.0,0.0,1.0,0.244208569336,1.96803376465,-11.9805851074,1.0,0.0,0.0,0.0,1.0,0.0,0.0,0.0,1.0
1463662450004257449,618,1463662449711500879,,-5.87582874298,-7.41180086136,133.05921936,0.0100999996066,1.0,0.0,0.0,0.0,1.0,0.0,0.0,0.0,1.0,29.2073173523,41.5853652954,-7.98780536652,1.0,0.0,0.0,0.0,1.0,0.0,0.0,0.0,1.0,0.339976635742,1.66157595215,-11.5927244385,1.0,0.0,0.0,0.0,1.0,0.0,0.0,0.0,1.0
1463662450004549680,619,1463662449721353668,,-5.62058830261,-6.97617006302,132.910964966,0.0100710000843,1.0,0.0,0.0,0.0,1.0,0.0,0.0,0.0,1.0,25.2439041138,45.365852356,-5.24390268326,1.0,0.0,0.0,0.0,1.0,0.0,0.0,0.0,1.0,0.31124621582,1.30244570312,-11.166556543,1.0,0.0,0.0,0.0,1.0,0.0,0.0,0.0,1.0
1463662450004598073,620,1463662449731489677,,-5.41716241837,-6.50546836853,132.780700684,0.0100520001724,1.0,0.0,0.0,0.0,1.0,0.0,0.0,0.0,1.0,20.7317085266,48.6585388184,-3.35365867615,1.0,0.0,0.0,0.0,1.0,0.0,0.0,0.0,1.0,0.402225878906,1.28808049316,-11.0037508301,1.0,0.0,0.0,0.0,1.0,0.0,0.0,0.0,1.0
1463662450004845350,621,1463662449742045228,,-5.24566268921,-5.99430465698,132.66053772,0.0102249998599,1.0,0.0,0.0,0.0,1.0,0.0,0.0,0.0,1.0,18.0487823486,50.9146347046,-2.13414645195,1.0,0.0,0.0,0.0,1.0,0.0,0.0,0.0,1.0,0.632069238281,1.32638771973,-10.7643306641,1.0,0.0,0.0,0.0,1.0,0.0,0.0,0.0,1.0
1463662450004888586,622,1463662449752488210,,-5.11750650406,-5.47074747086,132.542755127,0.0100020002574,1.0,0.0,0.0,0.0,1.0,0.0,0.0,0.0,1.0,15.3048791885,51.5853691101,-2.31707310677,1.0,0.0,0.0,0.0,1.0,0.0,0.0,0.0,1.0,1.02471831055,1.4604630127,-10.4004120117,1.0,0.0,0.0,0.0,1.0,0.0,0.0,0.0,1.0
1463662450005137009,623,1463662449761753722,,-5.00550079346,-4.95032930374,132.413452148,0.0100830001757,1.0,0.0,0.0,0.0,1.0,0.0,0.0,0.0,1.0,13.658536911,50.4268302917,-3.53658556938,1.0,0.0,0.0,0.0,1.0,0.0,0.0,0.0,1.0,1.18273554705,1.40300217285,-10.0891657959,1.0,0.0,0.0,0.0,1.0,0.0,0.0,0.0,1.0
1463662450005203373,624,1463662449772414498,,-4.93002176285,-4.42769479752,132.259460449,0.0101250000298,1.0,0.0,0.0,0.0,1.0,0.0,0.0,0.0,1.0,12.1951217651,49.0243911743,-6.28048801422,1.0,0.0,0.0,0.0,1.0,0.0,0.0,0.0,1.0,1.60890351563,1.82438166504,-10.1897222656,1.0,0.0,0.0,0.0,1.0,0.0,0.0,0.0,1.0
1463662450005260621,625,1463662449781912962,,-4.8454284668,-3.93921852112,132.074645996,0.0100809996948,1.0,0.0,0.0,0.0,1.0,0.0,0.0,0.0,1.0,12.7439022064,46.8292694092,-9.5731716156,1.0,0.0,0.0,0.0,1.0,0.0,0.0,0.0,1.0,1.5562310791,1.74297880859,-10.1274730225,1.0,0.0,0.0,0.0,1.0,0.0,0.0,0.0,1.0
1463662450005316827,626,1463662449792789499,,-4.74320363998,-3.49054670334,131.842269897,0.0101910000667,1.0,0.0,0.0,0.0,1.0,0.0,0.0,0.0,1.0,13.841463089,43.2317085266,-14.3292694092,1.0,0.0,0.0,0.0,1.0,0.0,0.0,0.0,1.0,1.57059628906,1.67115275879,-10.2471831055,1.0,0.0,0.0,0.0,1.0,0.0,0.0,0.0,1.0
1463662450005358136,627,1463662449802981245,,-4.64024209976,-3.08635926247,131.572463989,0.0100459996611,1.0,0.0,0.0,0.0,1.0,0.0,0.0,0.0,1.0,15.2439022064,40.3048782349,-18.7195110321,1.0,0.0,0.0,0.0,1.0,0.0,0.0,0.0,1.0,1.51792385254,1.84353527832,-10.0077629395,1.0,0.0,0.0,0.0,1.0,0.0,0.0,0.0,1.0
1463662450005396475,628,1463662449813255087,,-4.51812410355,-2.69902443886,131.250640869,0.0102770002559,1.0,0.0,0.0,0.0,1.0,0.0,0.0,0.0,1.0,16.0365848541,38.5365829468,-23.2926845551,1.0,0.0,0.0,0.0,1.0,0.0,0.0,0.0,1.0,1.5322890625,1.71424838867,-10.2376062988,1.0,0.0,0.0,0.0,1.0,0.0,0.0,0.0,1.0
1463662450006792675,629,1463662449823074225,,-4.37366294861,-2.34005379677,130.899459839,0.00993399973959,1.0,0.0,0.0,0.0,1.0,0.0,0.0,0.0,1.0,16.7682933807,37.0731697083,-27.3780498505,1.0,0.0,0.0,0.0,1.0,0.0,0.0,0.0,1.0,1.57059628906,1.28329208984,-9.90241806641,1.0,0.0,0.0,0.0,1.0,0.0,0.0,0.0,1.0
1463662450006961242,630,1463662449832817258,,-4.22185516357,-2.00266909599,130.502990723,0.0100619997829,1.0,0.0,0.0,0.0,1.0,0.0,0.0,0.0,1.0,17.2560977936,35.5487823486,-31.5853652954,1.0,0.0,0.0,0.0,1.0,0.0,0.0,0.0,1.0,1.50355864258,1.25935007324,-10.0939541992,1.0,0.0,0.0,0.0,1.0,0.0,0.0,0.0,1.0
1463662450007003853,631,1463662449842502729,,-4.06809473038,-1.67081141472,130.072784424,0.0100919995457,1.0,0.0,0.0,0.0,1.0,0.0,0.0,0.0,1.0,17.2560977936,34.2682952881,-34.9390258789,1.0,0.0,0.0,0.0,1.0,0.0,0.0,0.0,1.0,1.66636435547,1.1540052002,-9.84495722656,1.0,0.0,0.0,0.0,1.0,0.0,0.0,0.0,1.0
1463662450007214926,632,1463662449852964881,,-3.91485452652,-1.36617994308,129.607467651,0.0101319998503,1.0,0.0,0.0,0.0,1.0,0.0,0.0,0.0,1.0,18.475610733,31.9512214661,-38.4756126404,1.0,0.0,0.0,0.0,1.0,0.0,0.0,0.0,1.0,1.62326872559,1.30723410645,-9.61032604839,1.0,0.0,0.0,0.0,1.0,0.0,0.0,0.0,1.0
1463662450007282072,633,1463662449863547103,,-3.73490524292,-1.08127903938,129.116409302,0.0101140001789,1.0,0.0,0.0,0.0,1.0,0.0,0.0,0.0,1.0,20.0609760284,28.5365848541,-41.3414649963,1.0,0.0,0.0,0.0,1.0,0.0,0.0,0.0,1.0,1.92014973145,1.04387185076,-9.44273076313,1.0,0.0,0.0,0.0,1.0,0.0,0.0,0.0,1.0
1463662450007317337,634,1463662449879923428,,-3.44227004051,-0.694629669189,128.285507202,0.016127999872,1.0,0.0,0.0,0.0,1.0,0.0,0.0,0.0,1.0,21.5853652954,22.8048782349,-44.7560997009,1.0,0.0,0.0,0.0,1.0,0.0,0.0,0.0,1.0,2.09253210485,1.09654436035,-8.79150849609,1.0,0.0,0.0,0.0,1.0,0.0,0.0,0.0,1.0
1463662450007574616,635,1463662449882867257,,-3.37065577507,-0.606614351273,128.077178955,0.00404000002891,1.0,0.0,0.0,0.0,1.0,0.0,0.0,0.0,1.0,22.0731716156,21.4634151459,-44.8780479431,1.0,0.0,0.0,0.0,1.0,0.0,0.0,0.0,1.0,2.01591779785,1.17794714373,-8.91600698242,1.0,0.0,0.0,0.0,1.0,0.0,0.0,0.0,1.0
1463662450010120052,636,1463662449893812346,,-3.17539525032,-0.432291269302,127.540794373,0.0101250000298,1.0,0.0,0.0,0.0,1.0,0.0,0.0,0.0,1.0,24.3292694092,15.7926826477,-46.6463432312,1.0,0.0,0.0,0.0,1.0,0.0,0.0,0.0,1.0,2.25533796387,1.28808049316,-9.05487067871,1.0,0.0,0.0,0.0,1.0,0.0,0.0,0.0,1.0
1463662450010204075,637,1463662449903573350,,-2.96555757523,-0.306566298008,126.99773407,0.0100969998166,1.0,0.0,0.0,0.0,1.0,0.0,0.0,0.0,1.0,25.8536586761,10.3658542633,-47.7439041138,1.0,0.0,0.0,0.0,1.0,0.0,0.0,0.0,1.0,2.38462499965,1.24498486328,-9.08360109863,1.0,0.0,0.0,0.0,1.0,0.0,0.0,0.0,1.0
1463662450010244602,638,1463662449913605854,,-2.74680089951,-0.240113765001,126.454841614,0.0101009998471,1.0,0.0,0.0,0.0,1.0,0.0,0.0,0.0,1.0,27.8048782349,5.73170757294,-47.9268302917,1.0,0.0,0.0,0.0,1.0,0.0,0.0,0.0,1.0,2.20266552734,1.40300217285,-9.28471345356,1.0,0.0,0.0,0.0,1.0,0.0,0.0,0.0,1.0
1463662450010280649,639,1463662449924335233,,-2.51063752174,-0.244168803096,125.915496826,0.0100929997861,1.0,0.0,0.0,0.0,1.0,0.0,0.0,0.0,1.0,29.3902435303,0.914634168148,-47.8048782349,1.0,0.0,0.0,0.0,1.0,0.0,0.0,0.0,1.0,1.76213242187,1.30723410645,-9.15542714844,1.0,0.0,0.0,0.0,1.0,0.0,0.0,0.0,1.0
1463662450010833649,640,1463662449933763687,,-2.28578925133,-0.293836385012,125.374069214,0.0101359998807,1.0,0.0,0.0,0.0,1.0,0.0,0.0,0.0,1.0,31.4634151459,-1.8292683363,-47.8658561707,1.0,0.0,0.0,0.0,1.0,0.0,0.0,0.0,1.0,1.44609780273,1.83395847168,-9.19852277832,1.0,0.0,0.0,0.0,1.0,0.0,0.0,0.0,1.0
1463662450011007321,641,1463662449943839687,,-2.02313041687,-0.382214397192,124.840232849,0.0101760001853,1.0,0.0,0.0,0.0,1.0,0.0,0.0,0.0,1.0,35.4878044128,-4.14634132385,-46.9512214661,1.0,0.0,0.0,0.0,1.0,0.0,0.0,0.0,1.0,1.12527478027,1.838746875,-9.06444748535,1.0,0.0,0.0,0.0,1.0,0.0,0.0,0.0,1.0
1463662450011054203,642,1463662449953893964,,-1.74417483807,-0.462828248739,124.327278137,0.00997299980372,1.0,0.0,0.0,0.0,1.0,0.0,0.0,0.0,1.0,38.5365829468,-3.47560977936,-45.8536605835,1.0,0.0,0.0,0.0,1.0,0.0,0.0,0.0,1.0,1.0534486574,1.95366855469,-9.05008227539,1.0,0.0,0.0,0.0,1.0,0.0,0.0,0.0,1.0
1463662450011446763,643,1463662449967599001,,-1.30512297153,-0.565100312233,123.657516479,0.0136019997299,1.0,0.0,0.0,0.0,1.0,0.0,0.0,0.0,1.0,44.0853652954,-2.98780488968,-43.5975608826,1.0,0.0,0.0,0.0,1.0,0.0,0.0,0.0,1.0,1.01514150391,2.17393510742,-9.23204160156,1.0,0.0,0.0,0.0,1.0,0.0,0.0,0.0,1.0
1463662450011504896,644,1463662449974668557,,-1.0736528635,-0.600976228714,123.33631134,0.00659599993378,1.0,0.0,0.0,0.0,1.0,0.0,0.0,0.0,1.0,47.5609779358,-2.68292689323,-42.9878044128,1.0,0.0,0.0,0.0,1.0,0.0,0.0,0.0,1.0,1.22583125,2.18351191406,-9.04050546875,1.0,0.0,0.0,0.0,1.0,0.0,0.0,0.0,1.0
1463662450011546361,645,1463662449984271152,,-0.67422580719,-0.637776851654,122.867111206,0.0101039996371,1.0,0.0,0.0,0.0,1.0,0.0,0.0,0.0,1.0,52.3780517578,-1.46341466904,-40.6707344055,1.0,0.0,0.0,0.0,1.0,0.0,0.0,0.0,1.0,1.27850368652,2.23139594727,-9.11233151855,1.0,0.0,0.0,0.0,1.0,0.0,0.0,0.0,1.0
1463662450141334330,646,1463662449995849097,,-0.22873082757,-0.65288066864,122.409156799,0.0101389996707,1.0,0.0,0.0,0.0,1.0,0.0,0.0,0.0,1.0,56.7073173523,-0.670731723309,-39.3292694092,1.0,0.0,0.0,0.0,1.0,0.0,0.0,0.0,1.0,1.47003981934,2.19787712402,-9.28950185688,1.0,0.0,0.0,0.0,1.0,0.0,0.0,0.0,1.0
1463662450141409445,647,1463662450005066998,,0.274204671383,-0.665982067585,121.971160889,0.010111999698,1.0,0.0,0.0,0.0,1.0,0.0,0.0,0.0,1.0,60.3658561707,-0.0609756112099,-37.3780517578,1.0,0.0,0.0,0.0,1.0,0.0,0.0,0.0,1.0,1.34554133301,1.77649763184,-9.50019277202,1.0,0.0,0.0,0.0,1.0,0.0,0.0,0.0,1.0
1463662450145255442,648,1463662450014871654,,0.816071987152,-0.653677642345,121.545547485,0.0101220002398,1.0,0.0,0.0,0.0,1.0,0.0,0.0,0.0,1.0,62.865852356,1.2195122242,-36.0365867615,1.0,0.0,0.0,0.0,1.0,0.0,0.0,0.0,1.0,1.5322890625,1.5083470459,-9.81622680664,1.0,0.0,0.0,0.0,1.0,0.0,0.0,0.0,1.0
1463662450145334048,649,1463662450024590829,,1.3748666048,-0.630929589272,121.138946533,0.0100499996915,1.0,0.0,0.0,0.0,1.0,0.0,0.0,0.0,1.0,64.5731735229,2.19512200356,-34.3902435303,1.0,0.0,0.0,0.0,1.0,0.0,0.0,0.0,1.0,1.4604630127,1.32638771973,-9.70609353027,1.0,0.0,0.0,0.0,1.0,0.0,0.0,0.0,1.0
1463662450145380409,650,1463662450034273488,,1.94912278652,-0.596939027309,120.742332458,0.0100940000266,1.0,0.0,0.0,0.0,1.0,0.0,0.0,0.0,1.0,66.0365829468,2.31707310677,-33.1707305908,1.0,0.0,0.0,0.0,1.0,0.0,0.0,0.0,1.0,1.59453830566,1.2737152832,-9.84016882324,1.0,0.0,0.0,0.0,1.0,0.0,0.0,0.0,1.0
1463662450148240528,651,1463662450044928481,,2.55408406258,-0.540097653866,120.362854004,0.0101220002398,1.0,0.0,0.0,0.0,1.0,0.0,0.0,0.0,1.0,68.9024429321,2.92682933807,-31.341463089,1.0,0.0,0.0,0.0,1.0,0.0,0.0,0.0,1.0,1.85311208496,1.17794714373,-9.92636008301,1.0,0.0,0.0,0.0,1.0,0.0,0.0,0.0,1.0
1463662450148296474,652,1463662450055172162,,3.17335772514,-0.466687321663,119.990982056,0.0101100001484,1.0,0.0,0.0,0.0,1.0,0.0,0.0,0.0,1.0,70.5487823486,3.53658556938,-30.6097583771,1.0,0.0,0.0,0.0,1.0,0.0,0.0,0.0,1.0,2.01591779785,1.11090957031,-10.0748005859,1.0,0.0,0.0,0.0,1.0,0.0,0.0,0.0,1.0
1463662450148390342,653,1463662450065054799,,3.7996878624,-0.367646217346,119.636451721,0.010211000219,1.0,0.0,0.0,0.0,1.0,0.0,0.0,0.0,1.0,70.9756088257,3.96341490746,-28.5365848541,1.0,0.0,0.0,0.0,1.0,0.0,0.0,0.0,1.0,2.28885678711,1.02950671387,-9.7587659668,1.0,0.0,0.0,0.0,1.0,0.0,0.0,0.0,1.0
1463662450148431755,654,1463662450075217427,,4.40296125412,-0.269543319941,119.307952881,0.00997999962419,1.0,0.0,0.0,0.0,1.0,0.0,0.0,0.0,1.0,69.3902435303,2.62195134163,-26.5853652954,1.0,0.0,0.0,0.0,1.0,0.0,0.0,0.0,1.0,2.52827695312,0.790086547852,-9.7348239502,1.0,0.0,0.0,0.0,1.0,0.0,0.0,0.0,1.0
1463662450148470459,655,1463662450085091104,,5.0186920166,-0.136513411999,119.008621216,0.0101730003953,1.0,0.0,0.0,0.0,1.0,0.0,0.0,0.0,1.0,68.9024429321,2.62195134163,-23.0487823486,1.0,0.0,0.0,0.0,1.0,0.0,0.0,0.0,1.0,3.08373173828,0.579396801758,-9.48582756206,1.0,0.0,0.0,0.0,1.0,0.0,0.0,0.0,1.0
1463662450148505360,656,1463662450095143923,,5.64120721817,-0.0235980916768,118.737716675,0.0101239997894,1.0,0.0,0.0,0.0,1.0,0.0,0.0,0.0,1.0,67.7439041138,-2.86585378647,-19.817073822,1.0,0.0,0.0,0.0,1.0,0.0,0.0,0.0,1.0,3.77326181641,0.110133276367,-9.39005832661,1.0,0.0,0.0,0.0,1.0,0.0,0.0,0.0,1.0
1463662450152101996,657,1463662450105530334,,6.25089454651,0.0453627072275,118.513748169,0.00999100040644,1.0,0.0,0.0,0.0,1.0,0.0,0.0,0.0,1.0,66.2804946899,-6.7682929039,-14.9390249252,1.0,0.0,0.0,0.0,1.0,0.0,0.0,0.0,1.0,3.9121255127,-0.186747729492,-9.76834277344,1.0,0.0,0.0,0.0,1.0,0.0,0.0,0.0,1.0
1463662450184382909,658,1463662450115141159,,6.85558605194,0.0323437228799,118.330718994,0.0101020000875,1.0,0.0,0.0,0.0,1.0,0.0,0.0,0.0,1.0,63.4146385193,-11.8292684555,-9.87804889679,1.0,0.0,0.0,0.0,1.0,0.0,0.0,0.0,1.0,3.46680400391,-0.641646044922,-10.1370498291,1.0,0.0,0.0,0.0,1.0,0.0,0.0,0.0,1.0
1463662450184438125,659,1463662450125803653,,7.45404100418,-0.0533258542418,118.198387146,0.0101760001853,1.0,0.0,0.0,0.0,1.0,0.0,0.0,0.0,1.0,58.8414649963,-13.2926826477,-4.32926845551,1.0,0.0,0.0,0.0,1.0,0.0,0.0,0.0,1.0,2.45645090332,-1.42694418945,-10.2232410889,1.0,0.0,0.0,0.0,1.0,0.0,0.0,0.0,1.0
1463662450184480007,660,1463662450135926378,,7.99559640884,-0.174970075488,118.1171875,0.0100199999288,1.0,0.0,0.0,0.0,1.0,0.0,0.0,0.0,1.0,51.5243911743,-12.5,0.731707334518,1.0,0.0,0.0,0.0,1.0,0.0,0.0,0.0,1.0,1.75255561523,-2.08295529821,-10.5871597412,1.0,0.0,0.0,0.0,1.0,0.0,0.0,0.0,1.0
1463662450184514231,661,1463662450146580017,,8.45835876465,-0.320028483868,118.110786438,0.0108759999275,1.0,0.0,0.0,0.0,1.0,0.0,0.0,0.0,1.0,42.8658561707,-8.96341514587,7.98780536652,1.0,0.0,0.0,0.0,1.0,0.0,0.0,0.0,1.0,1.00077629395,-1.64242233887,-10.6494089844,1.0,0.0,0.0,0.0,1.0,0.0,0.0,0.0,1.0
1463662450192832413,662,1463662450156848389,,8.84428882599,-0.413589894772,118.163002014,0.010106000118,1.0,0.0,0.0,0.0,1.0,0.0,0.0,0.0,1.0,39.5121955872,-3.59756112099,13.1097564697,1.0,0.0,0.0,0.0,1.0,0.0,0.0,0.0,1.0,0.881066210937,-1.53707746582,-10.6063133545,1.0,0.0,0.0,0.0,1.0,0.0,0.0,0.0,1.0
1463662450198709810,663,1463662450165745357,,9.17606449127,-0.468240708113,118.261306763,0.0093160001561,1.0,0.0,0.0,0.0,1.0,0.0,0.0,0.0,1.0,36.0975646973,-0.304878056049,18.1097564697,1.0,0.0,0.0,0.0,1.0,0.0,0.0,0.0,1.0,1.06781401349,-1.81001645508,-10.778695874,1.0,0.0,0.0,0.0,1.0,0.0,0.0,0.0,1.0
1463662450199585255,664,1463662450179224005,,9.4975643158,-0.499197095633,118.42565155,0.0101570002735,1.0,0.0,0.0,0.0,1.0,0.0,0.0,0.0,1.0,28.0487804413,3.71951246262,23.2317085266,1.0,0.0,0.0,0.0,1.0,0.0,0.0,0.0,1.0,1.02950671387,-2.71502468262,-10.8313683105,1.0,0.0,0.0,0.0,1.0,0.0,0.0,0.0,1.0
1463662450200750951,665,1463662450186205423,,9.76568126678,-0.522717773914,118.628334045,0.0100419996306,1.0,0.0,0.0,0.0,1.0,0.0,0.0,0.0,1.0,18.9634151459,5.42682933807,27.0731716156,1.0,0.0,0.0,0.0,1.0,0.0,0.0,0.0,1.0,1.01035310059,-3.7014357666,-10.9606552002,1.0,0.0,0.0,0.0,1.0,0.0,0.0,0.0,1.0
1463662450276504361,666,1463662450198391324,,9.92834663391,-0.518755674362,118.847892761,0.0101469997317,1.0,0.0,0.0,0.0,1.0,0.0,0.0,0.0,1.0,7.80487823486,6.40243911743,28.4146347046,1.0,0.0,0.0,0.0,1.0,0.0,0.0,0.0,1.0,1.47961662598,-3.96958635254,-11.2192289795,1.0,0.0,0.0,0.0,1.0,0.0,0.0,0.0,1.0
1463662450276785757,667,1463662450206471502,,10.010184288,-0.532601475716,119.067588806,0.0101030003279,1.0,0.0,0.0,0.0,1.0,0.0,0.0,0.0,1.0,-3.23170733452,5.91463422775,28.6585388184,1.0,0.0,0.0,0.0,1.0,0.0,0.0,0.0,1.0,1.18273554705,-4.45800349121,-10.5871597412,1.0,0.0,0.0,0.0,1.0,0.0,0.0,0.0,1.0
1463662450277830082,668,1463662450216187395,,9.95941829681,-0.522038161755,119.229431152,0.010053999722,1.0,0.0,0.0,0.0,1.0,0.0,0.0,0.0,1.0,-5.79268312454,0.731707334518,23.7804889679,1.0,0.0,0.0,0.0,1.0,0.0,0.0,0.0,1.0,2.70065947266,-2.49475812988,-11.7028577148,1.0,0.0,0.0,0.0,1.0,0.0,0.0,0.0,1.0
1463662450278179093,669,1463662450226104360,,9.91655635834,-0.559344172478,119.345985413,0.0100899999961,1.0,0.0,0.0,0.0,1.0,0.0,0.0,0.0,1.0,-5.85365867615,-3.23170733452,19.8780498505,1.0,0.0,0.0,0.0,1.0,0.0,0.0,0.0,1.0,2.29364519043,-2.58573779297,-11.3628810791,1.0,0.0,0.0,0.0,1.0,0.0,0.0,0.0,1.0
1463662450278442257,670,1463662450236490875,,9.83950614929,-0.673382520676,119.423675537,0.010106000118,1.0,0.0,0.0,0.0,1.0,0.0,0.0,0.0,1.0,-9.45121955872,-7.86585378647,16.7682933807,1.0,0.0,0.0,0.0,1.0,0.0,0.0,0.0,1.0,1.57538469238,-2.70544787598,-11.7698953613,1.0,0.0,0.0,0.0,1.0,0.0,0.0,0.0,1.0
1463662450278686669,671,1463662450246758518,,9.72159385681,-0.832552075386,119.46295929,0.0101640000939,1.0,0.0,0.0,0.0,1.0,0.0,0.0,0.0,1.0,-13.658536911,-9.20731735229,13.1097564697,1.0,0.0,0.0,0.0,1.0,0.0,0.0,0.0,1.0,0.77093293457,-2.79642753906,-12.0667763672,1.0,0.0,0.0,0.0,1.0,0.0,0.0,0.0,1.0
1463662450278923945,672,1463662450257382726,,9.5018453598,-0.998820602894,119.465202332,0.0100710000843,1.0,0.0,0.0,0.0,1.0,0.0,0.0,0.0,1.0,-20.3658542633,-7.43902492523,9.02439117432,1.0,0.0,0.0,0.0,1.0,0.0,0.0,0.0,1.0,0.0143652099609,-1.90099611816,-11.5879360352,1.0,0.0,0.0,0.0,1.0,0.0,0.0,0.0,1.0
1463662450279175389,673,1463662450266904266,,9.29099559784,-1.17439627647,119.423454285,0.0100940000266,1.0,0.0,0.0,0.0,1.0,0.0,0.0,0.0,1.0,-23.9024391174,-9.26829242706,4.93902444839,1.0,0.0,0.0,0.0,1.0,0.0,0.0,0.0,1.0,0.0335188255255,-2.84909997559,-11.8369330078,1.0,0.0,0.0,0.0,1.0,0.0,0.0,0.0,1.0
1463662450342860623,674,1463662450276691524,,8.98360824585,-1.29575061798,119.349975586,0.0100859999657,1.0,0.0,0.0,0.0,1.0,0.0,0.0,0.0,1.0,-26.8902454376,-6.40243911743,1.09756100178,1.0,0.0,0.0,0.0,1.0,0.0,0.0,0.0,1.0,0.392649072266,-1.32159931641,-11.4969563721,1.0,0.0,0.0,0.0,1.0,0.0,0.0,0.0,1.0
1463662450343123163,675,1463662450287829090,,8.64203739166,-1.46888124943,119.223182678,0.0101209999993,1.0,0.0,0.0,0.0,1.0,0.0,0.0,0.0,1.0,-33.2926826477,-10.0,-3.65853667259,1.0,0.0,0.0,0.0,1.0,0.0,0.0,0.0,1.0,-0.076614453125,-1.69030637207,-10.3621047852,1.0,0.0,0.0,0.0,1.0,0.0,0.0,0.0,1.0
1463662450343375961,676,1463662450296943278,,8.16175556183,-1.64713943005,119.079078674,0.0100710000843,1.0,0.0,0.0,0.0,1.0,0.0,0.0,0.0,1.0,-36.5853652954,-14.0243902206,-5.24390268326,1.0,0.0,0.0,0.0,1.0,0.0,0.0,0.0,1.0,0.478840332031,0.354341845703,-10.1035310059,1.0,0.0,0.0,0.0,1.0,0.0,0.0,0.0,1.0
1463662450343653920,677,1463662450306960467,,7.71343183517,-1.86781787872,118.912391663,0.0100940000266,1.0,0.0,0.0,0.0,1.0,0.0,0.0,0.0,1.0,-34.5121955872,-17.2560977936,-7.19512224197,1.0,0.0,0.0,0.0,1.0,0.0,0.0,0.0,1.0,0.244208569336,0.239420166016,-9.99339772949,1.0,0.0,0.0,0.0,1.0,0.0,0.0,0.0,1.0
1463662450390914332,678,1463662450317241393,,7.31032943726,-2.10565114021,118.714035034,0.0101070003584,1.0,0.0,0.0,0.0,1.0,0.0,0.0,0.0,1.0,-33.4756126404,-20.9146347046,-9.93902492523,1.0,0.0,0.0,0.0,1.0,0.0,0.0,0.0,1.0,0.483628735352,-0.258573779297,-9.50498117534,1.0,0.0,0.0,0.0,1.0,0.0,0.0,0.0,1.0
1463662450391227400,679,1463662450327716671,,6.87195682526,-2.40619707108,118.5209198,0.0101309996098,1.0,0.0,0.0,0.0,1.0,0.0,0.0,0.0,1.0,-31.8292694092,-21.8902435303,-9.69512176514,1.0,0.0,0.0,0.0,1.0,0.0,0.0,0.0,1.0,-0.416591088867,0.718260498047,-10.1035310059,1.0,0.0,0.0,0.0,1.0,0.0,0.0,0.0,1.0
1463662450391517965,680,1463662450337675414,,6.50869178772,-2.67711639404,118.327545166,0.0101479999721,1.0,0.0,0.0,0.0,1.0,0.0,0.0,0.0,1.0,-24.7560977936,-22.3170719147,-9.87804889679,1.0,0.0,0.0,0.0,1.0,0.0,0.0,0.0,1.0,0.148440512063,0.694318481445,-9.46667277974,1.0,0.0,0.0,0.0,1.0,0.0,0.0,0.0,1.0
1463662450391821136,681,1463662450347819184,,6.17908477783,-2.97378206253,118.144393921,0.010277999565,1.0,0.0,0.0,0.0,1.0,0.0,0.0,0.0,1.0,-19.817073822,-24.2073173523,-8.71951198578,1.0,0.0,0.0,0.0,1.0,0.0,0.0,0.0,1.0,0.100556469727,0.986411083984,-9.63426806499,1.0,0.0,0.0,0.0,1.0,0.0,0.0,0.0,1.0
1463662450392162750,682,1463662450357863564,,5.91300916672,-3.25917434692,118.003318787,0.00986899994314,1.0,0.0,0.0,0.0,1.0,0.0,0.0,0.0,1.0,-14.3292694092,-25.4268302917,-5.30487823486,1.0,0.0,0.0,0.0,1.0,0.0,0.0,0.0,1.0,0.339976635742,1.13006318359,-9.97903251953,1.0,0.0,0.0,0.0,1.0,0.0,0.0,0.0,1.0
1463662450392477589,683,1463662450367686869,,5.71408748627,-3.58783340454,117.909477234,0.0101030003279,1.0,0.0,0.0,0.0,1.0,0.0,0.0,0.0,1.0,-8.84146404266,-27.4390258789,-0.18292683363,1.0,0.0,0.0,0.0,1.0,0.0,0.0,0.0,1.0,0.105344873047,0.833182177734,-10.2615483154,1.0,0.0,0.0,0.0,1.0,0.0,0.0,0.0,1.0
1463662450392746275,684,1463662450377778236,,5.56312990189,-3.95924496651,117.855064392,0.0100990002975,1.0,0.0,0.0,0.0,1.0,0.0,0.0,0.0,1.0,-4.81707286835,-31.0975627899,3.96341490746,1.0,0.0,0.0,0.0,1.0,0.0,0.0,0.0,1.0,0.0143652099609,0.718260498047,-10.5440641113,1.0,0.0,0.0,0.0,1.0,0.0,0.0,0.0,1.0
1463662450393033141,685,1463662450388210383,,5.44597530365,-4.35952377319,117.855018616,0.0100899999961,1.0,0.0,0.0,0.0,1.0,0.0,0.0,0.0,1.0,-4.14634132385,-32.9878044128,9.5731716156,1.0,0.0,0.0,0.0,1.0,0.0,0.0,0.0,1.0,-0.148440512063,0.181959326172,-10.8122146973,1.0,0.0,0.0,0.0,1.0,0.0,0.0,0.0,1.0
1463662450449952094,686,1463662450401264904,,5.31005620956,-4.79429626465,117.923309326,0.0103850001469,1.0,0.0,0.0,0.0,1.0,0.0,0.0,0.0,1.0,-6.34146356583,-33.7195129395,16.158536911,1.0,0.0,0.0,0.0,1.0,0.0,0.0,0.0,1.0,-0.392649072266,-0.0335188255255,-10.9510783936,1.0,0.0,0.0,0.0,1.0,0.0,0.0,0.0,1.0
1463662450450338455,687,1463662450408038322,,5.14222860336,-5.21457529068,118.045372009,0.00982400029898,1.0,0.0,0.0,0.0,1.0,0.0,0.0,0.0,1.0,-8.35365867615,-33.7804870605,21.7073173523,1.0,0.0,0.0,0.0,1.0,0.0,0.0,0.0,1.0,-0.545877978516,0.272938989258,-10.9798088135,1.0,0.0,0.0,0.0,1.0,0.0,0.0,0.0,1.0
1463662450451139513,688,1463662450418163652,,4.95020198822,-5.64224052429,118.229972839,0.0100999996066,1.0,0.0,0.0,0.0,1.0,0.0,0.0,0.0,1.0,-9.45121955872,-33.1097564697,27.2560977936,1.0,0.0,0.0,0.0,1.0,0.0,0.0,0.0,1.0,-0.569819995117,0.335188232422,-10.7260234375,1.0,0.0,0.0,0.0,1.0,0.0,0.0,0.0,1.0
1463662450451490972,689,1463662450428763429,,4.75250339508,-6.07368278503,118.460037231,0.0101859997958,1.0,0.0,0.0,0.0,1.0,0.0,0.0,0.0,1.0,-10.3048782349,-32.134147644,31.341463089,1.0,0.0,0.0,0.0,1.0,0.0,0.0,0.0,1.0,-0.790086547852,0.177170922852,-10.7978494873,1.0,0.0,0.0,0.0,1.0,0.0,0.0,0.0,1.0
1463662450498441703,690,1463662450438756707,,4.53041219711,-6.47468757629,118.723258972,0.0100050000474,1.0,0.0,0.0,0.0,1.0,0.0,0.0,0.0,1.0,-10.8536586761,-30.6097583771,34.5121955872,1.0,0.0,0.0,0.0,1.0,0.0,0.0,0.0,1.0,-0.675164868164,0.526724328702,-10.5680061279,1.0,0.0,0.0,0.0,1.0,0.0,0.0,0.0,1.0
1463662450498707316,691,1463662450448447961,,4.2983174324,-6.8656129837,119.005783081,0.0101100001484,1.0,0.0,0.0,0.0,1.0,0.0,0.0,0.0,1.0,-9.02439117432,-27.9268302917,35.4268302917,1.0,0.0,0.0,0.0,1.0,0.0,0.0,0.0,1.0,-0.972045874023,0.981622680664,-10.4004120117,1.0,0.0,0.0,0.0,1.0,0.0,0.0,0.0,1.0
1463662450498975481,692,1463662450459159890,,4.10920286179,-7.21892595291,119.306045532,0.0100840004161,1.0,0.0,0.0,0.0,1.0,0.0,0.0,0.0,1.0,-6.52439069748,-25.3658542633,37.0731697083,1.0,0.0,0.0,0.0,1.0,0.0,0.0,0.0,1.0,-0.818816967773,0.60812722168,-10.0939541992,1.0,0.0,0.0,0.0,1.0,0.0,0.0,0.0,1.0
1463662450499281569,693,1463662450468854322,,3.93457770348,-7.52109622955,119.621589661,0.0101349996403,1.0,0.0,0.0,0.0,1.0,0.0,0.0,0.0,1.0,-6.52439069748,-21.158536911,38.1707305908,1.0,0.0,0.0,0.0,1.0,0.0,0.0,0.0,1.0,-0.675164868164,0.292092584273,-9.70130512695,1.0,0.0,0.0,0.0,1.0,0.0,0.0,0.0,1.0
1463662450535087701,694,1463662450479095554,,3.74964618683,-7.77110242844,119.940391541,0.0100870002061,1.0,0.0,0.0,0.0,1.0,0.0,0.0,0.0,1.0,-7.13414621353,-17.134147644,38.1707305908,1.0,0.0,0.0,0.0,1.0,0.0,0.0,0.0,1.0,-0.555454785156,0.363918652344,-9.50498117534,1.0,0.0,0.0,0.0,1.0,0.0,0.0,0.0,1.0
1463662450535430565,695,1463662450489110190,,3.55173897743,-7.97594738007,120.250282288,0.0100999996066,1.0,0.0,0.0,0.0,1.0,0.0,0.0,0.0,1.0,-6.40243911743,-13.1097564697,36.5853652954,1.0,0.0,0.0,0.0,1.0,0.0,0.0,0.0,1.0,-0.531512805087,0.718260498047,-9.27034882812,1.0,0.0,0.0,0.0,1.0,0.0,0.0,0.0,1.0
1463662450540915768,696,1463662450499302770,,3.39260745049,-8.11410999298,120.534767151,0.0101610003039,1.0,0.0,0.0,0.0,1.0,0.0,0.0,0.0,1.0,-5.0,-7.37804937363,33.7804870605,1.0,0.0,0.0,0.0,1.0,0.0,0.0,0.0,1.0,-0.435744702148,0.359130249023,-8.89685336914,1.0,0.0,0.0,0.0,1.0,0.0,0.0,0.0,1.0
1463662450541292179,697,1463662450509231508,,3.24544787407,-8.1883764267,120.77835083,0.0100459996611,1.0,0.0,0.0,0.0,1.0,0.0,0.0,0.0,1.0,-4.87804889679,-2.13414645195,29.7560997009,1.0,0.0,0.0,0.0,1.0,0.0,0.0,0.0,1.0,-0.349553442383,0.316034619141,-8.82502731934,1.0,0.0,0.0,0.0,1.0,0.0,0.0,0.0,1.0
1463662450573123700,698,1463662450519580621,,3.09401607513,-8.18536472321,120.979866028,0.0100929997861,1.0,0.0,0.0,0.0,1.0,0.0,0.0,0.0,1.0,-5.30487823486,4.14634132385,25.0609760284,1.0,0.0,0.0,0.0,1.0,0.0,0.0,0.0,1.0,-0.186747729492,0.421379492187,-8.82502731934,1.0,0.0,0.0,0.0,1.0,0.0,0.0,0.0,1.0
1463662450573415359,699,1463662450529471853,,2.95869541168,-8.14482879639,121.129669189,0.010150000453,1.0,0.0,0.0,0.0,1.0,0.0,0.0,0.0,1.0,-4.87804889679,8.29268264771,19.7560977936,1.0,0.0,0.0,0.0,1.0,0.0,0.0,0.0,1.0,-0.301669427446,0.359130249023,-8.64785698101,1.0,0.0,0.0,0.0,1.0,0.0,0.0,0.0,1.0
1463662450574133123,700,1463662450539535091,,2.827896595,-8.05088233948,121.232460022,0.0100779999048,1.0,0.0,0.0,0.0,1.0,0.0,0.0,0.0,1.0,-5.30487823486,12.5,15.0609760284,1.0,0.0,0.0,0.0,1.0,0.0,0.0,0.0,1.0,-0.162805712891,0.359130249023,-8.61433815776,1.0,0.0,0.0,0.0,1.0,0.0,0.0,0.0,1.0
1463662450574504482,701,1463662450549645470,,2.7113006115,-7.91656160355,121.295013428,0.0100649995729,1.0,0.0,0.0,0.0,1.0,0.0,0.0,0.0,1.0,-5.73170757294,15.8536596298,11.1585359573,1.0,0.0,0.0,0.0,1.0,0.0,0.0,0.0,1.0,-0.076614453125,0.181959326172,-8.40364724263,1.0,0.0,0.0,0.0,1.0,0.0,0.0,0.0,1.0
1463662450574825884,702,1463662450559680057,,2.5787820816,-7.74681806564,121.329200745,0.0101209999993,1.0,0.0,0.0,0.0,1.0,0.0,0.0,0.0,1.0,-6.7682929039,17.8048782349,8.17073154449,1.0,0.0,0.0,0.0,1.0,0.0,0.0,0.0,1.0,0.143652099609,0.330399829102,-8.39407043599,1.0,0.0,0.0,0.0,1.0,0.0,0.0,0.0,1.0
1463662450575132806,703,1463662450569920978,,2.43566513062,-7.56490182877,121.340614319,0.010098000057,1.0,0.0,0.0,0.0,1.0,0.0,0.0,0.0,1.0,-8.5365858078,19.2682914734,5.97560977936,1.0,0.0,0.0,0.0,1.0,0.0,0.0,0.0,1.0,0.119710083008,0.292092584273,-8.3749168227,1.0,0.0,0.0,0.0,1.0,0.0,0.0,0.0,1.0
1463662450618504037,704,1463662450580089699,,2.25934863091,-7.35431623459,121.344276428,0.0101819997653,1.0,0.0,0.0,0.0,1.0,0.0,0.0,0.0,1.0,-9.87804889679,19.3902435303,5.0,1.0,0.0,0.0,0.0,1.0,0.0,0.0,0.0,1.0,0.517147558594,0.588973571866,-8.19774648437,1.0,0.0,0.0,0.0,1.0,0.0,0.0,0.0,1.0
1463662450619290198,705,1463662450590273580,,2.08773469925,-7.14042043686,121.337478638,0.0100250001997,1.0,0.0,0.0,0.0,1.0,0.0,0.0,0.0,1.0,-10.1219511032,18.9634151459,4.08536577225,1.0,0.0,0.0,0.0,1.0,0.0,0.0,0.0,1.0,0.708683691406,0.574608398438,-8.26957253418,1.0,0.0,0.0,0.0,1.0,0.0,0.0,0.0,1.0
1463662450620025725,706,1463662450600098291,,1.90901935101,-6.92755937576,121.334327698,0.0100990002975,1.0,0.0,0.0,0.0,1.0,0.0,0.0,0.0,1.0,-10.6097564697,16.8292694092,4.57317066193,1.0,0.0,0.0,0.0,1.0,0.0,0.0,0.0,1.0,1.01035310059,0.598550451572,-8.12113203125,1.0,0.0,0.0,0.0,1.0,0.0,0.0,0.0,1.0
1463662450736291654,707,1463662450610187730,,1.7245849371,-6.73801040649,121.33556366,0.0101079996675,1.0,0.0,0.0,0.0,1.0,0.0,0.0,0.0,1.0,-11.5853662491,14.5121955872,5.18292713165,1.0,0.0,0.0,0.0,1.0,0.0,0.0,0.0,1.0,1.0534486574,0.560243188477,-8.21690009766,1.0,0.0,0.0,0.0,1.0,0.0,0.0,0.0,1.0
1463662450736556277,708,1463662450620492775,,1.51594984531,-6.58148956299,121.347717285,0.0100819999352,1.0,0.0,0.0,0.0,1.0,0.0,0.0,0.0,1.0,-12.0121955872,11.2804880142,6.15853643417,1.0,0.0,0.0,0.0,1.0,0.0,0.0,0.0,1.0,1.10612116699,0.881066210937,-8.31745598286,1.0,0.0,0.0,0.0,1.0,0.0,0.0,0.0,1.0
1463662450736800012,709,1463662450630535332,,1.32286143303,-6.45247364044,121.364776611,0.0101159997284,1.0,0.0,0.0,0.0,1.0,0.0,0.0,0.0,1.0,-12.1951217651,8.29268264771,6.95121955872,1.0,0.0,0.0,0.0,1.0,0.0,0.0,0.0,1.0,1.17315874041,0.641646044922,-8.42758925923,1.0,0.0,0.0,0.0,1.0,0.0,0.0,0.0,1.0
1463662450737119956,710,1463662450640678060,,1.1164226532,-6.35695314407,121.394851685,0.0100859999657,1.0,0.0,0.0,0.0,1.0,0.0,0.0,0.0,1.0,-13.2317075729,4.87804889679,8.29268264771,1.0,0.0,0.0,0.0,1.0,0.0,0.0,0.0,1.0,1.22104284668,0.703895288086,-8.45153127583,1.0,0.0,0.0,0.0,1.0,0.0,0.0,0.0,1.0
1463662450737379526,711,1463662450650595859,,0.915882647038,-6.28523445129,121.435333252,0.0100999996066,1.0,0.0,0.0,0.0,1.0,0.0,0.0,0.0,1.0,-13.4146347046,2.25609779358,9.45121955872,1.0,0.0,0.0,0.0,1.0,0.0,0.0,0.0,1.0,1.28808049316,0.603338854892,-8.54730051128,1.0,0.0,0.0,0.0,1.0,0.0,0.0,0.0,1.0
1463662450737637378,712,1463662450661365348,,0.700838029385,-6.26267242432,121.484848022,0.0101150004193,1.0,0.0,0.0,0.0,1.0,0.0,0.0,0.0,1.0,-13.658536911,-1.46341466904,10.2439022064,1.0,0.0,0.0,0.0,1.0,0.0,0.0,0.0,1.0,1.13006318359,0.804451757813,-8.63349177105,1.0,0.0,0.0,0.0,1.0,0.0,0.0,0.0,1.0
1463662450737922421,713,1463662450670816514,,0.482436150312,-6.25475120544,121.537193298,0.0100999996066,1.0,0.0,0.0,0.0,1.0,0.0,0.0,0.0,1.0,-12.0731716156,-4.02439022064,10.3048782349,1.0,0.0,0.0,0.0,1.0,0.0,0.0,0.0,1.0,1.32638771973,1.14921679688,-8.67658681641,1.0,0.0,0.0,0.0,1.0,0.0,0.0,0.0,1.0
1463662450738230957,714,1463662450680919757,,0.30812305212,-6.28822231293,121.586486816,0.0101009998471,1.0,0.0,0.0,0.0,1.0,0.0,0.0,0.0,1.0,-8.47560977936,-7.62195110321,10.0609760284,1.0,0.0,0.0,0.0,1.0,0.0,0.0,0.0,1.0,1.27850368652,1.09654436035,-8.94952580566,1.0,0.0,0.0,0.0,1.0,0.0,0.0,0.0,1.0
1463662450738553922,715,1463662450691480934,,0.168540820479,-6.36209774017,121.637130737,0.0101420003921,1.0,0.0,0.0,0.0,1.0,0.0,0.0,0.0,1.0,-3.23170733452,-10.8536586761,9.93902492523,1.0,0.0,0.0,0.0,1.0,0.0,0.0,0.0,1.0,1.1540052002,1.40300217285,-8.92079538574,1.0,0.0,0.0,0.0,1.0,0.0,0.0,0.0,1.0
1463662450738872668,716,1463662450701244178,,0.0952357426286,-6.46620416641,121.675811768,0.010045000352,1.0,0.0,0.0,0.0,1.0,0.0,0.0,0.0,1.0,2.31707310677,-12.2560977936,8.84146404266,1.0,0.0,0.0,0.0,1.0,0.0,0.0,0.0,1.0,0.895431420898,1.34075292969,-9.27034882812,1.0,0.0,0.0,0.0,1.0,0.0,0.0,0.0,1.0
1463662450739181829,717,1463662450711337211,,0.0868989378214,-6.60759687424,121.706489563,0.0101140001789,1.0,0.0,0.0,0.0,1.0,0.0,0.0,0.0,1.0,9.32926845551,-14.2073173523,7.92682981491,1.0,0.0,0.0,0.0,1.0,0.0,0.0,0.0,1.0,0.622492431641,1.51313544922,-9.63426806499,1.0,0.0,0.0,0.0,1.0,0.0,0.0,0.0,1.0
1463662450739516724,718,1463662450721484888,,0.175327822566,-6.76056909561,121.725090027,0.0101129999384,1.0,0.0,0.0,0.0,1.0,0.0,0.0,0.0,1.0,17.9878044128,-15.2439022064,6.82926845551,1.0,0.0,0.0,0.0,1.0,0.0,0.0,0.0,1.0,0.593762048251,1.42215578613,-9.97424411621,1.0,0.0,0.0,0.0,1.0,0.0,0.0,0.0,1.0
1463662450826248873,719,1463662450731838430,,0.353499621153,-6.91415405273,121.734306335,0.010095000267,1.0,0.0,0.0,0.0,1.0,0.0,0.0,0.0,1.0,28.0487804413,-16.0365848541,5.79268312454,1.0,0.0,0.0,0.0,1.0,0.0,0.0,0.0,1.0,0.718260498047,1.68072956543,-10.2376062988,1.0,0.0,0.0,0.0,1.0,0.0,0.0,0.0,1.0
1463662450826311435,720,1463662450741781493,,0.637775599957,-7.07861328125,121.738021851,0.0102329999208,1.0,0.0,0.0,0.0,1.0,0.0,0.0,0.0,1.0,40.8536605835,-17.8048782349,5.0,1.0,0.0,0.0,0.0,1.0,0.0,0.0,0.0,1.0,0.890643017578,2.20266552734,-10.3668931885,1.0,0.0,0.0,0.0,1.0,0.0,0.0,0.0,1.0
1463662450826378841,721,1463662450751694707,,1.07889044285,-7.25965023041,121.737243652,0.00995500013232,1.0,0.0,0.0,0.0,1.0,0.0,0.0,0.0,1.0,55.9756126404,-18.9024391174,4.87804889679,1.0,0.0,0.0,0.0,1.0,0.0,0.0,0.0,1.0,0.646434448242,1.85790048828,-10.2519715088,1.0,0.0,0.0,0.0,1.0,0.0,0.0,0.0,1.0
1463662450826469844,722,1463662450762105549,,1.69460487366,-7.51960897446,121.743782043,0.0101220002398,1.0,0.0,0.0,0.0,1.0,0.0,0.0,0.0,1.0,71.4634170532,-20.9146347046,6.0365858078,1.0,0.0,0.0,0.0,1.0,0.0,0.0,0.0,1.0,-0.430956298828,1.65678754883,-10.898405957,1.0,0.0,0.0,0.0,1.0,0.0,0.0,0.0,1.0
1463662450826548814,723,1463662450772632293,,2.4727768898,-7.79826879501,121.746139526,0.0100689996034,1.0,0.0,0.0,0.0,1.0,0.0,0.0,0.0,1.0,87.6219558716,-20.1219520569,5.97560977936,1.0,0.0,0.0,0.0,1.0,0.0,0.0,0.0,1.0,-1.08217922346,1.57538469238,-11.4921679687,1.0,0.0,0.0,0.0,1.0,0.0,0.0,0.0,1.0
1463662450826660758,724,1463662450782514409,,3.42923307419,-8.07436656952,121.736808777,0.0101180002093,1.0,0.0,0.0,0.0,1.0,0.0,0.0,0.0,1.0,103.048782349,-17.7439022064,5.36585378647,1.0,0.0,0.0,0.0,1.0,0.0,0.0,0.0,1.0,-1.62326872559,1.11569797363,-11.9518546875,1.0,0.0,0.0,0.0,1.0,0.0,0.0,0.0,1.0
1463662450826742020,725,1463662450791970628,,4.52629756927,-8.31162452698,121.729064941,0.0101810004562,1.0,0.0,0.0,0.0,1.0,0.0,0.0,0.0,1.0,115.304878235,-14.9390249252,5.91463422775,1.0,0.0,0.0,0.0,1.0,0.0,0.0,0.0,1.0,-1.42694418945,0.694318481445,-11.9566430908,1.0,0.0,0.0,0.0,1.0,0.0,0.0,0.0,1.0
1463662450826806822,726,1463662450802301978,,5.7750878334,-8.50983333588,121.727546692,0.0100330002606,1.0,0.0,0.0,0.0,1.0,0.0,0.0,0.0,1.0,128.963424683,-12.1341466904,7.19512224197,1.0,0.0,0.0,0.0,1.0,0.0,0.0,0.0,1.0,-1.2976572998,-0.215478149414,-11.8752402344,1.0,0.0,0.0,0.0,1.0,0.0,0.0,0.0,1.0
1463662450882247635,727,1463662450812405743,,7.17260932922,-8.67358112335,121.736946106,0.0102380001917,1.0,0.0,0.0,0.0,1.0,0.0,0.0,0.0,1.0,141.463424683,-11.5243911743,8.59756088257,1.0,0.0,0.0,0.0,1.0,0.0,0.0,0.0,1.0,-0.627280834961,-0.407014282227,-11.6023012451,1.0,0.0,0.0,0.0,1.0,0.0,0.0,0.0,1.0
1463662450882310561,728,1463662450822517268,,8.62194919586,-8.83807277679,121.779876709,0.00998099986464,1.0,0.0,0.0,0.0,1.0,0.0,0.0,0.0,1.0,149.878051758,-11.6463422775,12.6219520569,1.0,0.0,0.0,0.0,1.0,0.0,0.0,0.0,1.0,-0.593762048251,-0.818816967773,-11.0133276367,1.0,0.0,0.0,0.0,1.0,0.0,0.0,0.0,1.0
1463662450882623942,729,1463662450832414960,,10.1447057724,-9.00346374512,121.867683411,0.0100579997525,1.0,0.0,0.0,0.0,1.0,0.0,0.0,0.0,1.0,157.256103516,-11.5243911743,17.5000019073,1.0,0.0,0.0,0.0,1.0,0.0,0.0,0.0,1.0,-0.45489831543,-0.976834277344,-10.7068698242,1.0,0.0,0.0,0.0,1.0,0.0,0.0,0.0,1.0
1463662450882956440,730,1463662450844320298,,11.7328205109,-9.16931533813,122.043891907,0.0101220002398,1.0,0.0,0.0,0.0,1.0,0.0,0.0,0.0,1.0,162.012191772,-11.8902444839,27.1951236725,1.0,0.0,0.0,0.0,1.0,0.0,0.0,0.0,1.0,-0.0143652099609,-1.56101948242,-9.92636008301,1.0,0.0,0.0,0.0,1.0,0.0,0.0,0.0,1.0
1463662451173052712,731,1463662450852975406,,13.3186349869,-9.34917545319,122.293746948,0.0100800003856,1.0,0.0,0.0,0.0,1.0,0.0,0.0,0.0,1.0,165.060974121,-12.0121955872,35.1219520569,1.0,0.0,0.0,0.0,1.0,0.0,0.0,0.0,1.0,0.105344873047,-1.5083470459,-9.40442353657,1.0,0.0,0.0,0.0,1.0,0.0,0.0,0.0,1.0
1463662451173373906,732,1463662450863726924,,14.9254436493,-9.57943058014,122.643234253,0.0101169999689,1.0,0.0,0.0,0.0,1.0,0.0,0.0,0.0,1.0,170.792678833,-12.7439022064,45.5487823486,1.0,0.0,0.0,0.0,1.0,0.0,0.0,0.0,1.0,-0.0861912597656,-1.25456166992,-8.81066210937,1.0,0.0,0.0,0.0,1.0,0.0,0.0,0.0,1.0
1463662451173691923,733,1463662450875395612,,16.5924968719,-9.84655380249,123.087982178,0.0100969998166,1.0,0.0,0.0,0.0,1.0,0.0,0.0,0.0,1.0,177.743911743,-10.0609760284,55.6097564697,1.0,0.0,0.0,0.0,1.0,0.0,0.0,0.0,1.0,-0.541089611728,-1.68072956543,-8.79150849609,1.0,0.0,0.0,0.0,1.0,0.0,0.0,0.0,1.0
1463662451174044424,734,1463662450884933405,,18.3113384247,-10.1184005737,123.596923828,0.0101009998471,1.0,0.0,0.0,0.0,1.0,0.0,0.0,0.0,1.0,182.195129395,-8.47560977936,62.9268302917,1.0,0.0,0.0,0.0,1.0,0.0,0.0,0.0,1.0,-0.339976635742,-2.16435844691,-8.38928203267,1.0,0.0,0.0,0.0,1.0,0.0,0.0,0.0,1.0
1463662451174640191,735,1463662450893074269,,20.057849884,-10.4047269821,124.15561676,0.0100990002975,1.0,0.0,0.0,0.0,1.0,0.0,0.0,0.0,1.0,184.390258789,-6.7682929039,68.841468811,1.0,0.0,0.0,0.0,1.0,0.0,0.0,0.0,1.0,-0.335188232422,-2.7341782959,-8.44674287251,1.0,0.0,0.0,0.0,1.0,0.0,0.0,0.0,1.0
1463662451175395930,736,1463662450903153237,,21.8184661865,-10.7071866989,124.753585815,0.010111999698,1.0,0.0,0.0,0.0,1.0,0.0,0.0,0.0,1.0,187.256103516,-5.30487823486,73.2926864624,1.0,0.0,0.0,0.0,1.0,0.0,0.0,0.0,1.0,-0.335188232422,-2.92571442871,-8.51857009136,1.0,0.0,0.0,0.0,1.0,0.0,0.0,0.0,1.0
1463662451178569482,737,1463662450913252157,,23.6015071869,-11.0408401489,125.373687744,0.0100859999657,1.0,0.0,0.0,0.0,1.0,0.0,0.0,0.0,1.0,190.0,-4.02439022064,76.6463470459,1.0,0.0,0.0,0.0,1.0,0.0,0.0,0.0,1.0,-0.584185168546,-3.25611425781,-8.29351396626,1.0,0.0,0.0,0.0,1.0,0.0,0.0,0.0,1.0
1463662451185080100,738,1463662450923324979,,25.3597602844,-11.39311409,126.013893127,0.0100969998166,1.0,0.0,0.0,0.0,1.0,0.0,0.0,0.0,1.0,193.048782349,-1.58536589146,77.865852356,1.0,0.0,0.0,0.0,1.0,0.0,0.0,0.0,1.0,-0.852335791016,-2.63841022949,-8.08282480469,1.0,0.0,0.0,0.0,1.0,0.0,0.0,0.0,1.0
1463662451185747700,739,1463662450933245017,,27.3110122681,-11.7632408142,126.61113739,0.010108999908,1.0,0.0,0.0,0.0,1.0,0.0,0.0,0.0,1.0,201.646347046,0.792682945728,75.6097564697,1.0,0.0,0.0,0.0,1.0,0.0,0.0,0.0,1.0,-1.47003981934,-4.61123239746,-7.967903125,1.0,0.0,0.0,0.0,1.0,0.0,0.0,0.0,1.0
1463662451188174733,740,1463662450943658724,,29.2051525116,-12.0695257187,127.209640503,0.0100999996066,1.0,0.0,0.0,0.0,1.0,0.0,0.0,0.0,1.0,198.841461182,3.47560977936,75.1829299927,1.0,0.0,0.0,0.0,1.0,0.0,0.0,0.0,1.0,-0.550666381836,-4.19942941965,-7.39808312988,1.0,0.0,0.0,0.0,1.0,0.0,0.0,0.0,1.0
1463662451188510409,741,1463662450953816611,,31.2032337189,-12.4203195572,127.752891541,0.0100929997861,1.0,0.0,0.0,0.0,1.0,0.0,0.0,0.0,1.0,201.524398804,2.43902444839,72.9268341064,1.0,0.0,0.0,0.0,1.0,0.0,0.0,0.0,1.0,-1.04387185076,-5.59285507812,-6.97191523437,1.0,0.0,0.0,0.0,1.0,0.0,0.0,0.0,1.0
1463662451188881194,742,1463662450963878911,,33.1065368652,-12.7572784424,128.293045044,0.0101110003889,1.0,0.0,0.0,0.0,1.0,0.0,0.0,0.0,1.0,195.182922363,5.60975599289,71.2804870605,1.0,0.0,0.0,0.0,1.0,0.0,0.0,0.0,1.0,-1.15879360352,-5.42526096191,-7.08683691406,1.0,0.0,0.0,0.0,1.0,0.0,0.0,0.0,1.0
1463662451189196398,743,1463662450973900475,,35.0068473816,-13.1251554489,128.7993927,0.0100999996066,1.0,0.0,0.0,0.0,1.0,0.0,0.0,0.0,1.0,187.439025879,5.42682933807,71.0975646973,1.0,0.0,0.0,0.0,1.0,0.0,0.0,0.0,1.0,-1.54665427246,-7.32625708008,-6.8138979248,1.0,0.0,0.0,0.0,1.0,0.0,0.0,0.0,1.0
1463662451189520561,744,1463662450984007625,,36.7782287598,-13.4556245804,129.29927063,0.0101009998471,1.0,0.0,0.0,0.0,1.0,0.0,0.0,0.0,1.0,174.573165894,8.78048801422,69.5731735229,1.0,0.0,0.0,0.0,1.0,0.0,0.0,0.0,1.0,-1.32159931641,-7.72848295898,-6.67503422852,1.0,0.0,0.0,0.0,1.0,0.0,0.0,0.0,1.0
1463662451189780392,745,1463662450994200882,,38.3826408386,-13.7839641571,129.775619507,0.0101129999384,1.0,0.0,0.0,0.0,1.0,0.0,0.0,0.0,1.0,154.329269409,7.98780536652,69.6951217651,1.0,0.0,0.0,0.0,1.0,0.0,0.0,0.0,1.0,-1.03908344744,-9.68215151367,-6.92403120117,1.0,0.0,0.0,0.0,1.0,0.0,0.0,0.0,1.0
1463662451190070332,746,1463662451004085759,,39.7308387756,-14.1096696854,130.251876831,0.0100959995762,1.0,0.0,0.0,0.0,1.0,0.0,0.0,0.0,1.0,129.756088257,7.68292665482,71.341468811,1.0,0.0,0.0,0.0,1.0,0.0,0.0,0.0,1.0,-0.521935925381,-9.88326445312,-6.73728347168,1.0,0.0,0.0,0.0,1.0,0.0,0.0,0.0,1.0
1463662451190597755,747,1463662451014319334,,40.873790741,-14.4805135727,130.733581543,0.0101020000875,1.0,0.0,0.0,0.0,1.0,0.0,0.0,0.0,1.0,114.939025879,4.87804889679,73.9634170532,1.0,0.0,0.0,0.0,1.0,0.0,0.0,0.0,1.0,-0.579396801758,-9.72524714355,-7.72848295898,1.0,0.0,0.0,0.0,1.0,0.0,0.0,0.0,1.0
1463662451190928795,748,1463662451024398042,,41.7231178284,-14.837182045,131.142242432,0.0101129999384,1.0,0.0,0.0,0.0,1.0,0.0,0.0,0.0,1.0,79.8170776367,3.35365867615,68.6585388184,1.0,0.0,0.0,0.0,1.0,0.0,0.0,0.0,1.0,-0.651222851562,-11.0995188965,-7.08683691406,1.0,0.0,0.0,0.0,1.0,0.0,0.0,0.0,1.0
1463662451191209931,749,1463662451034557856,,42.3042602539,-15.1810626984,131.486175537,0.0100819999352,1.0,0.0,0.0,0.0,1.0,0.0,0.0,0.0,1.0,54.0853652954,0.975609779358,62.8048782349,1.0,0.0,0.0,0.0,1.0,0.0,0.0,0.0,1.0,-0.876277807617,-10.9654436035,-7.35019909668,1.0,0.0,0.0,0.0,1.0,0.0,0.0,0.0,1.0
1463662451191508049,750,1463662451044706367,,42.6309509277,-15.4972991943,131.752029419,0.0101190004498,1.0,0.0,0.0,0.0,1.0,0.0,0.0,0.0,1.0,28.5365848541,-0.0609756112099,53.4756126404,1.0,0.0,0.0,0.0,1.0,0.0,0.0,0.0,1.0,-1.51792385254,-10.5919481445,-7.41244833984,1.0,0.0,0.0,0.0,1.0,0.0,0.0,0.0,1.0
1463662451191777725,751,1463662451054751997,,42.7246818542,-15.7618656158,131.946487427,0.0100779999048,1.0,0.0,0.0,0.0,1.0,0.0,0.0,0.0,1.0,5.67073154449,-1.03658533096,44.817073822,1.0,0.0,0.0,0.0,1.0,0.0,0.0,0.0,1.0,-1.61369191895,-10.2950671387,-7.65665690918,1.0,0.0,0.0,0.0,1.0,0.0,0.0,0.0,1.0
1463662451192052662,752,1463662451064714803,,42.640838623,-15.9437599182,132.079803467,0.010108999908,1.0,0.0,0.0,0.0,1.0,0.0,0.0,0.0,1.0,-14.7560987473,0.487804889679,35.9756088257,1.0,0.0,0.0,0.0,1.0,0.0,0.0,0.0,1.0,-1.40779057617,-10.6063133545,-7.48906279297,1.0,0.0,0.0,0.0,1.0,0.0,0.0,0.0,1.0
1463662451192367085,753,1463662451075470332,,42.3384666443,-16.0491962433,132.107757568,0.0101180002093,1.0,0.0,0.0,0.0,1.0,0.0,0.0,0.0,1.0,-38.0487823486,-1.34146344662,23.5975627899,1.0,0.0,0.0,0.0,1.0,0.0,0.0,0.0,1.0,-1.32159931641,-10.2328178955,-7.58004245605,1.0,0.0,0.0,0.0,1.0,0.0,0.0,0.0,1.0
1463662451192649523,754,1463662451084971140,,41.8967094421,-16.0843658447,132.06817627,0.0100800003856,1.0,0.0,0.0,0.0,1.0,0.0,0.0,0.0,1.0,-53.1097602844,-3.23170733452,16.2804889679,1.0,0.0,0.0,0.0,1.0,0.0,0.0,0.0,1.0,-0.531512805087,-9.33259748677,-7.20175859375,1.0,0.0,0.0,0.0,1.0,0.0,0.0,0.0,1.0
1463662451192946026,755,1463662451095224771,,41.3134460449,-16.0858688354,131.948913574,0.0100969998166,1.0,0.0,0.0,0.0,1.0,0.0,0.0,0.0,1.0,-70.2439041138,-3.47560977936,6.58536624908,1.0,0.0,0.0,0.0,1.0,0.0,0.0,0.0,1.0,-1.17794714373,-9.65342167827,-7.26879624023,1.0,0.0,0.0,0.0,1.0,0.0,0.0,0.0,1.0
1463662451193252531,756,1463662451105158822,,40.5790672302,-16.0703582764,131.757980347,0.0101199997589,1.0,0.0,0.0,0.0,1.0,0.0,0.0,0.0,1.0,-86.0365829468,-6.7682929039,-0.0,1.0,0.0,0.0,0.0,1.0,0.0,0.0,0.0,1.0,-1.18273554705,-9.27513723145,-7.4028715332,1.0,0.0,0.0,0.0,1.0,0.0,0.0,0.0,1.0
1463662451193592842,757,1463662451115137202,,39.7179374695,-15.974864006,131.514144897,0.0100830001757,1.0,0.0,0.0,0.0,1.0,0.0,0.0,0.0,1.0,-99.7560958862,-6.40243911743,-7.31707334518,1.0,0.0,0.0,0.0,1.0,0.0,0.0,0.0,1.0,-0.493205541992,-8.80108530273,-7.38371791992,1.0,0.0,0.0,0.0,1.0,0.0,0.0,0.0,1.0
1463662451193934300,758,1463662451125479440,,38.7401161194,-15.8970174789,131.200469971,0.0101399999112,1.0,0.0,0.0,0.0,1.0,0.0,0.0,0.0,1.0,-111.524391174,-11.0365858078,-12.3780488968,1.0,0.0,0.0,0.0,1.0,0.0,0.0,0.0,1.0,-0.713472094727,-8.55687731792,-7.70454094238,1.0,0.0,0.0,0.0,1.0,0.0,0.0,0.0,1.0
1463662451194212259,759,1463662451135706035,,37.6486091614,-15.8096914291,130.851089478,0.0100750001147,1.0,0.0,0.0,0.0,1.0,0.0,0.0,0.0,1.0,-123.414642334,-13.4756097794,-15.4878053665,1.0,0.0,0.0,0.0,1.0,0.0,0.0,0.0,1.0,-0.387860668945,-8.02057556152,-7.76200178223,1.0,0.0,0.0,0.0,1.0,0.0,0.0,0.0,1.0
1463662451194868660,760,1463662451145655036,,36.4511528015,-15.7366600037,130.477478027,0.0101079996675,1.0,0.0,0.0,0.0,1.0,0.0,0.0,0.0,1.0,-133.231704712,-15.3048791885,-17.317073822,1.0,0.0,0.0,0.0,1.0,0.0,0.0,0.0,1.0,-0.469263525391,-7.69017573242,-7.9918451416,1.0,0.0,0.0,0.0,1.0,0.0,0.0,0.0,1.0
1463662451195851308,761,1463662451155920075,,35.1747970581,-15.6951503754,130.08921814,0.0100940000266,1.0,0.0,0.0,0.0,1.0,0.0,0.0,0.0,1.0,-142.865859985,-17.0731716156,-17.5609760284,1.0,0.0,0.0,0.0,1.0,0.0,0.0,0.0,1.0,-0.675164868164,-7.81467421875,-8.07803640137,1.0,0.0,0.0,0.0,1.0,0.0,0.0,0.0,1.0
1463662451196289864,762,1463662451166054156,,33.7933197021,-15.6847391129,129.71295166,0.010111999698,1.0,0.0,0.0,0.0,1.0,0.0,0.0,0.0,1.0,-154.39024353,-17.9878044128,-15.1219511032,1.0,0.0,0.0,0.0,1.0,0.0,0.0,0.0,1.0,-0.689530078125,-8.00142194824,-8.12113203125,1.0,0.0,0.0,0.0,1.0,0.0,0.0,0.0,1.0
1463662451901941651,763,1463662451176333259,,32.2626304626,-15.7175035477,129.372390747,0.0100849997252,1.0,0.0,0.0,0.0,1.0,0.0,0.0,0.0,1.0,-165.914642334,-18.658536911,-12.0121955872,1.0,0.0,0.0,0.0,1.0,0.0,0.0,0.0,1.0,-0.952892260742,-7.35977590332,-8.67658681641,1.0,0.0,0.0,0.0,1.0,0.0,0.0,0.0,1.0
1463662451978970617,764,1463662451185940229,,30.6330413818,-15.7728595734,129.053985596,0.0100999996066,1.0,0.0,0.0,0.0,1.0,0.0,0.0,0.0,1.0,-173.536590576,-18.9024391174,-10.2439022064,1.0,0.0,0.0,0.0,1.0,0.0,0.0,0.0,1.0,-1.01514150391,-6.84741674805,-8.98304462891,1.0,0.0,0.0,0.0,1.0,0.0,0.0,0.0,1.0
1463662451987326201,765,1463662451196420300,,28.9390125275,-15.859079361,128.767349243,0.0100940000266,1.0,0.0,0.0,0.0,1.0,0.0,0.0,0.0,1.0,-180.121948242,-17.8048782349,-7.68292665482,1.0,0.0,0.0,0.0,1.0,0.0,0.0,0.0,1.0,-1.43173259277,-6.84741674805,-9.19852277832,1.0,0.0,0.0,0.0,1.0,0.0,0.0,0.0,1.0
1463662451987376000,766,1463662451206565737,,27.1624240875,-15.9460134506,128.515151978,0.0101169999689,1.0,0.0,0.0,0.0,1.0,0.0,0.0,0.0,1.0,-188.170730591,-15.3658533096,-5.42682933807,1.0,0.0,0.0,0.0,1.0,0.0,0.0,0.0,1.0,-1.54186586914,-6.88572397461,-9.40442353657,1.0,0.0,0.0,0.0,1.0,0.0,0.0,0.0,1.0
1463662451987412724,767,1463662451216700183,,25.2895030975,-16.0402698517,128.311172485,0.0101079996675,1.0,0.0,0.0,0.0,1.0,0.0,0.0,0.0,1.0,-194.878051758,-13.3536586761,-2.5,1.0,0.0,0.0,0.0,1.0,0.0,0.0,0.0,1.0,-1.6041151123,-5.95677373047,-9.31823227681,1.0,0.0,0.0,0.0,1.0,0.0,0.0,0.0,1.0
1463662451987449553,768,1463662451226296214,,23.3568134308,-16.1153278351,128.145294189,0.0100689996034,1.0,0.0,0.0,0.0,1.0,0.0,0.0,0.0,1.0,-200.609771729,-10.6097564697,-0.426829278469,1.0,0.0,0.0,0.0,1.0,0.0,0.0,0.0,1.0,-1.47482822266,-5.71735356445,-9.60553764507,1.0,0.0,0.0,0.0,1.0,0.0,0.0,0.0,1.0
1463662451987486902,769,1463662451236713359,,21.3418140411,-16.176202774,127.999443054,0.0101150004193,1.0,0.0,0.0,0.0,1.0,0.0,0.0,0.0,1.0,-206.768295288,-9.75609779358,0.609756112099,1.0,0.0,0.0,0.0,1.0,0.0,0.0,0.0,1.0,-1.17315874041,-5.22893642578,-9.75397756348,1.0,0.0,0.0,0.0,1.0,0.0,0.0,0.0,1.0
1463662451987525137,770,1463662451247013403,,19.2655105591,-16.2147769928,127.849098206,0.0101319998503,1.0,0.0,0.0,0.0,1.0,0.0,0.0,0.0,1.0,-210.914642334,-8.04878044128,-1.58536589146,1.0,0.0,0.0,0.0,1.0,0.0,0.0,0.0,1.0,-1.11090957031,-4.45321508789,-9.84016882324,1.0,0.0,0.0,0.0,1.0,0.0,0.0,0.0,1.0
1463662451987562747,771,1463662451256780293,,17.1649227142,-16.2454013824,127.682296753,0.0100809996948,1.0,0.0,0.0,0.0,1.0,0.0,0.0,0.0,1.0,-212.560974121,-7.98780536652,-4.57317066193,1.0,0.0,0.0,0.0,1.0,0.0,0.0,0.0,1.0,-1.0534486574,-3.58651408691,-9.94551369629,1.0,0.0,0.0,0.0,1.0,0.0,0.0,0.0,1.0
1463662451987611608,772,1463662451266721325,,15.0598154068,-16.2497692108,127.49130249,0.0100830001757,1.0,0.0,0.0,0.0,1.0,0.0,0.0,0.0,1.0,-214.451217651,-5.42682933807,-7.98780536652,1.0,0.0,0.0,0.0,1.0,0.0,0.0,0.0,1.0,-1.07260241682,-3.27047946777,-9.73961235352,1.0,0.0,0.0,0.0,1.0,0.0,0.0,0.0,1.0
1463662451987648333,773,1463662451277908846,,12.9388303757,-16.2220668793,127.252723694,0.0101920003071,1.0,0.0,0.0,0.0,1.0,0.0,0.0,0.0,1.0,-211.951217651,-0.609756112099,-15.0000009537,1.0,0.0,0.0,0.0,1.0,0.0,0.0,0.0,1.0,-2.1691467041,-3.26569106445,-13.9534072754,1.0,0.0,0.0,0.0,1.0,0.0,0.0,0.0,1.0
1463662451987686411,774,1463662451287013553,,10.7741422653,-16.2470283508,127.042251587,0.0100360000506,1.0,0.0,0.0,0.0,1.0,0.0,0.0,0.0,1.0,-220.731704712,-2.80487799644,-11.8292684555,1.0,0.0,0.0,0.0,1.0,0.0,0.0,0.0,1.0,-1.79565124512,-2.25533796387,-9.75397756348,1.0,0.0,0.0,0.0,1.0,0.0,0.0,0.0,1.0
1463662451987799814,775,1463662451297124662,,8.61292934418,-16.2362098694,126.833457947,0.0100899999961,1.0,0.0,0.0,0.0,1.0,0.0,0.0,0.0,1.0,-223.780487061,3.47560977936,-11.6463422775,1.0,0.0,0.0,0.0,1.0,0.0,0.0,0.0,1.0,-2.10689731481,-2.70544787598,-9.55286520855,1.0,0.0,0.0,0.0,1.0,0.0,0.0,0.0,1.0
1463662451987843675,776,1463662451307304948,,6.36381196976,-16.1824741364,126.611236572,0.0100999996066,1.0,0.0,0.0,0.0,1.0,0.0,0.0,0.0,1.0,-231.097564697,8.29268264771,-14.1463422775,1.0,0.0,0.0,0.0,1.0,0.0,0.0,0.0,1.0,-2.31279880371,-2.22660754395,-10.5009684814,1.0,0.0,0.0,0.0,1.0,0.0,0.0,0.0,1.0
1463662451987882066,777,1463662451317359955,,4.04437351227,-16.0798530579,126.391838074,0.0100990002975,1.0,0.0,0.0,0.0,1.0,0.0,0.0,0.0,1.0,-237.134155273,11.8292684555,-14.3902444839,1.0,0.0,0.0,0.0,1.0,0.0,0.0,0.0,1.0,-1.84832368164,-1.59932670898,-10.3716815918,1.0,0.0,0.0,0.0,1.0,0.0,0.0,0.0,1.0
1463662451987917488,778,1463662451327401678,,1.66934049129,-15.9485845566,126.147315979,0.010108999908,1.0,0.0,0.0,0.0,1.0,0.0,0.0,0.0,1.0,-243.10975647,15.1829271317,-16.7682933807,1.0,0.0,0.0,0.0,1.0,0.0,0.0,0.0,1.0,-1.78128603516,-1.17794714373,-10.3573163818,1.0,0.0,0.0,0.0,1.0,0.0,0.0,0.0,1.0
1463662451987954785,779,1463662451337432984,,-0.739161908627,-15.7949333191,125.876869202,0.0100910002366,1.0,0.0,0.0,0.0,1.0,0.0,0.0,0.0,1.0,-244.695114136,16.5243911743,-19.817073822,1.0,0.0,0.0,0.0,1.0,0.0,0.0,0.0,1.0,-1.38863696289,-0.196324536133,-10.2136642822,1.0,0.0,0.0,0.0,1.0,0.0,0.0,0.0,1.0
1463662451987990937,780,1463662451347806997,,-3.12670493126,-15.6679973602,125.566337585,0.0101169999689,1.0,0.0,0.0,0.0,1.0,0.0,0.0,0.0,1.0,-239.634140015,17.6829280853,-24.2682933807,1.0,0.0,0.0,0.0,1.0,0.0,0.0,0.0,1.0,-1.73819040527,0.828393774414,-9.61511445171,1.0,0.0,0.0,0.0,1.0,0.0,0.0,0.0,1.0
1463662451988024952,781,1463662451357644419,,-5.47417974472,-15.5477218628,125.243164062,0.0100710000843,1.0,0.0,0.0,0.0,1.0,0.0,0.0,0.0,1.0,-235.365859985,19.2073173523,-25.7317085266,1.0,0.0,0.0,0.0,1.0,0.0,0.0,0.0,1.0,-1.78607443848,1.4844050293,-9.23683000488,1.0,0.0,0.0,0.0,1.0,0.0,0.0,0.0,1.0
1463662451988058811,782,1463662451367959361,,-7.72310638428,-15.4582386017,124.877799988,0.0101220002398,1.0,0.0,0.0,0.0,1.0,0.0,0.0,0.0,1.0,-229.268310547,19.8780498505,-28.2317066193,1.0,0.0,0.0,0.0,1.0,0.0,0.0,0.0,1.0,-2.1930887207,1.23061965332,-9.4570959731,1.0,0.0,0.0,0.0,1.0,0.0,0.0,0.0,1.0
1463662451988092566,783,1463662451378729684,,-9.93186187744,-15.3695726395,124.474563599,0.0100830001757,1.0,0.0,0.0,0.0,1.0,0.0,0.0,0.0,1.0,-224.695129395,22.682926178,-32.0731697083,1.0,0.0,0.0,0.0,1.0,0.0,0.0,0.0,1.0,-2.38941340297,2.08774370153,-9.57680722515,1.0,0.0,0.0,0.0,1.0,0.0,0.0,0.0,1.0
1463662451988126686,784,1463662451388081928,,-12.0652542114,-15.2788066864,124.011413574,0.010108999908,1.0,0.0,0.0,0.0,1.0,0.0,0.0,0.0,1.0,-216.402450562,24.6951236725,-37.6219520569,1.0,0.0,0.0,0.0,1.0,0.0,0.0,0.0,1.0,-2.31279880371,2.87304199219,-9.77791958008,1.0,0.0,0.0,0.0,1.0,0.0,0.0,0.0,1.0
1463662451988162421,785,1463662451398371762,,-14.1384572983,-15.1716356277,123.513084412,0.0101349996403,1.0,0.0,0.0,0.0,1.0,0.0,0.0,0.0,1.0,-208.536590576,25.2439041138,-41.1585350037,1.0,0.0,0.0,0.0,1.0,0.0,0.0,0.0,1.0,-1.68072956543,3.7493197998,-9.88805285645,1.0,0.0,0.0,0.0,1.0,0.0,0.0,0.0,1.0
1463662451988199666,786,1463662451408278621,,-16.1040039062,-15.0895357132,122.986991882,0.0100779999048,1.0,0.0,0.0,0.0,1.0,0.0,0.0,0.0,1.0,-199.695114136,26.5853652954,-43.7195129395,1.0,0.0,0.0,0.0,1.0,0.0,0.0,0.0,1.0,-1.89141931152,4.07014282227,-9.63905646831,1.0,0.0,0.0,0.0,1.0,0.0,0.0,0.0,1.0
1463662451988284783,787,1463662451418203661,,-17.9470252991,-15.0262422562,122.475006104,0.0101110003889,1.0,0.0,0.0,0.0,1.0,0.0,0.0,0.0,1.0,-183.658538818,25.5487804413,-43.1707305908,1.0,0.0,0.0,0.0,1.0,0.0,0.0,0.0,1.0,-1.77170922852,5.03261188965,-9.52413478862,1.0,0.0,0.0,0.0,1.0,0.0,0.0,0.0,1.0
1463662451988337395,788,1463662451428788331,,-19.5782318115,-14.9823760986,121.933425903,0.0100880004466,1.0,0.0,0.0,0.0,1.0,0.0,0.0,0.0,1.0,-167.926834106,26.5853652954,-44.7560997009,1.0,0.0,0.0,0.0,1.0,0.0,0.0,0.0,1.0,-1.87705410156,4.42448466797,-9.36611631001,1.0,0.0,0.0,0.0,1.0,0.0,0.0,0.0,1.0
1463662451988382558,789,1463662451438508235,,-21.3161430359,-14.9188346863,121.619949341,0.0100990002975,1.0,0.0,0.0,0.0,1.0,0.0,0.0,0.0,1.0,-168.597564697,23.7804889679,-23.7195129395,1.0,0.0,0.0,0.0,1.0,0.0,0.0,0.0,1.0,-1.66636435547,4.30477487722,-7.13472094727,1.0,0.0,0.0,0.0,1.0,0.0,0.0,0.0,1.0
1463662451988427148,790,1463662451449075246,,-22.7881031036,-14.8224658966,121.116409302,0.0101049998775,1.0,0.0,0.0,0.0,1.0,0.0,0.0,0.0,1.0,-148.597564697,31.341463089,-39.5731735229,1.0,0.0,0.0,0.0,1.0,0.0,0.0,0.0,1.0,-1.72861359863,6.22013591309,-10.3716815918,1.0,0.0,0.0,0.0,1.0,0.0,0.0,0.0,1.0
1463662451988464029,791,1463662451458988877,,-24.1437339783,-14.753663063,120.711547852,0.0100929997861,1.0,0.0,0.0,0.0,1.0,0.0,0.0,0.0,1.0,-133.10975647,25.9146347046,-32.134147644,1.0,0.0,0.0,0.0,1.0,0.0,0.0,0.0,1.0,-1.40779057617,6.04296499023,-8.93037219238,1.0,0.0,0.0,0.0,1.0,0.0,0.0,0.0,1.0
1463662451988500961,792,1463662451468668671,,-25.3326454163,-14.6157588959,120.292999268,0.0101110003889,1.0,0.0,0.0,0.0,1.0,0.0,0.0,0.0,1.0,-115.487808228,32.134147644,-30.975610733,1.0,0.0,0.0,0.0,1.0,0.0,0.0,0.0,1.0,-1.16837033709,7.05331809082,-9.48582756206,1.0,0.0,0.0,0.0,1.0,0.0,0.0,0.0,1.0
1463662451988538102,793,1463662451479304390,,-26.2376270294,-14.5338468552,119.953834534,0.0100870002061,1.0,0.0,0.0,0.0,1.0,0.0,0.0,0.0,1.0,-89.7560958862,22.3170719147,-26.0975627899,1.0,0.0,0.0,0.0,1.0,0.0,0.0,0.0,1.0,-0.790086547852,6.7660138916,-10.285490332,1.0,0.0,0.0,0.0,1.0,0.0,0.0,0.0,1.0
1463662451988573420,794,1463662451489017470,,-26.8135814667,-14.4253349304,119.654953003,0.0101229995489,1.0,0.0,0.0,0.0,1.0,0.0,0.0,0.0,1.0,-65.4268341064,23.0487823486,-18.5975627899,1.0,0.0,0.0,0.0,1.0,0.0,0.0,0.0,1.0,-0.77093293457,3.84029946289,-8.5520889146,1.0,0.0,0.0,0.0,1.0,0.0,0.0,0.0,1.0
1463662451988608582,795,1463662451499200726,,-27.3698673248,-14.2943658829,119.453636169,0.0100790001452,1.0,0.0,0.0,0.0,1.0,0.0,0.0,0.0,1.0,-54.1463432312,20.975610733,-11.4024391174,1.0,0.0,0.0,0.0,1.0,0.0,0.0,0.0,1.0,-0.675164868164,6.03817658691,-9.57201882183,1.0,0.0,0.0,0.0,1.0,0.0,0.0,0.0,1.0
1463662451988643275,796,1463662451509294124,,-27.6856613159,-14.1557168961,119.284767151,0.010098000057,1.0,0.0,0.0,0.0,1.0,0.0,0.0,0.0,1.0,-35.7317085266,22.1341457367,-5.42682933807,1.0,0.0,0.0,0.0,1.0,0.0,0.0,0.0,1.0,-1.03429511719,4.12760366211,-8.40843564595,1.0,0.0,0.0,0.0,1.0,0.0,0.0,0.0,1.0
1463662451988798506,797,1463662451519541920,,-28.0631980896,-13.9294586182,119.249778748,0.0101169999689,1.0,0.0,0.0,0.0,1.0,0.0,0.0,0.0,1.0,-30.9146327972,20.1219520569,5.85365867615,1.0,0.0,0.0,0.0,1.0,0.0,0.0,0.0,1.0,-0.129286889648,5.84185205078,-8.53293530132,1.0,0.0,0.0,0.0,1.0,0.0,0.0,0.0,1.0
1463662451988843513,798,1463662451529438257,,-28.3678531647,-13.6548757553,119.292625427,0.010108999908,1.0,0.0,0.0,0.0,1.0,0.0,0.0,0.0,1.0,-21.4634151459,21.158536911,14.8170728683,1.0,0.0,0.0,0.0,1.0,0.0,0.0,0.0,1.0,-0.134075302102,5.5401826416,-7.84819304199,1.0,0.0,0.0,0.0,1.0,0.0,0.0,0.0,1.0
1463662451988884040,799,1463662451539712516,,-28.5725975037,-13.3782892227,119.400276184,0.010098000057,1.0,0.0,0.0,0.0,1.0,0.0,0.0,0.0,1.0,-10.7317075729,19.6341457367,21.341463089,1.0,0.0,0.0,0.0,1.0,0.0,0.0,0.0,1.0,-0.373495458984,5.65031591797,-8.10676682129,1.0,0.0,0.0,0.0,1.0,0.0,0.0,0.0,1.0
1463662451988920816,800,1463662451549840710,,-28.6773815155,-13.0723648071,119.530357361,0.0100870002061,1.0,0.0,0.0,0.0,1.0,0.0,0.0,0.0,1.0,0.243902444839,21.4024391174,24.6951236725,1.0,0.0,0.0,0.0,1.0,0.0,0.0,0.0,1.0,-0.354341845703,5.59764348145,-7.78115539551,1.0,0.0,0.0,0.0,1.0,0.0,0.0,0.0,1.0
1463662451988957905,801,1463662451559817633,,-28.6519947052,-12.778002739,119.651199341,0.0100990002975,1.0,0.0,0.0,0.0,1.0,0.0,0.0,0.0,1.0,12.5609760284,23.1097564697,24.7560977936,1.0,0.0,0.0,0.0,1.0,0.0,0.0,0.0,1.0,-0.794874951172,5.72693037109,-8.02536396484,1.0,0.0,0.0,0.0,1.0,0.0,0.0,0.0,1.0
1463662451990127092,802,1463662451569766998,,-28.5223731995,-12.4635181427,119.752952576,0.0101030003279,1.0,0.0,0.0,0.0,1.0,0.0,0.0,0.0,1.0,25.1219520569,24.8780498505,22.9268302917,1.0,0.0,0.0,0.0,1.0,0.0,0.0,0.0,1.0,-0.469263525391,5.7987564209,-7.34062229004,1.0,0.0,0.0,0.0,1.0,0.0,0.0,0.0,1.0
1463662451990182465,803,1463662451580137990,,-28.2532749176,-12.1426115036,119.812004089,0.0101039996371,1.0,0.0,0.0,0.0,1.0,0.0,0.0,0.0,1.0,39.3292694092,27.317073822,19.2073173523,1.0,0.0,0.0,0.0,1.0,0.0,0.0,0.0,1.0,-0.354341845703,5.84185205078,-7.06768330078,1.0,0.0,0.0,0.0,1.0,0.0,0.0,0.0,1.0
1463662451990221273,804,1463662451589889201,,-27.8518390656,-11.839849472,119.849143982,0.0100830001757,1.0,0.0,0.0,0.0,1.0,0.0,0.0,0.0,1.0,52.4390258789,26.6463432312,16.2804889679,1.0,0.0,0.0,0.0,1.0,0.0,0.0,0.0,1.0,-0.258573779297,5.8705824707,-7.06768330078,1.0,0.0,0.0,0.0,1.0,0.0,0.0,0.0,1.0
1463662451990257685,805,1463662451600100794,,-27.2987136841,-11.5542402267,119.84500885,0.0101140001789,1.0,0.0,0.0,0.0,1.0,0.0,0.0,0.0,1.0,65.6707305908,27.317073822,12.1951217651,1.0,0.0,0.0,0.0,1.0,0.0,0.0,0.0,1.0,-0.292092584273,5.66946953125,-7.13950935059,1.0,0.0,0.0,0.0,1.0,0.0,0.0,0.0,1.0
1463662451990293784,806,1463662451610653168,,-26.6094589233,-11.2803964615,119.828666687,0.0101279998198,1.0,0.0,0.0,0.0,1.0,0.0,0.0,0.0,1.0,77.5609741211,26.5853652954,10.6097564697,1.0,0.0,0.0,0.0,1.0,0.0,0.0,0.0,1.0,-0.234631762695,5.54497104492,-7.46990917969,1.0,0.0,0.0,0.0,1.0,0.0,0.0,0.0,1.0
1463662451990330300,807,1463662451620362914,,-25.8134021759,-11.0289354324,119.801185608,0.0100589999929,1.0,0.0,0.0,0.0,1.0,0.0,0.0,0.0,1.0,87.5609741211,26.4634151459,9.32926845551,1.0,0.0,0.0,0.0,1.0,0.0,0.0,0.0,1.0,-0.421379492187,5.22414802246,-7.46990917969,1.0,0.0,0.0,0.0,1.0,0.0,0.0,0.0,1.0
1463662451990521943,808,1463662451630953106,,-24.94272995,-10.7631959915,119.796226501,0.0101290000603,1.0,0.0,0.0,0.0,1.0,0.0,0.0,0.0,1.0,96.2804870605,25.0,10.4878053665,1.0,0.0,0.0,0.0,1.0,0.0,0.0,0.0,1.0,-0.0478840332031,5.37258852539,-7.48427438965,1.0,0.0,0.0,0.0,1.0,0.0,0.0,0.0,1.0
1463662451990571795,809,1463662451640688533,,-24.0048313141,-10.496969223,119.828704834,0.0100889997557,1.0,0.0,0.0,0.0,1.0,0.0,0.0,0.0,1.0,104.146339417,22.6219520569,13.1097564697,1.0,0.0,0.0,0.0,1.0,0.0,0.0,0.0,1.0,0.201112939453,5.43483776855,-7.76679018555,1.0,0.0,0.0,0.0,1.0,0.0,0.0,0.0,1.0
1463662451990610030,810,1463662451650927786,,-22.985830307,-10.2414398193,119.921562195,0.010108999908,1.0,0.0,0.0,0.0,1.0,0.0,0.0,0.0,1.0,111.829269409,19.1463432312,17.9878044128,1.0,0.0,0.0,0.0,1.0,0.0,0.0,0.0,1.0,0.263362164351,5.13316835937,-7.97747993164,1.0,0.0,0.0,0.0,1.0,0.0,0.0,0.0,1.0
1463662451990648160,811,1463662451660877673,,-21.8989048004,-9.98299789429,120.074043274,0.0101030003279,1.0,0.0,0.0,0.0,1.0,0.0,0.0,0.0,1.0,116.463417053,16.341463089,23.475610733,1.0,0.0,0.0,0.0,1.0,0.0,0.0,0.0,1.0,0.45489831543,4.5489831543,-8.38928203267,1.0,0.0,0.0,0.0,1.0,0.0,0.0,0.0,1.0
1463662451990685301,812,1463662451670967008,,-20.7968158722,-9.74737071991,120.311248779,0.0100959995762,1.0,0.0,0.0,0.0,1.0,0.0,0.0,0.0,1.0,120.60975647,12.0121955872,30.1829280853,1.0,0.0,0.0,0.0,1.0,0.0,0.0,0.0,1.0,0.440533105469,4.64475092844,-8.51857009136,1.0,0.0,0.0,0.0,1.0,0.0,0.0,0.0,1.0
1463662451990727756,813,1463662451681225639,,-19.6629524231,-9.52534675598,120.627449036,0.0101180002093,1.0,0.0,0.0,0.0,1.0,0.0,0.0,0.0,1.0,126.768295288,8.71951198578,36.5243911743,1.0,0.0,0.0,0.0,1.0,0.0,0.0,0.0,1.0,0.483628735352,4.88417138672,-8.59518454448,1.0,0.0,0.0,0.0,1.0,0.0,0.0,0.0,1.0
1463662451990765522,814,1463662451691586369,,-18.4868602753,-9.33832454681,121.020256042,0.0100699998438,1.0,0.0,0.0,0.0,1.0,0.0,0.0,0.0,1.0,134.939025879,5.30487823486,42.8658561707,1.0,0.0,0.0,0.0,1.0,0.0,0.0,0.0,1.0,0.248996972656,5.24330163574,-8.79150849609,1.0,0.0,0.0,0.0,1.0,0.0,0.0,0.0,1.0
1463662451990802923,815,1463662451701637938,,-17.2218418121,-9.17316246033,121.478149414,0.0101330000907,1.0,0.0,0.0,0.0,1.0,0.0,0.0,0.0,1.0,145.365844727,2.56097555161,47.9878044128,1.0,0.0,0.0,0.0,1.0,0.0,0.0,0.0,1.0,0.205901342773,5.24330163574,-8.66222219097,1.0,0.0,0.0,0.0,1.0,0.0,0.0,0.0,1.0
1463662451990839804,816,1463662451711653876,,-15.8696212769,-9.01594543457,121.987541199,0.0100819999352,1.0,0.0,0.0,0.0,1.0,0.0,0.0,0.0,1.0,155.182937622,1.34146344662,53.0487823486,1.0,0.0,0.0,0.0,1.0,0.0,0.0,0.0,1.0,0.229843359375,4.98951625977,-8.74362446289,1.0,0.0,0.0,0.0,1.0,0.0,0.0,0.0,1.0
1463662452004434876,817,1463662451723017414,,-14.4116191864,-8.88402938843,122.554664612,0.0100889997557,1.0,0.0,0.0,0.0,1.0,0.0,0.0,0.0,1.0,164.451217651,-0.0609756112099,58.7195129395,1.0,0.0,0.0,0.0,1.0,0.0,0.0,0.0,1.0,-0.0191536132812,4.35744702148,-8.78672009277,1.0,0.0,0.0,0.0,1.0,0.0,0.0,0.0,1.0
1463662452004619748,818,1463662451731833223,,-12.8578853607,-8.75122261047,123.156661987,0.0101319998503,1.0,0.0,0.0,0.0,1.0,0.0,0.0,0.0,1.0,166.890258789,-0.304878056049,62.9268302917,1.0,0.0,0.0,0.0,1.0,0.0,0.0,0.0,1.0,0.0909796630859,2.84431157227,-8.79629689941,1.0,0.0,0.0,0.0,1.0,0.0,0.0,0.0,1.0
1463662452004702208,819,1463662451741797070,,-11.340303421,-8.64737415314,123.78175354,0.0100680002943,1.0,0.0,0.0,0.0,1.0,0.0,0.0,0.0,1.0,163.780487061,-1.2804877758,65.4878082275,1.0,0.0,0.0,0.0,1.0,0.0,0.0,0.0,1.0,-0.0239420166016,2.56179577637,-9.19852277832,1.0,0.0,0.0,0.0,1.0,0.0,0.0,0.0,1.0
1463662452004825508,820,1463662451752151080,,-9.85000038147,-8.58344650269,124.415725708,0.0101239997894,1.0,0.0,0.0,0.0,1.0,0.0,0.0,0.0,1.0,159.085372925,-2.56097555161,65.9756088257,1.0,0.0,0.0,0.0,1.0,0.0,0.0,0.0,1.0,-0.220266552734,2.13562802699,-9.36132790669,1.0,0.0,0.0,0.0,1.0,0.0,0.0,0.0,1.0
1463662452004867546,821,1463662451762559682,,-8.41037559509,-8.55803966522,125.025154114,0.0100910002366,1.0,0.0,0.0,0.0,1.0,0.0,0.0,0.0,1.0,152.926834106,-2.92682933807,63.9634170532,1.0,0.0,0.0,0.0,1.0,0.0,0.0,0.0,1.0,-0.512359155273,1.81001645508,-10.1753570557,1.0,0.0,0.0,0.0,1.0,0.0,0.0,0.0,1.0
1463662452004906718,822,1463662451772267605,,-7.03577518463,-8.54218101501,125.586410522,0.0100999996066,1.0,0.0,0.0,0.0,1.0,0.0,0.0,0.0,1.0,145.304885864,-2.37804889679,59.390247345,1.0,0.0,0.0,0.0,1.0,0.0,0.0,0.0,1.0,-0.397437475586,1.4844050293,-10.1562034424,1.0,0.0,0.0,0.0,1.0,0.0,0.0,0.0,1.0
1463662452004995273,823,1463662451782042674,,-5.72432231903,-8.53022003174,126.096389771,0.0101159997284,1.0,0.0,0.0,0.0,1.0,0.0,0.0,0.0,1.0,138.109771729,-0.914634168148,54.5731735229,1.0,0.0,0.0,0.0,1.0,0.0,0.0,0.0,1.0,-0.383072265625,1.20188930646,-9.82101520996,1.0,0.0,0.0,0.0,1.0,0.0,0.0,0.0,1.0
1463662452005039342,824,1463662451792433461,,-4.43944835663,-8.51536846161,126.55745697,0.0101910000667,1.0,0.0,0.0,0.0,1.0,0.0,0.0,0.0,1.0,127.743904114,0.304878056049,50.6097564697,1.0,0.0,0.0,0.0,1.0,0.0,0.0,0.0,1.0,-0.268150604204,-0.0861912597656,-9.5193463853,1.0,0.0,0.0,0.0,1.0,0.0,0.0,0.0,1.0
1463662452005079869,825,1463662451802836697,,-3.24162769318,-8.46785259247,126.981262207,0.0102150002494,1.0,0.0,0.0,0.0,1.0,0.0,0.0,0.0,1.0,117.560974121,-3.29268312454,46.8292694092,1.0,0.0,0.0,0.0,1.0,0.0,0.0,0.0,1.0,1.23540805664,-0.488417138672,-10.5584293213,1.0,0.0,0.0,0.0,1.0,0.0,0.0,0.0,1.0
1463662452005129148,826,1463662451813045998,,-2.2188706398,-8.43748474121,127.33807373,0.00986899994314,1.0,0.0,0.0,0.0,1.0,0.0,0.0,0.0,1.0,100.792686462,2.80487799644,42.5,1.0,0.0,0.0,0.0,1.0,0.0,0.0,0.0,1.0,-0.0143652099609,-1.0534486574,-9.67736311035,1.0,0.0,0.0,0.0,1.0,0.0,0.0,0.0,1.0
1463662452005167382,827,1463662451822936865,,-1.39020955563,-8.43173789978,127.64680481,0.0101140001789,1.0,0.0,0.0,0.0,1.0,0.0,0.0,0.0,1.0,78.9024429321,-0.792682945728,36.8292694092,1.0,0.0,0.0,0.0,1.0,0.0,0.0,0.0,1.0,0.330399829102,-1.18273554705,-10.3094323486,1.0,0.0,0.0,0.0,1.0,0.0,0.0,0.0,1.0
1463662452007538678,828,1463662451832950876,,-0.71946066618,-8.46265792847,127.897743225,0.0101250000298,1.0,0.0,0.0,0.0,1.0,0.0,0.0,0.0,1.0,60.8536643982,-2.37804889679,31.5243930817,1.0,0.0,0.0,0.0,1.0,0.0,0.0,0.0,1.0,0.0574608398438,-1.70467158203,-10.8313683105,1.0,0.0,0.0,0.0,1.0,0.0,0.0,0.0,1.0
1463662452007729800,829,1463662451843261026,,-0.255055904388,-8.52760601044,128.110610962,0.0100779999048,1.0,0.0,0.0,0.0,1.0,0.0,0.0,0.0,1.0,47.4390258789,-4.2682929039,26.9512195587,1.0,0.0,0.0,0.0,1.0,0.0,0.0,0.0,1.0,-0.220266552734,-0.435744702148,-11.7172229248,1.0,0.0,0.0,0.0,1.0,0.0,0.0,0.0,1.0
1463662452007832941,830,1463662451853044481,,0.148915946484,-8.56345367432,128.251663208,0.0100990002975,1.0,0.0,0.0,0.0,1.0,0.0,0.0,0.0,1.0,40.2439041138,-8.10975551605,20.0,1.0,0.0,0.0,0.0,1.0,0.0,0.0,0.0,1.0,1.26413847656,-0.565031591797,-12.0571995605,1.0,0.0,0.0,0.0,1.0,0.0,0.0,0.0,1.0
1463662452007876385,831,1463662451863204972,,0.46245393157,-8.66813564301,128.357269287,0.0100809996948,1.0,0.0,0.0,0.0,1.0,0.0,0.0,0.0,1.0,32.5,-10.3048782349,16.4634151459,1.0,0.0,0.0,0.0,1.0,0.0,0.0,0.0,1.0,0.220266552734,-0.253785375977,-10.6350437744,1.0,0.0,0.0,0.0,1.0,0.0,0.0,0.0,1.0
1463662452007914412,832,1463662451873397813,,0.732411682606,-8.8170003891,128.449401855,0.0101690003648,1.0,0.0,0.0,0.0,1.0,0.0,0.0,0.0,1.0,25.975610733,-13.658536911,15.4878053665,1.0,0.0,0.0,0.0,1.0,0.0,0.0,0.0,1.0,0.0383072265625,-0.641646044922,-10.5009684814,1.0,0.0,0.0,0.0,1.0,0.0,0.0,0.0,1.0
1463662452007952646,833,1463662451883363900,,0.957797706127,-8.97731781006,128.534317017,0.0100589999929,1.0,0.0,0.0,0.0,1.0,0.0,0.0,0.0,1.0,19.5731716156,-16.2195110321,15.3658533096,1.0,0.0,0.0,0.0,1.0,0.0,0.0,0.0,1.0,0.244208569336,-1.02471831055,-9.71567033691,1.0,0.0,0.0,0.0,1.0,0.0,0.0,0.0,1.0
1463662452007992184,834,1463662451893800839,,1.09074878693,-9.1426525116,128.60534668,0.0101929996163,1.0,0.0,0.0,0.0,1.0,0.0,0.0,0.0,1.0,10.7317075729,-16.2195110321,13.9024391174,1.0,0.0,0.0,0.0,1.0,0.0,0.0,0.0,1.0,0.167594116211,-0.948103857422,-9.86411083984,1.0,0.0,0.0,0.0,1.0,0.0,0.0,0.0,1.0
1463662452008030679,835,1463662451903858711,,1.06079471111,-9.29000854492,128.696502686,0.0100469999015,1.0,0.0,0.0,0.0,1.0,0.0,0.0,0.0,1.0,-2.5,-21.9512195587,15.7317075729,1.0,0.0,0.0,0.0,1.0,0.0,0.0,0.0,1.0,1.33117612305,-0.493205541992,-9.01177504883,1.0,0.0,0.0,0.0,1.0,0.0,0.0,0.0,1.0
1463662452008068758,836,1463662451914055301,,1.05986237526,-9.46840381622,128.706420898,0.010045000352,1.0,0.0,0.0,0.0,1.0,0.0,0.0,0.0,1.0,-2.07317066193,-19.4512195587,7.92682981491,1.0,0.0,0.0,0.0,1.0,0.0,0.0,0.0,1.0,0.402225878906,-0.76135612793,-10.1562034424,1.0,0.0,0.0,0.0,1.0,0.0,0.0,0.0,1.0
1463662452008108920,837,1463662451924621583,,1.01129055023,-9.71562957764,128.673934937,0.0101209999993,1.0,0.0,0.0,0.0,1.0,0.0,0.0,0.0,1.0,-5.60975599289,-21.5853652954,3.53658556938,1.0,0.0,0.0,0.0,1.0,0.0,0.0,0.0,1.0,-0.483628735352,-0.430956298828,-10.4004120117,1.0,0.0,0.0,0.0,1.0,0.0,0.0,0.0,1.0
1463662452008144082,838,1463662451934095565,,0.929585635662,-9.96921253204,128.592163086,0.0102350004017,1.0,0.0,0.0,0.0,1.0,0.0,0.0,0.0,1.0,-9.32926845551,-22.0121955872,-1.2195122242,1.0,0.0,0.0,0.0,1.0,0.0,0.0,0.0,1.0,-0.531512805087,-0.368707055664,-10.4482960449,1.0,0.0,0.0,0.0,1.0,0.0,0.0,0.0,1.0
1463662452008180233,839,1463662451943955803,,0.8436242342,-10.2163381577,128.467391968,0.00998600013554,1.0,0.0,0.0,0.0,1.0,0.0,0.0,0.0,1.0,-11.2195119858,-20.8536586761,-5.60975599289,1.0,0.0,0.0,0.0,1.0,0.0,0.0,0.0,1.0,-0.814028564453,-0.445321508789,-10.6446205811,1.0,0.0,0.0,0.0,1.0,0.0,0.0,0.0,1.0
1463662452008364792,840,1463662451953987629,,0.761800289154,-10.4771766663,128.290100098,0.0101460004225,1.0,0.0,0.0,0.0,1.0,0.0,0.0,0.0,1.0,-13.1707324982,-20.1219520569,-10.2439022064,1.0,0.0,0.0,0.0,1.0,0.0,0.0,0.0,1.0,-1.18273554705,-0.723048901367,-10.5680061279,1.0,0.0,0.0,0.0,1.0,0.0,0.0,0.0,1.0
1463662452019067813,841,1463662451964128482,,0.642212808132,-10.7204523087,128.080551147,0.0100549999624,1.0,0.0,0.0,0.0,1.0,0.0,0.0,0.0,1.0,-15.2439022064,-19.4512195587,-14.0243902206,1.0,0.0,0.0,0.0,1.0,0.0,0.0,0.0,1.0,-1.09654436035,-0.244208569336,-10.7739074707,1.0,0.0,0.0,0.0,1.0,0.0,0.0,0.0,1.0
1463662453440659241,842,1463662451974215785,,0.521082937717,-10.9435682297,127.834495544,0.0101009998471,1.0,0.0,0.0,0.0,1.0,0.0,0.0,0.0,1.0,-15.8536596298,-18.4146347046,-17.5609760284,1.0,0.0,0.0,0.0,1.0,0.0,0.0,0.0,1.0,-0.91458503418,-0.172382519531,-10.5296989014,1.0,0.0,0.0,0.0,1.0,0.0,0.0,0.0,1.0
1463662453440937148,843,1463662451984174163,,0.393709719181,-11.1670465469,127.562446594,0.0100830001757,1.0,0.0,0.0,0.0,1.0,0.0,0.0,0.0,1.0,-16.4024391174,-17.5609760284,-20.3048782349,1.0,0.0,0.0,0.0,1.0,0.0,0.0,0.0,1.0,-1.11090957031,-0.0191536132812,-10.3956236084,1.0,0.0,0.0,0.0,1.0,0.0,0.0,0.0,1.0
1463662453441177496,844,1463662451994789671,,0.253152251244,-11.3681535721,127.271064758,0.0101319998503,1.0,0.0,0.0,0.0,1.0,0.0,0.0,0.0,1.0,-17.2560977936,-16.4024391174,-22.2560977936,1.0,0.0,0.0,0.0,1.0,0.0,0.0,0.0,1.0,-0.91458503418,0.15801730957,-10.2567599121,1.0,0.0,0.0,0.0,1.0,0.0,0.0,0.0,1.0
1463662453441440036,845,1463662452005091277,,0.0908548235893,-11.5586252213,126.979286194,0.010374000296,1.0,0.0,0.0,0.0,1.0,0.0,0.0,0.0,1.0,-17.7439022064,-15.3658533096,-21.9512195587,1.0,0.0,0.0,0.0,1.0,0.0,0.0,0.0,1.0,-0.833182177734,0.407014282227,-10.0221281494,1.0,0.0,0.0,0.0,1.0,0.0,0.0,0.0,1.0
1463662453441678770,846,1463662452015603645,,-0.0804439485073,-11.719953537,126.711715698,0.00991499982774,1.0,0.0,0.0,0.0,1.0,0.0,0.0,0.0,1.0,-18.2926826477,-13.841463089,-21.0975627899,1.0,0.0,0.0,0.0,1.0,0.0,0.0,0.0,1.0,-0.732625708008,0.593762048251,-9.80665,1.0,0.0,0.0,0.0,1.0,0.0,0.0,0.0,1.0
1463662453441911097,847,1463662452024326211,,-0.261756360531,-11.8690948486,126.4662323,0.00997000001371,1.0,0.0,0.0,0.0,1.0,0.0,0.0,0.0,1.0,-16.8292694092,-13.048781395,-19.2682914734,1.0,0.0,0.0,0.0,1.0,0.0,0.0,0.0,1.0,-0.627280834961,0.938527050781,-9.44273076313,1.0,0.0,0.0,0.0,1.0,0.0,0.0,0.0,1.0
1463662453442151602,848,1463662452034814304,,-0.424752473831,-11.9936113358,126.248161316,0.0101539995521,1.0,0.0,0.0,0.0,1.0,0.0,0.0,0.0,1.0,-13.7804880142,-12.1951217651,-16.341463089,1.0,0.0,0.0,0.0,1.0,0.0,0.0,0.0,1.0,-0.325611425781,1.01514150391,-9.36611631001,1.0,0.0,0.0,0.0,1.0,0.0,0.0,0.0,1.0
1463662453442413047,849,1463662452045904258,,-0.551097929478,-12.1127557755,126.075401306,0.0101469997317,1.0,0.0,0.0,0.0,1.0,0.0,0.0,0.0,1.0,-11.2804880142,-12.0121955872,-11.6463422775,1.0,0.0,0.0,0.0,1.0,0.0,0.0,0.0,1.0,-0.292092584273,0.703895288086,-9.38526992329,1.0,0.0,0.0,0.0,1.0,0.0,0.0,0.0,1.0
1463662453442647301,850,1463662452055717927,,-0.6809694767,-12.2186431885,125.946685791,0.0100809996948,1.0,0.0,0.0,0.0,1.0,0.0,0.0,0.0,1.0,-10.7926826477,-11.4024391174,-7.56097555161,1.0,0.0,0.0,0.0,1.0,0.0,0.0,0.0,1.0,-0.205901342773,0.732625708008,-9.36132790669,1.0,0.0,0.0,0.0,1.0,0.0,0.0,0.0,1.0
1463662453442918488,851,1463662452065282182,,-0.810346007347,-12.3336820602,125.855888367,0.0101009998471,1.0,0.0,0.0,0.0,1.0,0.0,0.0,0.0,1.0,-9.81707286835,-11.5853662491,-3.96341490746,1.0,0.0,0.0,0.0,1.0,0.0,0.0,0.0,1.0,-0.354341845703,0.799663354492,-9.64863327495,1.0,0.0,0.0,0.0,1.0,0.0,0.0,0.0,1.0
1463662453443173214,852,1463662452075355108,,-0.922660171986,-12.4541292191,125.786262512,0.0100320000201,1.0,0.0,0.0,0.0,1.0,0.0,0.0,0.0,1.0,-8.96341514587,-11.8292684555,-1.76829278469,1.0,0.0,0.0,0.0,1.0,0.0,0.0,0.0,1.0,-0.445321508789,0.61770402832,-9.69651672363,1.0,0.0,0.0,0.0,1.0,0.0,0.0,0.0,1.0
1463662453443480500,853,1463662452084987760,,-1.02623438835,-12.5818958282,125.730834961,0.0100899999961,1.0,0.0,0.0,0.0,1.0,0.0,0.0,0.0,1.0,-7.92682981491,-12.0121955872,-0.365853667259,1.0,0.0,0.0,0.0,1.0,0.0,0.0,0.0,1.0,-0.560243188477,0.612915625,-9.8545340332,1.0,0.0,0.0,0.0,1.0,0.0,0.0,0.0,1.0
1463662453443756948,854,1463662452095818456,,-1.06946384907,-12.6269006729,125.649337769,0.0101579995826,1.0,0.0,0.0,0.0,1.0,0.0,0.0,0.0,1.0,-5.06097555161,-10.6707315445,-2.25609779358,1.0,0.0,0.0,0.0,1.0,0.0,0.0,0.0,1.0,0.670376464844,0.172382519531,-10.0939541992,1.0,0.0,0.0,0.0,1.0,0.0,0.0,0.0,1.0
1463662453444017560,855,1463662452105628582,,-1.12874472141,-12.7605762482,125.592597961,0.010050999932,1.0,0.0,0.0,0.0,1.0,0.0,0.0,0.0,1.0,-3.17073178291,-12.1341466904,-0.670731723309,1.0,0.0,0.0,0.0,1.0,0.0,0.0,0.0,1.0,-0.646434448242,0.684741674805,-9.40442353657,1.0,0.0,0.0,0.0,1.0,0.0,0.0,0.0,1.0
1463662453444278485,856,1463662452115454336,,-1.17419052124,-12.8593559265,125.531860352,0.0101209999993,1.0,0.0,0.0,0.0,1.0,0.0,0.0,0.0,1.0,-1.2195122242,-10.7317075729,-1.15853655338,1.0,0.0,0.0,0.0,1.0,0.0,0.0,0.0,1.0,-0.316034619141,0.837970581055,-9.82101520996,1.0,0.0,0.0,0.0,1.0,0.0,0.0,0.0,1.0
1463662453444568633,857,1463662452125858510,,-1.17680382729,-12.973742485,125.470092773,0.0101260002702,1.0,0.0,0.0,0.0,1.0,0.0,0.0,0.0,1.0,2.25609779358,-10.4878053665,-1.09756100178,1.0,0.0,0.0,0.0,1.0,0.0,0.0,0.0,1.0,-0.651222851562,0.718260498047,-9.84495722656,1.0,0.0,0.0,0.0,1.0,0.0,0.0,0.0,1.0
1463662453444841278,858,1463662452135978006,,-1.1486055851,-13.0704450607,125.399719238,0.0101420003921,1.0,0.0,0.0,0.0,1.0,0.0,0.0,0.0,1.0,3.29268312454,-8.90243911743,-1.46341466904,1.0,0.0,0.0,0.0,1.0,0.0,0.0,0.0,1.0,-0.627280834961,0.387860668945,-9.65821008159,1.0,0.0,0.0,0.0,1.0,0.0,0.0,0.0,1.0
1463662453445100640,859,1463662452145914661,,-1.12868762016,-13.1512174606,125.334983826,0.0100739998743,1.0,0.0,0.0,0.0,1.0,0.0,0.0,0.0,1.0,3.23170733452,-8.41463470459,-1.09756100178,1.0,0.0,0.0,0.0,1.0,0.0,0.0,0.0,1.0,-0.46447512207,0.493205541992,-9.62469125835,1.0,0.0,0.0,0.0,1.0,0.0,0.0,0.0,1.0
1463662453445365732,860,1463662452156296540,,-1.109770298,-13.2234172821,125.26802063,0.0103599997237,1.0,0.0,0.0,0.0,1.0,0.0,0.0,0.0,1.0,3.23170733452,-7.98780536652,-1.15853655338,1.0,0.0,0.0,0.0,1.0,0.0,0.0,0.0,1.0,-0.368707055664,0.517147558594,-9.58638403179,1.0,0.0,0.0,0.0,1.0,0.0,0.0,0.0,1.0
1463662453445671508,861,1463662452166348317,,-1.08468818665,-13.3081045151,125.199699402,0.00977999996394,1.0,0.0,0.0,0.0,1.0,0.0,0.0,0.0,1.0,2.98780488968,-8.35365867615,-1.46341466904,1.0,0.0,0.0,0.0,1.0,0.0,0.0,0.0,1.0,-0.641646044922,0.383072265625,-10.060435376,1.0,0.0,0.0,0.0,1.0,0.0,0.0,0.0,1.0
1463662453445959937,862,1463662452176006024,,-1.05986189842,-13.4010601044,125.126869202,0.0101129999384,1.0,0.0,0.0,0.0,1.0,0.0,0.0,0.0,1.0,1.64634156227,-9.32926845551,-1.40243899822,1.0,0.0,0.0,0.0,1.0,0.0,0.0,0.0,1.0,-0.588973571866,0.167594116211,-10.2471831055,1.0,0.0,0.0,0.0,1.0,0.0,0.0,0.0,1.0
1463662453446237635,863,1463662452186716130,,-1.06667554379,-13.5014095306,125.062225342,0.0101190004498,1.0,0.0,0.0,0.0,1.0,0.0,0.0,0.0,1.0,-1.03658533096,-9.32926845551,-0.670731723309,1.0,0.0,0.0,0.0,1.0,0.0,0.0,0.0,1.0,-0.76614453125,0.220266552734,-10.5727945312,1.0,0.0,0.0,0.0,1.0,0.0,0.0,0.0,1.0
1463662453446497830,864,1463662452196499273,,-1.08700585365,-13.5955314636,125.011360168,0.0101570002735,1.0,0.0,0.0,0.0,1.0,0.0,0.0,0.0,1.0,-2.80487799644,-8.90243911743,0.853658556938,1.0,0.0,0.0,0.0,1.0,0.0,0.0,0.0,1.0,-0.742202514648,0.076614453125,-10.5009684814,1.0,0.0,0.0,0.0,1.0,0.0,0.0,0.0,1.0
1463662453446769538,865,1463662452206407330,,-1.14723706245,-13.7006511688,124.988845825,0.0100699998438,1.0,0.0,0.0,0.0,1.0,0.0,0.0,0.0,1.0,-5.18292713165,-8.96341514587,3.29268312454,1.0,0.0,0.0,0.0,1.0,0.0,0.0,0.0,1.0,-0.976834277344,0.263362164351,-10.4866032715,1.0,0.0,0.0,0.0,1.0,0.0,0.0,0.0,1.0
1463662453447038797,866,1463662452216773322,,-1.20976960659,-13.8092832565,124.985427856,0.0100720003247,1.0,0.0,0.0,0.0,1.0,0.0,0.0,0.0,1.0,-6.21951246262,-8.41463470459,5.42682933807,1.0,0.0,0.0,0.0,1.0,0.0,0.0,0.0,1.0,-1.14921679688,0.0335188255255,-10.2807019287,1.0,0.0,0.0,0.0,1.0,0.0,0.0,0.0,1.0
1463662453447330925,867,1463662452226418527,,-1.32196497917,-13.9115896225,124.996498108,0.0100769996643,1.0,0.0,0.0,0.0,1.0,0.0,0.0,0.0,1.0,-8.47560977936,-8.29268264771,6.21951246262,1.0,0.0,0.0,0.0,1.0,0.0,0.0,0.0,1.0,-1.13485158691,0.507570751953,-10.8170031006,1.0,0.0,0.0,0.0,1.0,0.0,0.0,0.0,1.0
1463662453447602528,868,1463662452236993560,,-1.42441797256,-13.9980993271,125.00680542,0.010169999674,1.0,0.0,0.0,0.0,1.0,0.0,0.0,0.0,1.0,-7.80487823486,-7.13414621353,6.21951246262,1.0,0.0,0.0,0.0,1.0,0.0,0.0,0.0,1.0,-1.05823706072,0.45489831543,-10.8026378906,1.0,0.0,0.0,0.0,1.0,0.0,0.0,0.0,1.0
1463662453447861005,869,1463662452246927924,,-1.53881049156,-14.0881118774,125.022499084,0.0100279999897,1.0,0.0,0.0,0.0,1.0,0.0,0.0,0.0,1.0,-8.41463470459,-6.52439069748,6.58536624908,1.0,0.0,0.0,0.0,1.0,0.0,0.0,0.0,1.0,-1.31202250977,0.603338854892,-11.0133276367,1.0,0.0,0.0,0.0,1.0,0.0,0.0,0.0,1.0
1463662453448117658,870,1463662452257168010,,-1.64613115788,-14.1881341934,125.041168213,0.0101129999384,1.0,0.0,0.0,0.0,1.0,0.0,0.0,0.0,1.0,-6.64634132385,-6.82926845551,6.58536624908,1.0,0.0,0.0,0.0,1.0,0.0,0.0,0.0,1.0,-1.38384855957,0.77093293457,-10.4961800781,1.0,0.0,0.0,0.0,1.0,0.0,0.0,0.0,1.0
1463662453448379989,871,1463662452267126544,,-1.74560439587,-14.2802753448,125.070487976,0.0102059999481,1.0,0.0,0.0,0.0,1.0,0.0,0.0,0.0,1.0,-5.79268312454,-6.40243911743,7.62195110321,1.0,0.0,0.0,0.0,1.0,0.0,0.0,0.0,1.0,-1.34075292969,0.746990917969,-10.6111017578,1.0,0.0,0.0,0.0,1.0,0.0,0.0,0.0,1.0
1463662453448649561,872,1463662452277628233,,-1.85140442848,-14.364068985,125.113265991,0.0100029995665,1.0,0.0,0.0,0.0,1.0,0.0,0.0,0.0,1.0,-4.14634132385,-5.79268312454,8.41463470459,1.0,0.0,0.0,0.0,1.0,0.0,0.0,0.0,1.0,-1.33117612305,1.16358193377,-10.4291424316,1.0,0.0,0.0,0.0,1.0,0.0,0.0,0.0,1.0
1463662453448925593,873,1463662452287896241,,-1.92741811275,-14.4506549835,125.178398132,0.0101830000058,1.0,0.0,0.0,0.0,1.0,0.0,0.0,0.0,1.0,-1.8292683363,-6.89024400711,10.7317075729,1.0,0.0,0.0,0.0,1.0,0.0,0.0,0.0,1.0,-1.17315874041,0.9193734375,-10.3668931885,1.0,0.0,0.0,0.0,1.0,0.0,0.0,0.0,1.0
1463662453449182142,874,1463662452297578379,,-1.99558317661,-14.5269813538,125.270095825,0.0101079996675,1.0,0.0,0.0,0.0,1.0,0.0,0.0,0.0,1.0,-1.09756100178,-6.34146356583,13.4756097794,1.0,0.0,0.0,0.0,1.0,0.0,0.0,0.0,1.0,-1.09654436035,0.780509741211,-10.0412817627,1.0,0.0,0.0,0.0,1.0,0.0,0.0,0.0,1.0
1463662453449463069,875,1463662452307460026,,-2.07229399681,-14.6175632477,125.388923645,0.0100710000843,1.0,0.0,0.0,0.0,1.0,0.0,0.0,0.0,1.0,-0.914634168148,-6.52439069748,15.975610733,1.0,0.0,0.0,0.0,1.0,0.0,0.0,0.0,1.0,-1.33596452637,0.847547387695,-9.88326445312,1.0,0.0,0.0,0.0,1.0,0.0,0.0,0.0,1.0
1463662453449722848,876,1463662452317953536,,-2.15607953072,-14.7103347778,125.539482117,0.0101199997589,1.0,0.0,0.0,0.0,1.0,0.0,0.0,0.0,1.0,-0.914634168148,-6.0365858078,18.9634151459,1.0,0.0,0.0,0.0,1.0,0.0,0.0,0.0,1.0,-1.44130939941,0.809240161133,-9.5432884019,1.0,0.0,0.0,0.0,1.0,0.0,0.0,0.0,1.0
1463662453450024196,877,1463662452328279730,,-2.27081012726,-14.8027105331,125.714118958,0.0101330000907,1.0,0.0,0.0,0.0,1.0,0.0,0.0,0.0,1.0,-0.18292683363,-5.97560977936,20.3658542633,1.0,0.0,0.0,0.0,1.0,0.0,0.0,0.0,1.0,-1.45088620605,1.36948334961,-9.40921193989,1.0,0.0,0.0,0.0,1.0,0.0,0.0,0.0,1.0
1463662453450285068,878,1463662452337561235,,-2.37871432304,-14.8915205002,125.908058167,0.0099670002237,1.0,0.0,0.0,0.0,1.0,0.0,0.0,0.0,1.0,3.96341490746,-5.91463422775,21.6463432312,1.0,0.0,0.0,0.0,1.0,0.0,0.0,0.0,1.0,-1.4604630127,1.95366855469,-9.46667277974,1.0,0.0,0.0,0.0,1.0,0.0,0.0,0.0,1.0
1463662453450845205,879,1463662452347704275,,-2.2044801712,-14.9924268723,126.0391922,0.0101389996707,1.0,0.0,0.0,0.0,1.0,0.0,0.0,0.0,1.0,9.20731735229,-5.30487823486,21.0365848541,1.0,0.0,0.0,0.0,1.0,0.0,0.0,0.0,1.0,-2.32237546422,-2.43729729004,-12.7563064453,1.0,0.0,0.0,0.0,1.0,0.0,0.0,0.0,1.0
1463662453451167702,880,1463662452357776472,,-2.16387701035,-15.0160112381,126.209114075,0.0100790001452,1.0,0.0,0.0,0.0,1.0,0.0,0.0,0.0,1.0,16.4634151459,-3.29268312454,19.6951236725,1.0,0.0,0.0,0.0,1.0,0.0,0.0,0.0,1.0,-0.723048901367,1.47482822266,-8.66222219097,1.0,0.0,0.0,0.0,1.0,0.0,0.0,0.0,1.0
1463662453451459673,881,1463662452368024633,,-2.10494494438,-15.1174125671,126.392669678,0.0100830001757,1.0,0.0,0.0,0.0,1.0,0.0,0.0,0.0,1.0,20.1829280853,-4.2682929039,20.5487823486,1.0,0.0,0.0,0.0,1.0,0.0,0.0,0.0,1.0,-1.68072956543,1.62805712891,-8.06367119141,1.0,0.0,0.0,0.0,1.0,0.0,0.0,0.0,1.0
1463662453451767219,882,1463662452378624878,,-1.98158097267,-15.1963500977,126.585769653,0.0102709997445,1.0,0.0,0.0,0.0,1.0,0.0,0.0,0.0,1.0,24.2073173523,-3.71951246262,21.7682933807,1.0,0.0,0.0,0.0,1.0,0.0,0.0,0.0,1.0,-1.40300217285,1.23061965332,-7.93917270508,1.0,0.0,0.0,0.0,1.0,0.0,0.0,0.0,1.0
1463662453452026165,883,1463662452388582162,,-1.76766085625,-15.3051671982,126.758346558,0.00997500028461,1.0,0.0,0.0,0.0,1.0,0.0,0.0,0.0,1.0,22.5,-5.85365867615,23.2317085266,1.0,0.0,0.0,0.0,1.0,0.0,0.0,0.0,1.0,-1.62805712891,-0.407014282227,-8.2504189209,1.0,0.0,0.0,0.0,1.0,0.0,0.0,0.0,1.0
1463662453452291100,884,1463662452398139125,,-1.60905265808,-15.4136476517,126.949325562,0.0100589999929,1.0,0.0,0.0,0.0,1.0,0.0,0.0,0.0,1.0,15.6097564697,-3.7804877758,25.4268302917,1.0,0.0,0.0,0.0,1.0,0.0,0.0,0.0,1.0,-2.16435844691,-0.790086547852,-9.20331118164,1.0,0.0,0.0,0.0,1.0,0.0,0.0,0.0,1.0
1463662453452583540,885,1463662452408206321,,-1.54280424118,-15.4970569611,127.155715942,0.0102519998327,1.0,0.0,0.0,0.0,1.0,0.0,0.0,0.0,1.0,6.7682929039,-1.40243899822,26.5853652954,1.0,0.0,0.0,0.0,1.0,0.0,0.0,0.0,1.0,-2.22181914063,-0.823605371094,-9.57680722515,1.0,0.0,0.0,0.0,1.0,0.0,0.0,0.0,1.0
1463662453452836860,886,1463662452419046446,,-1.62704861164,-15.5787801743,127.387924194,0.0100849997252,1.0,0.0,0.0,0.0,1.0,0.0,0.0,0.0,1.0,-1.52439022064,2.5,27.8658542633,1.0,0.0,0.0,0.0,1.0,0.0,0.0,0.0,1.0,-2.82515795898,0.191536132812,-9.15542714844,1.0,0.0,0.0,0.0,1.0,0.0,0.0,0.0,1.0
1463662453453087210,887,1463662452428987425,,-1.76695132256,-15.7104291916,127.637733459,0.0100360000506,1.0,0.0,0.0,0.0,1.0,0.0,0.0,0.0,1.0,-5.0,5.36585378647,29.2682933807,1.0,0.0,0.0,0.0,1.0,0.0,0.0,0.0,1.0,-3.9121255127,0.445321508789,-8.25999572754,1.0,0.0,0.0,0.0,1.0,0.0,0.0,0.0,1.0
1463662453453361106,888,1463662452438696390,,-1.92415952682,-15.7467317581,127.893676758,0.0101460004225,1.0,0.0,0.0,0.0,1.0,0.0,0.0,0.0,1.0,-8.17073154449,13.1707324982,30.3048782349,1.0,0.0,0.0,0.0,1.0,0.0,0.0,0.0,1.0,-3.28005627441,0.15801730957,-7.44596716309,1.0,0.0,0.0,0.0,1.0,0.0,0.0,0.0,1.0
1463662453453653806,889,1463662452448911838,,-2.15331077576,-15.7345895767,128.161453247,0.0100859999657,1.0,0.0,0.0,0.0,1.0,0.0,0.0,0.0,1.0,-12.6829271317,18.475610733,31.0975627899,1.0,0.0,0.0,0.0,1.0,0.0,0.0,0.0,1.0,-3.14119257812,0.493205541992,-6.89530078125,1.0,0.0,0.0,0.0,1.0,0.0,0.0,0.0,1.0
1463662453453921138,890,1463662452459140829,,-2.44201779366,-15.6360864639,128.459686279,0.0100320000201,1.0,0.0,0.0,0.0,1.0,0.0,0.0,0.0,1.0,-14.4512205124,23.5975627899,33.4146347046,1.0,0.0,0.0,0.0,1.0,0.0,0.0,0.0,1.0,-2.40377861293,0.890643017578,-6.2009822998,1.0,0.0,0.0,0.0,1.0,0.0,0.0,0.0,1.0
1463662453454172270,891,1463662452469589281,,-2.78146028519,-15.4296569824,128.79019165,0.0101020000875,1.0,0.0,0.0,0.0,1.0,0.0,0.0,0.0,1.0,-15.975610733,27.4390258789,35.8536605835,1.0,0.0,0.0,0.0,1.0,0.0,0.0,0.0,1.0,-1.75734401855,1.33117612305,-6.8138979248,1.0,0.0,0.0,0.0,1.0,0.0,0.0,0.0,1.0
1463662453454433455,892,1463662452479209014,,-3.04380989075,-15.1675081253,129.081390381,0.0100750001147,1.0,0.0,0.0,0.0,1.0,0.0,0.0,0.0,1.0,-13.4756097794,27.8048782349,33.4756126404,1.0,0.0,0.0,0.0,1.0,0.0,0.0,0.0,1.0,-1.04387185076,0.818816967773,-6.64630380859,1.0,0.0,0.0,0.0,1.0,0.0,0.0,0.0,1.0
1463662453454697297,893,1463662452489215992,,-3.30557656288,-14.9166069031,129.35597229,0.0101680001244,1.0,0.0,0.0,0.0,1.0,0.0,0.0,0.0,1.0,-9.87804889679,28.0487804413,30.7317066193,1.0,0.0,0.0,0.0,1.0,0.0,0.0,0.0,1.0,-1.43173259277,1.60890351563,-7.91044228516,1.0,0.0,0.0,0.0,1.0,0.0,0.0,0.0,1.0
1463662453454956555,894,1463662452500042782,,-3.44945478439,-14.6763114929,129.584472656,0.0101720001549,1.0,0.0,0.0,0.0,1.0,0.0,0.0,0.0,1.0,-4.51219558716,24.5731716156,27.6219520569,1.0,0.0,0.0,0.0,1.0,0.0,0.0,0.0,1.0,-1.16358193377,1.00077629395,-8.9112185791,1.0,0.0,0.0,0.0,1.0,0.0,0.0,0.0,1.0
1463662453455207843,895,1463662452510331158,,-3.55521535873,-14.438082695,129.755065918,0.00998899992555,1.0,0.0,0.0,0.0,1.0,0.0,0.0,0.0,1.0,-2.01219511032,23.2317085266,22.3170719147,1.0,0.0,0.0,0.0,1.0,0.0,0.0,0.0,1.0,-0.952892260742,1.2497732666,-10.2711251221,1.0,0.0,0.0,0.0,1.0,0.0,0.0,0.0,1.0
1463662453455435794,896,1463662452519200308,,-3.5797932148,-14.2435750961,129.908035278,0.0101279998198,1.0,0.0,0.0,0.0,1.0,0.0,0.0,0.0,1.0,2.19512200356,21.341463089,21.2195129395,1.0,0.0,0.0,0.0,1.0,0.0,0.0,0.0,1.0,-1.41257897949,0.622492431641,-10.2759135254,1.0,0.0,0.0,0.0,1.0,0.0,0.0,0.0,1.0
1463662453455672288,897,1463662452529667825,,-3.57667970657,-14.0755090714,130.012023926,0.0100929997861,1.0,0.0,0.0,0.0,1.0,0.0,0.0,0.0,1.0,4.51219558716,22.5,16.4634151459,1.0,0.0,0.0,0.0,1.0,0.0,0.0,0.0,1.0,-1.95845695801,0.756567724609,-9.97424411621,1.0,0.0,0.0,0.0,1.0,0.0,0.0,0.0,1.0
1463662453455898572,898,1463662452539935937,,-3.54091191292,-13.9715108871,130.101135254,0.0100800003856,1.0,0.0,0.0,0.0,1.0,0.0,0.0,0.0,1.0,5.48780488968,21.7073173523,15.4878053665,1.0,0.0,0.0,0.0,1.0,0.0,0.0,0.0,1.0,-2.68150585937,0.363918652344,-9.07402429199,1.0,0.0,0.0,0.0,1.0,0.0,0.0,0.0,1.0
1463662453456128033,899,1463662452550518211,,-3.59881091118,-13.82970047,130.182540894,0.0101150004193,1.0,0.0,0.0,0.0,1.0,0.0,0.0,0.0,1.0,5.06097555161,24.5121955872,12.6219520569,1.0,0.0,0.0,0.0,1.0,0.0,0.0,0.0,1.0,-2.23618435059,1.73340200195,-8.10197841797,1.0,0.0,0.0,0.0,1.0,0.0,0.0,0.0,1.0
1463662453456402346,900,1463662452560248117,,-3.55745959282,-13.6459064484,130.254516602,0.0101539995521,1.0,0.0,0.0,0.0,1.0,0.0,0.0,0.0,1.0,8.47560977936,24.3292694092,13.2317075729,1.0,0.0,0.0,0.0,1.0,0.0,0.0,0.0,1.0,-1.44609780273,0.718260498047,-7.52737001953,1.0,0.0,0.0,0.0,1.0,0.0,0.0,0.0,1.0
1463662453456831004,901,1463662452570652395,,-3.47365117073,-13.4436712265,130.292785645,0.0100290002301,1.0,0.0,0.0,0.0,1.0,0.0,0.0,0.0,1.0,3.84146332741,20.9146347046,11.8292684555,1.0,0.0,0.0,0.0,1.0,0.0,0.0,0.0,1.0,-0.61770402832,-0.392649072266,-7.19218178711,1.0,0.0,0.0,0.0,1.0,0.0,0.0,0.0,1.0
1463662453457117610,902,1463662452579934160,,-3.48033332825,-13.137298584,130.371032715,0.0100929997861,1.0,0.0,0.0,0.0,1.0,0.0,0.0,0.0,1.0,3.53658556938,19.7560977936,13.658536911,1.0,0.0,0.0,0.0,1.0,0.0,0.0,0.0,1.0,1.13963999023,0.809240161133,-9.27034882812,1.0,0.0,0.0,0.0,1.0,0.0,0.0,0.0,1.0
1463662453457402497,903,1463662452589984687,,-3.51454567909,-12.9454956055,130.432281494,0.0101479999721,1.0,0.0,0.0,0.0,1.0,0.0,0.0,0.0,1.0,1.09756100178,10.3048782349,11.2804880142,1.0,0.0,0.0,0.0,1.0,0.0,0.0,0.0,1.0,0.751779321289,0.809240161133,-8.09240161133,1.0,0.0,0.0,0.0,1.0,0.0,0.0,0.0,1.0
1463662453457649982,904,1463662452600548989,,-3.58428502083,-12.8317718506,130.490310669,0.0100640002638,1.0,0.0,0.0,0.0,1.0,0.0,0.0,0.0,1.0,2.25609779358,4.57317066193,9.5731716156,1.0,0.0,0.0,0.0,1.0,0.0,0.0,0.0,1.0,0.632069238281,1.83395847168,-9.66778688823,1.0,0.0,0.0,0.0,1.0,0.0,0.0,0.0,1.0
1463662453457912834,905,1463662452611147463,,-3.56533741951,-12.8577709198,130.514083862,0.0101659996435,1.0,0.0,0.0,0.0,1.0,0.0,0.0,0.0,1.0,3.59756112099,-6.82926845551,7.07317113876,1.0,0.0,0.0,0.0,1.0,0.0,0.0,0.0,1.0,0.225054956055,0.708683691406,-10.5823713379,1.0,0.0,0.0,0.0,1.0,0.0,0.0,0.0,1.0
1463662453458171519,906,1463662452621461363,,-3.56033873558,-12.9764556885,130.506011963,0.0100750001147,1.0,0.0,0.0,0.0,1.0,0.0,0.0,0.0,1.0,-0.975609779358,-13.2926826477,4.20731735229,1.0,0.0,0.0,0.0,1.0,0.0,0.0,0.0,1.0,-0.282515795898,0.229843359375,-10.8505219238,1.0,0.0,0.0,0.0,1.0,0.0,0.0,0.0,1.0
1463662453458424838,907,1463662452631059530,,-3.5411658287,-13.146156311,130.450698853,0.0100800003856,1.0,0.0,0.0,0.0,1.0,0.0,0.0,0.0,1.0,-6.15853643417,-17.8658542633,0.670731723309,1.0,0.0,0.0,0.0,1.0,0.0,0.0,0.0,1.0,-0.349553442383,-0.900219824219,-11.2910550293,1.0,0.0,0.0,0.0,1.0,0.0,0.0,0.0,1.0
1463662453458711184,908,1463662452641828916,,-3.62969613075,-13.4227428436,130.396072388,0.0100940000266,1.0,0.0,0.0,0.0,1.0,0.0,0.0,0.0,1.0,-13.5975618362,-21.8292694092,-0.243902444839,1.0,0.0,0.0,0.0,1.0,0.0,0.0,0.0,1.0,-1.62326872559,-0.229843359375,-10.5823713379,1.0,0.0,0.0,0.0,1.0,0.0,0.0,0.0,1.0
1463662453458985860,909,1463662452651443856,,-3.77464008331,-13.6975364685,130.309936523,0.0101079996675,1.0,0.0,0.0,0.0,1.0,0.0,0.0,0.0,1.0,-16.7682933807,-25.2439041138,-4.2682929039,1.0,0.0,0.0,0.0,1.0,0.0,0.0,0.0,1.0,-0.967257470703,0.411802685547,-10.8648871338,1.0,0.0,0.0,0.0,1.0,0.0,0.0,0.0,1.0
1463662453459269966,910,1463662452662204542,,-3.94802761078,-14.0021629333,130.20149231,0.0101629998535,1.0,0.0,0.0,0.0,1.0,0.0,0.0,0.0,1.0,-16.5853652954,-30.3658542633,-7.62195110321,1.0,0.0,0.0,0.0,1.0,0.0,0.0,0.0,1.0,-0.517147558594,1.12048637695,-10.8026378906,1.0,0.0,0.0,0.0,1.0,0.0,0.0,0.0,1.0
1463662453459577408,911,1463662452670880903,,-4.11009788513,-14.3266296387,130.073059082,0.00999800022691,1.0,0.0,0.0,0.0,1.0,0.0,0.0,0.0,1.0,-15.1829271317,-36.3414611816,-10.548781395,1.0,0.0,0.0,0.0,1.0,0.0,0.0,0.0,1.0,0.15801730957,1.37906015625,-10.7882726807,1.0,0.0,0.0,0.0,1.0,0.0,0.0,0.0,1.0
1463662453459855106,912,1463662452681495317,,-4.24276924133,-14.7517433167,129.927398682,0.0101159997284,1.0,0.0,0.0,0.0,1.0,0.0,0.0,0.0,1.0,-12.8048782349,-45.1219520569,-12.7439022064,1.0,0.0,0.0,0.0,1.0,0.0,0.0,0.0,1.0,-0.0287304199219,1.44130939941,-11.4203419189,1.0,0.0,0.0,0.0,1.0,0.0,0.0,0.0,1.0
1463662453460122855,913,1463662452691124739,,-4.32887554169,-15.2901973724,129.772476196,0.0100929997861,1.0,0.0,0.0,0.0,1.0,0.0,0.0,0.0,1.0,-13.9024391174,-49.634147644,-12.6829271317,1.0,0.0,0.0,0.0,1.0,0.0,0.0,0.0,1.0,-1.71903679199,0.392649072266,-12.9047469482,1.0,0.0,0.0,0.0,1.0,0.0,0.0,0.0,1.0
1463662453460495828,914,1463662452702142235,,-4.40600633621,-15.8627119064,129.603546143,0.0101330000907,1.0,0.0,0.0,0.0,1.0,0.0,0.0,0.0,1.0,-11.6463422775,-58.8414649963,-15.1829271317,1.0,0.0,0.0,0.0,1.0,0.0,0.0,0.0,1.0,-0.354341845703,0.77093293457,-11.7076461182,1.0,0.0,0.0,0.0,1.0,0.0,0.0,0.0,1.0
1463662453460826190,915,1463662452712292360,,-4.48964834213,-16.4619464874,129.433685303,0.0100659998134,1.0,0.0,0.0,0.0,1.0,0.0,0.0,0.0,1.0,-11.9512195587,-62.9268302917,-15.9146347046,1.0,0.0,0.0,0.0,1.0,0.0,0.0,0.0,1.0,-0.239420166016,0.943315454102,-12.018892334,1.0,0.0,0.0,0.0,1.0,0.0,0.0,0.0,1.0
1463662453461159730,916,1463662452722927871,,-4.58045291901,-17.1134757996,129.285568237,0.0101439999416,1.0,0.0,0.0,0.0,1.0,0.0,0.0,0.0,1.0,-11.0365858078,-67.865852356,-14.5121955872,1.0,0.0,0.0,0.0,1.0,0.0,0.0,0.0,1.0,-0.344765039063,1.23061965332,-12.3109849365,1.0,0.0,0.0,0.0,1.0,0.0,0.0,0.0,1.0
1463662453461474153,917,1463662452731887973,,-4.65534257889,-17.8104572296,129.148605347,0.0101399999112,1.0,0.0,0.0,0.0,1.0,0.0,0.0,0.0,1.0,-9.5731716156,-71.8292694092,-13.7804880142,1.0,0.0,0.0,0.0,1.0,0.0,0.0,0.0,1.0,-0.632069238281,1.20667770978,-12.4881558594,1.0,0.0,0.0,0.0,1.0,0.0,0.0,0.0,1.0
1463662453461776177,918,1463662452742436752,,-4.72375440598,-18.5402946472,129.033416748,0.0100269997492,1.0,0.0,0.0,0.0,1.0,0.0,0.0,0.0,1.0,-7.50000047684,-73.9634170532,-12.4390249252,1.0,0.0,0.0,0.0,1.0,0.0,0.0,0.0,1.0,-1.25935007324,1.47961662598,-12.5743471191,1.0,0.0,0.0,0.0,1.0,0.0,0.0,0.0,1.0
1463662453462065909,919,1463662452752588857,,-4.78941202164,-19.2767028809,128.949829102,0.0100840004161,1.0,0.0,0.0,0.0,1.0,0.0,0.0,0.0,1.0,-4.93902444839,-73.0487823486,-9.87804889679,1.0,0.0,0.0,0.0,1.0,0.0,0.0,0.0,1.0,-1.74297880859,1.82917006836,-12.6078659424,1.0,0.0,0.0,0.0,1.0,0.0,0.0,0.0,1.0
1463662453462357046,920,1463662452762074247,,-4.83955955505,-19.9988498688,128.897720337,0.010211000219,1.0,0.0,0.0,0.0,1.0,0.0,0.0,0.0,1.0,-2.07317066193,-70.0000076294,-6.82926845551,1.0,0.0,0.0,0.0,1.0,0.0,0.0,0.0,1.0,-2.15957004359,1.93930334473,-12.7132108154,1.0,0.0,0.0,0.0,1.0,0.0,0.0,0.0,1.0
1463662453462651934,921,1463662452773016106,,-4.86342859268,-20.6642799377,128.887283325,0.0100260004401,1.0,0.0,0.0,0.0,1.0,0.0,0.0,0.0,1.0,1.09756100178,-65.1829299927,-2.43902444839,1.0,0.0,0.0,0.0,1.0,0.0,0.0,0.0,1.0,-2.56179577637,1.81001645508,-12.9191121582,1.0,0.0,0.0,0.0,1.0,0.0,0.0,0.0,1.0
1463662453462980630,922,1463662452783028346,,-4.88716506958,-21.2632598877,128.92855835,0.0100859999657,1.0,0.0,0.0,0.0,1.0,0.0,0.0,0.0,1.0,2.86585378647,-59.390247345,2.80487799644,1.0,0.0,0.0,0.0,1.0,0.0,0.0,0.0,1.0,-2.58573779297,1.83395847168,-13.1824743408,1.0,0.0,0.0,0.0,1.0,0.0,0.0,0.0,1.0
1463662453463265881,923,1463662452792968283,,-4.91101455688,-21.8003005981,129.015716553,0.0101460004225,1.0,0.0,0.0,0.0,1.0,0.0,0.0,0.0,1.0,2.92682933807,-52.7439041138,8.10975551605,1.0,0.0,0.0,0.0,1.0,0.0,0.0,0.0,1.0,-2.93529123535,1.45088620605,-13.4362597168,1.0,0.0,0.0,0.0,1.0,0.0,0.0,0.0,1.0
1463662453463643959,924,1463662452803001151,,-4.95839643478,-22.2835102081,129.155670166,0.0101629998535,1.0,0.0,0.0,0.0,1.0,0.0,0.0,0.0,1.0,-0.426829278469,-44.6341438293,14.7560987473,1.0,0.0,0.0,0.0,1.0,0.0,0.0,0.0,1.0,-3.96958635254,0.660799658203,-13.7283523193,1.0,0.0,0.0,0.0,1.0,0.0,0.0,0.0,1.0
1463662453463895403,925,1463662452812386422,,-5.06061220169,-22.6668281555,129.343551636,0.00996899977326,1.0,0.0,0.0,0.0,1.0,0.0,0.0,0.0,1.0,-5.30487823486,-32.9268302917,20.9146347046,1.0,0.0,0.0,0.0,1.0,0.0,0.0,0.0,1.0,-5.07091911621,0.301669427446,-14.1449434082,1.0,0.0,0.0,0.0,1.0,0.0,0.0,0.0,1.0
1463662453464132210,926,1463662452823080431,,-5.2458729744,-22.8949489594,129.582336426,0.0103380000219,1.0,0.0,0.0,0.0,1.0,0.0,0.0,0.0,1.0,-8.35365867615,-16.0365848541,25.0,1.0,0.0,0.0,0.0,1.0,0.0,0.0,0.0,1.0,-5.48751020508,1.16837033709,-14.2550766846,1.0,0.0,0.0,0.0,1.0,0.0,0.0,0.0,1.0
1463662453464391676,927,1463662452833580401,,-5.43788576126,-22.9387836456,129.828460693,0.010050999932,1.0,0.0,0.0,0.0,1.0,0.0,0.0,0.0,1.0,-5.60975599289,-2.80487799644,25.975610733,1.0,0.0,0.0,0.0,1.0,0.0,0.0,0.0,1.0,-4.38617744141,2.21224233398,-14.4226708008,1.0,0.0,0.0,0.0,1.0,0.0,0.0,0.0,1.0
1463662453464692555,928,1463662452843294054,,-5.56546640396,-22.8563270569,130.063522339,0.0102049997076,1.0,0.0,0.0,0.0,1.0,0.0,0.0,0.0,1.0,1.58536589146,5.24390268326,24.8780498505,1.0,0.0,0.0,0.0,1.0,0.0,0.0,0.0,1.0,-3.17471140137,2.60010300293,-14.5184388672,1.0,0.0,0.0,0.0,1.0,0.0,0.0,0.0,1.0
1463662453464987964,929,1463662452853081312,,-5.60269403458,-22.6871147156,130.262268066,0.00983900018036,1.0,0.0,0.0,0.0,1.0,0.0,0.0,0.0,1.0,9.81707286835,11.0365858078,22.5609760284,1.0,0.0,0.0,0.0,1.0,0.0,0.0,0.0,1.0,-2.12126281703,2.74375510254,-14.1880390381,1.0,0.0,0.0,0.0,1.0,0.0,0.0,0.0,1.0
1463662453465267902,930,1463662452865655657,,-5.54084205627,-22.4614887238,130.456726074,0.0102430004627,1.0,0.0,0.0,0.0,1.0,0.0,0.0,0.0,1.0,18.2926826477,14.9390249252,22.1951236725,1.0,0.0,0.0,0.0,1.0,0.0,0.0,0.0,1.0,-1.70945998535,2.3654710941,-13.3548568604,1.0,0.0,0.0,0.0,1.0,0.0,0.0,0.0,1.0
1463662453465534557,931,1463662452874067083,,-5.41438770294,-22.2108917236,130.646820068,0.0105529995635,1.0,0.0,0.0,0.0,1.0,0.0,0.0,0.0,1.0,20.6097564697,17.6829280853,22.9268302917,1.0,0.0,0.0,0.0,1.0,0.0,0.0,0.0,1.0,-1.8148048584,1.43173259277,-12.6557499756,1.0,0.0,0.0,0.0,1.0,0.0,0.0,0.0,1.0
1463662453465875494,932,1463662452882972958,,-5.29434967041,-21.9606628418,130.819625854,0.00951400026679,1.0,0.0,0.0,0.0,1.0,0.0,0.0,0.0,1.0,17.8048782349,21.7682933807,24.8780498505,1.0,0.0,0.0,0.0,1.0,0.0,0.0,0.0,1.0,-1.98718737793,0.521935925381,-11.7890489746,1.0,0.0,0.0,0.0,1.0,0.0,0.0,0.0,1.0
1463662453466206585,933,1463662452896496196,,-5.22079753876,-21.6506195068,131.017028809,0.0100800003856,1.0,0.0,0.0,0.0,1.0,0.0,0.0,0.0,1.0,9.81707286835,26.158536911,27.8658542633,1.0,0.0,0.0,0.0,1.0,0.0,0.0,0.0,1.0,-1.8626888916,-0.201112939453,-11.286266626,1.0,0.0,0.0,0.0,1.0,0.0,0.0,0.0,1.0
