%time,field.header.seq,field.header.stamp,field.header.frame_id,field.orientation.x,field.orientation.y,field.orientation.z,field.orientation.w,field.orientation_covariance0,field.orientation_covariance1,field.orientation_covariance2,field.orientation_covariance3,field.orientation_covariance4,field.orientation_covariance5,field.orientation_covariance6,field.orientation_covariance7,field.orientation_covariance8,field.angular_velocity.x,field.angular_velocity.y,field.angular_velocity.z,field.angular_velocity_covariance0,field.angular_velocity_covariance1,field.angular_velocity_covariance2,field.angular_velocity_covariance3,field.angular_velocity_covariance4,field.angular_velocity_covariance5,field.angular_velocity_covariance6,field.angular_velocity_covariance7,field.angular_velocity_covariance8,field.linear_acceleration.x,field.linear_acceleration.y,field.linear_acceleration.z,field.linear_acceleration_covariance0,field.linear_acceleration_covariance1,field.linear_acceleration_covariance2,field.linear_acceleration_covariance3,field.linear_acceleration_covariance4,field.linear_acceleration_covariance5,field.linear_acceleration_covariance6,field.linear_acceleration_covariance7,field.linear_acceleration_covariance8
1480336307546459420,460,1480336307276109468,,6.34137964249,2.58862733841,21.5469169617,0.00117199996021,1.0,0.0,0.0,0.0,1.0,0.0,0.0,0.0,1.0,-0.243902444839,1.8902438879,0.792682945728,1.0,0.0,0.0,0.0,1.0,0.0,0.0,0.0,1.0,-0.0814028564453,0.502782348633,10.2328178955,1.0,0.0,0.0,0.0,1.0,0.0,0.0,0.0,1.0
1480336307546500930,461,1480336307293622529,,6.32639122009,2.59478354454,21.5556163788,0.00110500003211,1.0,0.0,0.0,0.0,1.0,0.0,0.0,0.0,1.0,-0.18292683363,2.25609779358,0.670731723309,1.0,0.0,0.0,0.0,1.0,0.0,0.0,0.0,1.0,-0.0430956298828,0.579396801758,10.2184526855,1.0,0.0,0.0,0.0,1.0,0.0,0.0,0.0,1.0
1480336307546576919,462,1480336307314878210,,6.30887174606,2.60772776604,21.5515632629,0.00110999995377,1.0,0.0,0.0,0.0,1.0,0.0,0.0,0.0,1.0,-0.12195122242,2.5,-0.18292683363,1.0,0.0,0.0,0.0,1.0,0.0,0.0,0.0,1.0,0.076614453125,0.565031591797,10.1705686523,1.0,0.0,0.0,0.0,1.0,0.0,0.0,0.0,1.0
1480336307547893261,463,1480336307336288420,,6.30754327774,2.6128411293,21.5355834961,0.00110600003973,1.0,0.0,0.0,0.0,1.0,0.0,0.0,0.0,1.0,0.0,3.29268312454,-0.914634168148,1.0,0.0,0.0,0.0,1.0,0.0,0.0,0.0,1.0,-0.0335188255255,0.512359155273,10.046070166,1.0,0.0,0.0,0.0,1.0,0.0,0.0,0.0,1.0
1480336307548297736,464,1480336307359513145,,6.32858514786,2.61478948593,21.5052433014,0.00101999996696,1.0,0.0,0.0,0.0,1.0,0.0,0.0,0.0,1.0,0.0,3.41463422775,-1.40243899822,1.0,0.0,0.0,0.0,1.0,0.0,0.0,0.0,1.0,-0.181959326172,0.521935925381,10.1753570557,1.0,0.0,0.0,0.0,1.0,0.0,0.0,0.0,1.0
1480336307548357631,465,1480336307381630380,,6.35593080521,2.62154841423,21.4717712402,0.00374000007287,1.0,0.0,0.0,0.0,1.0,0.0,0.0,0.0,1.0,0.0609756112099,2.80487799644,-1.52439022064,1.0,0.0,0.0,0.0,1.0,0.0,0.0,0.0,1.0,-0.320823022461,0.517147558594,10.2280294922,1.0,0.0,0.0,0.0,1.0,0.0,0.0,0.0,1.0
1480336307548417162,466,1480336307402073152,,6.37900924683,2.62616181374,21.4439640045,0.00374500011094,1.0,0.0,0.0,0.0,1.0,0.0,0.0,0.0,1.0,0.243902444839,2.01219511032,-0.792682945728,1.0,0.0,0.0,0.0,1.0,0.0,0.0,0.0,1.0,-0.344765039063,0.565031591797,10.180145459,1.0,0.0,0.0,0.0,1.0,0.0,0.0,0.0,1.0
1480336307548510182,467,1480336307427827592,,6.39555978775,2.63093972206,21.4320430756,0.0050409999676,1.0,0.0,0.0,0.0,1.0,0.0,0.0,0.0,1.0,0.0609756112099,1.2804877758,0.426829278469,1.0,0.0,0.0,0.0,1.0,0.0,0.0,0.0,1.0,-0.31124621582,0.555454785156,10.1992990723,1.0,0.0,0.0,0.0,1.0,0.0,0.0,0.0,1.0
1480336307548594348,468,1480336307444178841,,6.38864994049,2.62986636162,21.4343223572,0.00129100005142,1.0,0.0,0.0,0.0,1.0,0.0,0.0,0.0,1.0,0.18292683363,1.2195122242,0.853658556938,1.0,0.0,0.0,0.0,1.0,0.0,0.0,0.0,1.0,-0.234631762695,0.555454785156,10.2328178955,1.0,0.0,0.0,0.0,1.0,0.0,0.0,0.0,1.0
1480336307548647316,469,1480336307464739112,,6.3685708046,2.6385550499,21.4430961609,0.00113999994937,1.0,0.0,0.0,0.0,1.0,0.0,0.0,0.0,1.0,-0.365853667259,1.52439022064,0.548780500889,1.0,0.0,0.0,0.0,1.0,0.0,0.0,0.0,1.0,-0.196324536133,0.603338854892,10.1274730225,1.0,0.0,0.0,0.0,1.0,0.0,0.0,0.0,1.0
1480336307548702315,470,1480336307485358341,,6.34646987915,2.64576864243,21.449048996,0.00121999997646,1.0,0.0,0.0,0.0,1.0,0.0,0.0,0.0,1.0,-0.18292683363,1.70731711388,0.365853667259,1.0,0.0,0.0,0.0,1.0,0.0,0.0,0.0,1.0,-0.134075302102,0.536301208408,10.0748005859,1.0,0.0,0.0,0.0,1.0,0.0,0.0,0.0,1.0
1480336307548792158,471,1480336307506611158,,6.3308339119,2.65071749687,21.4551906586,0.00112000002991,1.0,0.0,0.0,0.0,1.0,0.0,0.0,0.0,1.0,-0.12195122242,2.68292689323,0.548780500889,1.0,0.0,0.0,0.0,1.0,0.0,0.0,0.0,1.0,-0.0526724365234,0.521935925381,10.180145459,1.0,0.0,0.0,0.0,1.0,0.0,0.0,0.0,1.0
1480336307549039500,472,1480336307527986160,,6.33314943314,2.65546441078,21.4610805511,0.00122700002976,1.0,0.0,0.0,0.0,1.0,0.0,0.0,0.0,1.0,-0.18292683363,2.5,0.365853667259,1.0,0.0,0.0,0.0,1.0,0.0,0.0,0.0,1.0,-0.0239420166016,0.612915625,10.2759135254,1.0,0.0,0.0,0.0,1.0,0.0,0.0,0.0,1.0
1480336307553971223,473,1480336307552520247,,6.32814025879,2.66346096992,21.4513130188,0.00530300009996,1.0,0.0,0.0,0.0,1.0,0.0,0.0,0.0,1.0,0.243902444839,2.5,-0.426829278469,1.0,0.0,0.0,0.0,1.0,0.0,0.0,0.0,1.0,-0.138863696289,0.565031591797,10.0939541992,1.0,0.0,0.0,0.0,1.0,0.0,0.0,0.0,1.0
1480336307575974293,474,1480336307573914989,,6.34148216248,2.66398215294,21.4333896637,0.00106799998321,1.0,0.0,0.0,0.0,1.0,0.0,0.0,0.0,1.0,-0.0609756112099,2.43902444839,-0.609756112099,1.0,0.0,0.0,0.0,1.0,0.0,0.0,0.0,1.0,-0.143652099609,0.541089611728,10.1562034424,1.0,0.0,0.0,0.0,1.0,0.0,0.0,0.0,1.0
1480336307597353358,475,1480336307594865361,,6.34805679321,2.6699616909,21.4150619507,0.000980000011623,1.0,0.0,0.0,0.0,1.0,0.0,0.0,0.0,1.0,-0.304878056049,2.25609779358,-0.670731723309,1.0,0.0,0.0,0.0,1.0,0.0,0.0,0.0,1.0,-0.167594116211,0.517147558594,10.2567599121,1.0,0.0,0.0,0.0,1.0,0.0,0.0,0.0,1.0
1480336307617308322,476,1480336307615289592,,6.35409450531,2.67388653755,21.4050064087,0.00100499996915,1.0,0.0,0.0,0.0,1.0,0.0,0.0,0.0,1.0,0.0,2.74390244484,-0.243902444839,1.0,0.0,0.0,0.0,1.0,0.0,0.0,0.0,1.0,-0.191536132812,0.512359155273,10.2088758789,1.0,0.0,0.0,0.0,1.0,0.0,0.0,0.0,1.0
1480336307641309081,477,1480336307636301942,,6.36113071442,2.67595744133,21.4006538391,0.00102900003549,1.0,0.0,0.0,0.0,1.0,0.0,0.0,0.0,1.0,0.0,2.74390244484,0.12195122242,1.0,0.0,0.0,0.0,1.0,0.0,0.0,0.0,1.0,-0.119710083008,0.675164868164,10.2280294922,1.0,0.0,0.0,0.0,1.0,0.0,0.0,0.0,1.0
1480336307663065382,478,1480336307660121035,,6.3633275032,2.68146395683,21.3935489655,0.00107100000605,1.0,0.0,0.0,0.0,1.0,0.0,0.0,0.0,1.0,-0.12195122242,3.04878044128,-0.487804889679,1.0,0.0,0.0,0.0,1.0,0.0,0.0,0.0,1.0,-0.105344873047,0.622492431641,10.2136642822,1.0,0.0,0.0,0.0,1.0,0.0,0.0,0.0,1.0
1480336307685933860,479,1480336307683803047,,6.38036584854,2.68482255936,21.3689994812,0.00598900020123,1.0,0.0,0.0,0.0,1.0,0.0,0.0,0.0,1.0,-0.12195122242,3.10975623131,-1.03658533096,1.0,0.0,0.0,0.0,1.0,0.0,0.0,0.0,1.0,-0.186747729492,0.517147558594,10.2807019287,1.0,0.0,0.0,0.0,1.0,0.0,0.0,0.0,1.0
1480336307707007876,480,1480336307704823574,,6.39654445648,2.68695735931,21.3443775177,0.00122099998407,1.0,0.0,0.0,0.0,1.0,0.0,0.0,0.0,1.0,-0.18292683363,2.68292689323,-1.09756100178,1.0,0.0,0.0,0.0,1.0,0.0,0.0,0.0,1.0,-0.205901342773,0.536301208408,10.1945106689,1.0,0.0,0.0,0.0,1.0,0.0,0.0,0.0,1.0
1480336307729512920,481,1480336307726431908,,6.41971254349,2.68883347511,21.325920105,0.00143199996091,1.0,0.0,0.0,0.0,1.0,0.0,0.0,0.0,1.0,-0.243902444839,2.92682933807,-0.548780500889,1.0,0.0,0.0,0.0,1.0,0.0,0.0,0.0,1.0,-0.316034619141,0.588973571866,10.0652237793,1.0,0.0,0.0,0.0,1.0,0.0,0.0,0.0,1.0
1480336307749892256,482,1480336307747940712,,6.4354724884,2.69467425346,21.3173294067,0.0015640000347,1.0,0.0,0.0,0.0,1.0,0.0,0.0,0.0,1.0,0.0,2.5,0.0,1.0,0.0,0.0,0.0,1.0,0.0,0.0,0.0,1.0,-0.076614453125,0.584185168546,10.180145459,1.0,0.0,0.0,0.0,1.0,0.0,0.0,0.0,1.0
1480336307770430496,483,1480336307768577597,,6.44440031052,2.6996243,21.3133563995,0.00205500004813,1.0,0.0,0.0,0.0,1.0,0.0,0.0,0.0,1.0,0.0,2.62195134163,-0.0609756112099,1.0,0.0,0.0,0.0,1.0,0.0,0.0,0.0,1.0,-0.110133276367,0.45968671875,10.180145459,1.0,0.0,0.0,0.0,1.0,0.0,0.0,0.0,1.0
1480336307790645405,484,1480336307788990838,,6.44396829605,2.70232057571,21.3061008453,0.00132000003941,1.0,0.0,0.0,0.0,1.0,0.0,0.0,0.0,1.0,-0.0609756112099,2.74390244484,-0.304878056049,1.0,0.0,0.0,0.0,1.0,0.0,0.0,0.0,1.0,-0.076614453125,0.478840332031,10.2567599121,1.0,0.0,0.0,0.0,1.0,0.0,0.0,0.0,1.0
1480336307815636050,485,1480336307810110114,,6.4499206543,2.70339226723,21.2855587006,0.00187699997332,1.0,0.0,0.0,0.0,1.0,0.0,0.0,0.0,1.0,0.18292683363,2.56097555161,-0.914634168148,1.0,0.0,0.0,0.0,1.0,0.0,0.0,0.0,1.0,-0.210689746094,0.497993945312,10.1418382324,1.0,0.0,0.0,0.0,1.0,0.0,0.0,0.0,1.0
1480336307834236444,486,1480336307832149381,,6.4645152092,2.70491743088,21.2643680573,0.00295299990103,1.0,0.0,0.0,0.0,1.0,0.0,0.0,0.0,1.0,0.12195122242,2.56097555161,-0.548780500889,1.0,0.0,0.0,0.0,1.0,0.0,0.0,0.0,1.0,-0.162805712891,0.373495458984,10.0748005859,1.0,0.0,0.0,0.0,1.0,0.0,0.0,0.0,1.0
1480336307855807956,487,1480336307853130325,,6.47788190842,2.71230983734,21.2517147064,0.000973000016529,1.0,0.0,0.0,0.0,1.0,0.0,0.0,0.0,1.0,-0.18292683363,2.74390244484,-0.304878056049,1.0,0.0,0.0,0.0,1.0,0.0,0.0,0.0,1.0,-0.138863696289,0.536301208408,10.1514150391,1.0,0.0,0.0,0.0,1.0,0.0,0.0,0.0,1.0
1480336307875728858,488,1480336307874262570,,6.4924197197,2.71549892426,21.2432365417,0.000966000021435,1.0,0.0,0.0,0.0,1.0,0.0,0.0,0.0,1.0,-0.12195122242,2.37804889679,-0.18292683363,1.0,0.0,0.0,0.0,1.0,0.0,0.0,0.0,1.0,-0.229843359375,0.627280834961,10.1705686523,1.0,0.0,0.0,0.0,1.0,0.0,0.0,0.0,1.0
1480336307899629774,489,1480336307895500907,,6.49617052078,2.71880936623,21.2362117767,0.000961999990977,1.0,0.0,0.0,0.0,1.0,0.0,0.0,0.0,1.0,0.243902444839,2.43902444839,-0.304878056049,1.0,0.0,0.0,0.0,1.0,0.0,0.0,0.0,1.0,-0.181959326172,0.45489831543,10.1992990723,1.0,0.0,0.0,0.0,1.0,0.0,0.0,0.0,1.0
1480336307918616779,490,1480336307916569351,,6.5002617836,2.7213640213,21.2259311676,0.000959000026342,1.0,0.0,0.0,0.0,1.0,0.0,0.0,0.0,1.0,-0.0609756112099,1.70731711388,-0.487804889679,1.0,0.0,0.0,0.0,1.0,0.0,0.0,0.0,1.0,-0.196324536133,0.536301208408,10.1083194092,1.0,0.0,0.0,0.0,1.0,0.0,0.0,0.0,1.0
1480336307947223170,491,1480336307938015915,,6.49664545059,2.72554564476,21.2126464844,0.00101999996696,1.0,0.0,0.0,0.0,1.0,0.0,0.0,0.0,1.0,0.0,2.07317066193,-0.243902444839,1.0,0.0,0.0,0.0,1.0,0.0,0.0,0.0,1.0,-0.076614453125,0.507570751953,10.3237975586,1.0,0.0,0.0,0.0,1.0,0.0,0.0,0.0,1.0
1480336307968608173,492,1480336307963425098,,6.50203323364,2.73113107681,21.207857132,0.00120699999388,1.0,0.0,0.0,0.0,1.0,0.0,0.0,0.0,1.0,0.18292683363,2.25609779358,0.0609756112099,1.0,0.0,0.0,0.0,1.0,0.0,0.0,0.0,1.0,-0.172382519531,0.588973571866,10.2280294922,1.0,0.0,0.0,0.0,1.0,0.0,0.0,0.0,1.0
1480336307986880654,493,1480336307985320148,,6.48595666885,2.73592042923,21.1948757172,0.00588699989021,1.0,0.0,0.0,0.0,1.0,0.0,0.0,0.0,1.0,0.0,1.76829278469,-0.243902444839,1.0,0.0,0.0,0.0,1.0,0.0,0.0,0.0,1.0,-0.167594116211,0.569819995117,10.2040874756,1.0,0.0,0.0,0.0,1.0,0.0,0.0,0.0,1.0
1480336308007542851,494,1480336308005923231,,6.48135328293,2.73887562752,21.1843833923,0.00134800001979,1.0,0.0,0.0,0.0,1.0,0.0,0.0,0.0,1.0,0.0,2.43902444839,-0.487804889679,1.0,0.0,0.0,0.0,1.0,0.0,0.0,0.0,1.0,-0.191536132812,0.593762048251,10.1609918457,1.0,0.0,0.0,0.0,1.0,0.0,0.0,0.0,1.0
1480336308030674660,495,1480336308027209172,,6.4813952446,2.74523448944,21.1738204956,0.00867400038987,1.0,0.0,0.0,0.0,1.0,0.0,0.0,0.0,1.0,0.0609756112099,2.13414645195,-0.365853667259,1.0,0.0,0.0,0.0,1.0,0.0,0.0,0.0,1.0,-0.201112939453,0.579396801758,10.2280294922,1.0,0.0,0.0,0.0,1.0,0.0,0.0,0.0,1.0
1480336308049231721,496,1480336308047691579,,6.48399877548,2.74443793297,21.1566638947,0.00112899998203,1.0,0.0,0.0,0.0,1.0,0.0,0.0,0.0,1.0,0.0,2.5,-0.18292683363,1.0,0.0,0.0,0.0,1.0,0.0,0.0,0.0,1.0,-0.15801730957,0.632069238281,10.1897222656,1.0,0.0,0.0,0.0,1.0,0.0,0.0,0.0,1.0
1480336308071104323,497,1480336308069105071,,6.49054145813,2.74350333214,21.1464252472,0.00116900005378,1.0,0.0,0.0,0.0,1.0,0.0,0.0,0.0,1.0,-0.12195122242,3.10975623131,-0.365853667259,1.0,0.0,0.0,0.0,1.0,0.0,0.0,0.0,1.0,-0.15322890625,0.521935925381,10.0556469727,1.0,0.0,0.0,0.0,1.0,0.0,0.0,0.0,1.0
1480336308091414232,498,1480336308089818414,,6.50478363037,2.74625587463,21.1333675385,0.00157500000205,1.0,0.0,0.0,0.0,1.0,0.0,0.0,0.0,1.0,-0.18292683363,2.74390244484,-0.670731723309,1.0,0.0,0.0,0.0,1.0,0.0,0.0,0.0,1.0,-0.134075302102,0.574608398438,10.2088758789,1.0,0.0,0.0,0.0,1.0,0.0,0.0,0.0,1.0
1480336308112367780,499,1480336308110737952,,6.5188627243,2.75196123123,21.1223621368,0.000982000026852,1.0,0.0,0.0,0.0,1.0,0.0,0.0,0.0,1.0,-0.304878056049,2.92682933807,-0.670731723309,1.0,0.0,0.0,0.0,1.0,0.0,0.0,0.0,1.0,-0.31124621582,0.579396801758,10.3285859619,1.0,0.0,0.0,0.0,1.0,0.0,0.0,0.0,1.0
1480336308133349037,500,1480336308131851030,,6.52362918854,2.75440239906,21.1115074158,0.00102199998219,1.0,0.0,0.0,0.0,1.0,0.0,0.0,0.0,1.0,-0.12195122242,2.19512200356,-0.18292683363,1.0,0.0,0.0,0.0,1.0,0.0,0.0,0.0,1.0,-0.15801730957,0.565031591797,10.1609918457,1.0,0.0,0.0,0.0,1.0,0.0,0.0,0.0,1.0
1480336308155245649,501,1480336308152511300,,6.5290145874,2.7521033287,21.1013660431,0.00102500000503,1.0,0.0,0.0,0.0,1.0,0.0,0.0,0.0,1.0,-0.304878056049,2.68292689323,-0.18292683363,1.0,0.0,0.0,0.0,1.0,0.0,0.0,0.0,1.0,-0.229843359375,0.521935925381,10.1370498291,1.0,0.0,0.0,0.0,1.0,0.0,0.0,0.0,1.0
1480336308175582016,502,1480336308173938074,,6.52706956863,2.76155400276,21.093580246,0.00107799994294,1.0,0.0,0.0,0.0,1.0,0.0,0.0,0.0,1.0,-0.12195122242,2.37804889679,-0.304878056049,1.0,0.0,0.0,0.0,1.0,0.0,0.0,0.0,1.0,-0.134075302102,0.565031591797,10.1705686523,1.0,0.0,0.0,0.0,1.0,0.0,0.0,0.0,1.0
1480336308196556866,503,1480336308194603500,,6.53195476532,2.76480126381,21.0842952728,0.000960999983363,1.0,0.0,0.0,0.0,1.0,0.0,0.0,0.0,1.0,0.243902444839,2.43902444839,-0.18292683363,1.0,0.0,0.0,0.0,1.0,0.0,0.0,0.0,1.0,-0.239420166016,0.478840332031,10.1705686523,1.0,0.0,0.0,0.0,1.0,0.0,0.0,0.0,1.0
1480336308218608321,504,1480336308215860639,,6.53465557098,2.7688035965,21.0771446228,0.00100399996154,1.0,0.0,0.0,0.0,1.0,0.0,0.0,0.0,1.0,-0.304878056049,2.19512200356,0.0,1.0,0.0,0.0,0.0,1.0,0.0,0.0,0.0,1.0,-0.258573779297,0.569819995117,10.2376062988,1.0,0.0,0.0,0.0,1.0,0.0,0.0,0.0,1.0
1480336308238402349,505,1480336308236519295,,6.53576564789,2.77056097984,21.0680427551,0.000973000016529,1.0,0.0,0.0,0.0,1.0,0.0,0.0,0.0,1.0,-0.0609756112099,1.58536589146,-0.18292683363,1.0,0.0,0.0,0.0,1.0,0.0,0.0,0.0,1.0,-0.3064578125,0.502782348633,10.0939541992,1.0,0.0,0.0,0.0,1.0,0.0,0.0,0.0,1.0
1480336308263102216,506,1480336308258154503,,6.52924728394,2.77032899857,21.0647087097,0.00108299998101,1.0,0.0,0.0,0.0,1.0,0.0,0.0,0.0,1.0,-0.0609756112099,1.40243899822,0.304878056049,1.0,0.0,0.0,0.0,1.0,0.0,0.0,0.0,1.0,-0.292092584273,0.560243188477,10.0795889893,1.0,0.0,0.0,0.0,1.0,0.0,0.0,0.0,1.0
1480336308285329919,507,1480336308283036660,,6.50784730911,2.77431631088,21.0693855286,0.00443900004029,1.0,0.0,0.0,0.0,1.0,0.0,0.0,0.0,1.0,-0.243902444839,1.2195122242,0.365853667259,1.0,0.0,0.0,0.0,1.0,0.0,0.0,0.0,1.0,-0.215478149414,0.569819995117,10.0939541992,1.0,0.0,0.0,0.0,1.0,0.0,0.0,0.0,1.0
1480336308305867951,508,1480336308303874168,,6.48067331314,2.7781522274,21.076253891,0.00122500001453,1.0,0.0,0.0,0.0,1.0,0.0,0.0,0.0,1.0,-0.12195122242,2.56097555161,0.670731723309,1.0,0.0,0.0,0.0,1.0,0.0,0.0,0.0,1.0,-0.00957680664062,0.598550451572,10.3046439453,1.0,0.0,0.0,0.0,1.0,0.0,0.0,0.0,1.0
1480336308327587638,509,1480336308324197462,,6.46565055847,2.78093886375,21.0815849304,0.0014600000577,1.0,0.0,0.0,0.0,1.0,0.0,0.0,0.0,1.0,-0.0609756112099,1.95121955872,0.18292683363,1.0,0.0,0.0,0.0,1.0,0.0,0.0,0.0,1.0,-0.15322890625,0.560243188477,10.1753570557,1.0,0.0,0.0,0.0,1.0,0.0,0.0,0.0,1.0
1480336308347059638,510,1480336308345169083,,6.44390583038,2.7830388546,21.0713977814,0.00180399999954,1.0,0.0,0.0,0.0,1.0,0.0,0.0,0.0,1.0,0.0609756112099,2.31707310677,-0.426829278469,1.0,0.0,0.0,0.0,1.0,0.0,0.0,0.0,1.0,-0.00478840332031,0.550666381836,10.180145459,1.0,0.0,0.0,0.0,1.0,0.0,0.0,0.0,1.0
1480336308368101415,511,1480336308365985914,,6.44717597961,2.78237080574,21.0561027527,0.00159500003792,1.0,0.0,0.0,0.0,1.0,0.0,0.0,0.0,1.0,-0.12195122242,3.59756112099,-0.731707334518,1.0,0.0,0.0,0.0,1.0,0.0,0.0,0.0,1.0,-0.0718260498047,0.512359155273,10.2040874756,1.0,0.0,0.0,0.0,1.0,0.0,0.0,0.0,1.0
1480336308388887465,512,1480336308387154981,,6.4636592865,2.78349328041,21.0437393188,0.00118400005158,1.0,0.0,0.0,0.0,1.0,0.0,0.0,0.0,1.0,-0.426829278469,3.90243911743,-0.609756112099,1.0,0.0,0.0,0.0,1.0,0.0,0.0,0.0,1.0,-0.0957680664062,0.588973571866,10.180145459,1.0,0.0,0.0,0.0,1.0,0.0,0.0,0.0,1.0
1480336308411207511,513,1480336308408646962,,6.49801540375,2.78357338905,21.0227470398,0.00126699998509,1.0,0.0,0.0,0.0,1.0,0.0,0.0,0.0,1.0,0.12195122242,4.02439022064,-1.15853655338,1.0,0.0,0.0,0.0,1.0,0.0,0.0,0.0,1.0,-0.110133276367,0.478840332031,10.1945106689,1.0,0.0,0.0,0.0,1.0,0.0,0.0,0.0,1.0
1480336308432740793,514,1480336308429534574,,6.53611803055,2.78404426575,20.9961872101,0.00102800002787,1.0,0.0,0.0,0.0,1.0,0.0,0.0,0.0,1.0,0.0609756112099,3.65853667259,-1.2195122242,1.0,0.0,0.0,0.0,1.0,0.0,0.0,0.0,1.0,-0.196324536133,0.502782348633,10.2040874756,1.0,0.0,0.0,0.0,1.0,0.0,0.0,0.0,1.0
1480336308454771050,515,1480336308450379426,,6.57072877884,2.78201937675,20.9717254639,0.00110999995377,1.0,0.0,0.0,0.0,1.0,0.0,0.0,0.0,1.0,-0.18292683363,3.04878044128,-0.975609779358,1.0,0.0,0.0,0.0,1.0,0.0,0.0,0.0,1.0,-0.320823022461,0.478840332031,10.2088758789,1.0,0.0,0.0,0.0,1.0,0.0,0.0,0.0,1.0
1480336308476080064,516,1480336308471911718,,6.59717035294,2.78681111336,20.9535655975,0.00122700002976,1.0,0.0,0.0,0.0,1.0,0.0,0.0,0.0,1.0,-0.0609756112099,2.80487799644,-0.487804889679,1.0,0.0,0.0,0.0,1.0,0.0,0.0,0.0,1.0,-0.239420166016,0.565031591797,10.1945106689,1.0,0.0,0.0,0.0,1.0,0.0,0.0,0.0,1.0
1480336308495698208,517,1480336308492612509,,6.61788988113,2.78788638115,20.9435195923,0.00109000003431,1.0,0.0,0.0,0.0,1.0,0.0,0.0,0.0,1.0,-0.18292683363,2.31707310677,-0.0609756112099,1.0,0.0,0.0,0.0,1.0,0.0,0.0,0.0,1.0,-0.316034619141,0.497993945312,10.1992990723,1.0,0.0,0.0,0.0,1.0,0.0,0.0,0.0,1.0
1480336308516213480,518,1480336308513558349,,6.61708545685,2.79102134705,20.9351387024,0.001111999969,1.0,0.0,0.0,0.0,1.0,0.0,0.0,0.0,1.0,-0.0609756112099,1.52439022064,0.0609756112099,1.0,0.0,0.0,0.0,1.0,0.0,0.0,0.0,1.0,-0.316034619141,0.478840332031,10.2471831055,1.0,0.0,0.0,0.0,1.0,0.0,0.0,0.0,1.0
1480336308538135717,519,1480336308534996320,,6.60455274582,2.79484510422,20.9336528778,0.0010379999876,1.0,0.0,0.0,0.0,1.0,0.0,0.0,0.0,1.0,-0.0609756112099,1.2195122242,0.12195122242,1.0,0.0,0.0,0.0,1.0,0.0,0.0,0.0,1.0,-0.210689746094,0.61770402832,10.1992990723,1.0,0.0,0.0,0.0,1.0,0.0,0.0,0.0,1.0
1480336308560831124,520,1480336308556348979,,6.58110809326,2.79875183105,20.9346733093,0.0010890000267,1.0,0.0,0.0,0.0,1.0,0.0,0.0,0.0,1.0,-0.0609756112099,1.03658533096,0.12195122242,1.0,0.0,0.0,0.0,1.0,0.0,0.0,0.0,1.0,-0.215478149414,0.531512805087,10.2136642822,1.0,0.0,0.0,0.0,1.0,0.0,0.0,0.0,1.0
1480336308581755818,521,1480336308577601119,,6.55021762848,2.80173683167,20.9317378998,0.000992999994196,1.0,0.0,0.0,0.0,1.0,0.0,0.0,0.0,1.0,-0.18292683363,1.52439022064,0.243902444839,1.0,0.0,0.0,0.0,1.0,0.0,0.0,0.0,1.0,-0.076614453125,0.60812722168,10.1992990723,1.0,0.0,0.0,0.0,1.0,0.0,0.0,0.0,1.0
1480336308602948896,522,1480336308598430241,,6.53039216995,2.8010187149,20.9273395538,0.00107799994294,1.0,0.0,0.0,0.0,1.0,0.0,0.0,0.0,1.0,-0.12195122242,1.76829278469,-0.0609756112099,1.0,0.0,0.0,0.0,1.0,0.0,0.0,0.0,1.0,-0.196324536133,0.526724328702,10.2232410889,1.0,0.0,0.0,0.0,1.0,0.0,0.0,0.0,1.0
1480336308623811039,523,1480336308619026658,,6.5136141777,2.80023550987,20.9204998016,0.00123900000472,1.0,0.0,0.0,0.0,1.0,0.0,0.0,0.0,1.0,-0.365853667259,1.40243899822,-0.243902444839,1.0,0.0,0.0,0.0,1.0,0.0,0.0,0.0,1.0,-0.110133276367,0.555454785156,10.3285859619,1.0,0.0,0.0,0.0,1.0,0.0,0.0,0.0,1.0
1480336308644873389,524,1480336308640779261,,6.49548912048,2.80226588249,20.9160919189,0.00129100005142,1.0,0.0,0.0,0.0,1.0,0.0,0.0,0.0,1.0,-0.12195122242,2.37804889679,-0.12195122242,1.0,0.0,0.0,0.0,1.0,0.0,0.0,0.0,1.0,-0.00957680664062,0.560243188477,10.314220752,1.0,0.0,0.0,0.0,1.0,0.0,0.0,0.0,1.0
1480336308666905781,525,1480336308661601457,,6.4874548912,2.80298757553,20.9087123871,0.00179899996147,1.0,0.0,0.0,0.0,1.0,0.0,0.0,0.0,1.0,0.12195122242,2.01219511032,-0.18292683363,1.0,0.0,0.0,0.0,1.0,0.0,0.0,0.0,1.0,-0.105344873047,0.555454785156,10.1178962158,1.0,0.0,0.0,0.0,1.0,0.0,0.0,0.0,1.0
1480336308685523050,526,1480336308682733493,,6.47630310059,2.80694031715,20.8981990814,0.00167200004216,1.0,0.0,0.0,0.0,1.0,0.0,0.0,0.0,1.0,-0.0609756112099,2.86585378647,-0.304878056049,1.0,0.0,0.0,0.0,1.0,0.0,0.0,0.0,1.0,-0.119710083008,0.579396801758,10.0700121826,1.0,0.0,0.0,0.0,1.0,0.0,0.0,0.0,1.0
1480336308706008686,527,1480336308703208244,,6.47715234756,2.80587315559,20.8826026917,0.00115599995479,1.0,0.0,0.0,0.0,1.0,0.0,0.0,0.0,1.0,-0.243902444839,3.23170733452,-0.670731723309,1.0,0.0,0.0,0.0,1.0,0.0,0.0,0.0,1.0,-0.0814028564453,0.45968671875,10.1992990723,1.0,0.0,0.0,0.0,1.0,0.0,0.0,0.0,1.0
1480336308727503375,528,1480336308724915119,,6.4905796051,2.80472970009,20.8609027863,0.00150999997277,1.0,0.0,0.0,0.0,1.0,0.0,0.0,0.0,1.0,0.0,3.59756112099,-0.670731723309,1.0,0.0,0.0,0.0,1.0,0.0,0.0,0.0,1.0,-0.0909796630859,0.574608398438,10.2759135254,1.0,0.0,0.0,0.0,1.0,0.0,0.0,0.0,1.0
1480336308749077803,529,1480336308746218143,,6.51693153381,2.8052649498,20.8443012238,0.00151800003368,1.0,0.0,0.0,0.0,1.0,0.0,0.0,0.0,1.0,-0.0609756112099,3.71951246262,-0.609756112099,1.0,0.0,0.0,0.0,1.0,0.0,0.0,0.0,1.0,-0.186747729492,0.526724328702,10.1897222656,1.0,0.0,0.0,0.0,1.0,0.0,0.0,0.0,1.0
1480336308769745834,530,1480336308766811747,,6.54409074783,2.80361008644,20.8286018372,0.00137099996209,1.0,0.0,0.0,0.0,1.0,0.0,0.0,0.0,1.0,0.0,3.59756112099,-0.548780500889,1.0,0.0,0.0,0.0,1.0,0.0,0.0,0.0,1.0,-0.244208569336,0.61770402832,10.2088758789,1.0,0.0,0.0,0.0,1.0,0.0,0.0,0.0,1.0
1480336308789465904,531,1480336308787308842,,6.56857776642,2.8025457859,20.8093700409,0.00105500000063,1.0,0.0,0.0,0.0,1.0,0.0,0.0,0.0,1.0,-0.12195122242,3.10975623131,-0.548780500889,1.0,0.0,0.0,0.0,1.0,0.0,0.0,0.0,1.0,-0.134075302102,0.502782348633,10.1609918457,1.0,0.0,0.0,0.0,1.0,0.0,0.0,0.0,1.0
1480336308811706107,532,1480336308808809729,,6.58563518524,2.80356502533,20.7888355255,0.00136300001759,1.0,0.0,0.0,0.0,1.0,0.0,0.0,0.0,1.0,-0.243902444839,3.29268312454,-0.792682945728,1.0,0.0,0.0,0.0,1.0,0.0,0.0,0.0,1.0,-0.191536132812,0.560243188477,10.2376062988,1.0,0.0,0.0,0.0,1.0,0.0,0.0,0.0,1.0
1480336308834887186,533,1480336308829583852,,6.60481739044,2.80142211914,20.7686405182,0.00101699994411,1.0,0.0,0.0,0.0,1.0,0.0,0.0,0.0,1.0,0.0609756112099,2.74390244484,-0.914634168148,1.0,0.0,0.0,0.0,1.0,0.0,0.0,0.0,1.0,-0.239420166016,0.478840332031,10.1992990723,1.0,0.0,0.0,0.0,1.0,0.0,0.0,0.0,1.0
1480336308853531330,534,1480336308850619431,,6.62486743927,2.80477905273,20.7521877289,0.00113500002772,1.0,0.0,0.0,0.0,1.0,0.0,0.0,0.0,1.0,0.12195122242,2.5,-0.365853667259,1.0,0.0,0.0,0.0,1.0,0.0,0.0,0.0,1.0,-0.320823022461,0.521935925381,10.1418382324,1.0,0.0,0.0,0.0,1.0,0.0,0.0,0.0,1.0
1480336308874884718,535,1480336308871904539,,6.63413286209,2.80392551422,20.7405757904,0.00106200005393,1.0,0.0,0.0,0.0,1.0,0.0,0.0,0.0,1.0,0.0609756112099,2.13414645195,-0.243902444839,1.0,0.0,0.0,0.0,1.0,0.0,0.0,0.0,1.0,-0.3064578125,0.517147558594,10.2040874756,1.0,0.0,0.0,0.0,1.0,0.0,0.0,0.0,1.0
1480336308895630925,536,1480336308892769078,,6.63200378418,2.806671381,20.7380619049,0.00108499999624,1.0,0.0,0.0,0.0,1.0,0.0,0.0,0.0,1.0,-0.12195122242,1.34146344662,0.0,1.0,0.0,0.0,0.0,1.0,0.0,0.0,0.0,1.0,-0.253785375977,0.593762048251,10.2088758789,1.0,0.0,0.0,0.0,1.0,0.0,0.0,0.0,1.0
1480336308920966358,537,1480336308914084810,,6.60889863968,2.80985045433,20.7356433868,0.00104400003329,1.0,0.0,0.0,0.0,1.0,0.0,0.0,0.0,1.0,-0.0609756112099,1.34146344662,0.487804889679,1.0,0.0,0.0,0.0,1.0,0.0,0.0,0.0,1.0,-0.15322890625,0.521935925381,10.180145459,1.0,0.0,0.0,0.0,1.0,0.0,0.0,0.0,1.0
1480336308940243309,538,1480336308935039765,,6.5834903717,2.8137178421,20.7321548462,0.0010229999898,1.0,0.0,0.0,0.0,1.0,0.0,0.0,0.0,1.0,0.12195122242,1.8292683363,-0.12195122242,1.0,0.0,0.0,0.0,1.0,0.0,0.0,0.0,1.0,-0.124498486328,0.588973571866,10.2280294922,1.0,0.0,0.0,0.0,1.0,0.0,0.0,0.0,1.0
1480336308961093160,539,1480336308955440350,,6.55736780167,2.82034373283,20.7221698761,0.00104899995495,1.0,0.0,0.0,0.0,1.0,0.0,0.0,0.0,1.0,0.12195122242,1.40243899822,-0.426829278469,1.0,0.0,0.0,0.0,1.0,0.0,0.0,0.0,1.0,0.0430956298828,0.565031591797,10.060435376,1.0,0.0,0.0,0.0,1.0,0.0,0.0,0.0,1.0
1480336308981815773,540,1480336308976170723,,6.54034042358,2.81972694397,20.7066307068,0.00102600001264,1.0,0.0,0.0,0.0,1.0,0.0,0.0,0.0,1.0,0.0,2.01219511032,-0.487804889679,1.0,0.0,0.0,0.0,1.0,0.0,0.0,0.0,1.0,-0.181959326172,0.46447512207,10.1466266357,1.0,0.0,0.0,0.0,1.0,0.0,0.0,0.0,1.0
1480336309000282002,541,1480336308996759275,,6.53490114212,2.8215341568,20.6974143982,0.00102099997457,1.0,0.0,0.0,0.0,1.0,0.0,0.0,0.0,1.0,0.12195122242,2.13414645195,-0.0609756112099,1.0,0.0,0.0,0.0,1.0,0.0,0.0,0.0,1.0,-0.225054956055,0.483628735352,10.0700121826,1.0,0.0,0.0,0.0,1.0,0.0,0.0,0.0,1.0
1480336309023819432,542,1480336309017999905,,6.52701330185,2.81949186325,20.6901607513,0.00117599999066,1.0,0.0,0.0,0.0,1.0,0.0,0.0,0.0,1.0,-0.12195122242,2.74390244484,-0.304878056049,1.0,0.0,0.0,0.0,1.0,0.0,0.0,0.0,1.0,-0.138863696289,0.493205541992,10.2136642822,1.0,0.0,0.0,0.0,1.0,0.0,0.0,0.0,1.0
1480336309043971478,543,1480336309038667622,,6.52586174011,2.82314968109,20.685125351,0.00130100001115,1.0,0.0,0.0,0.0,1.0,0.0,0.0,0.0,1.0,-0.0609756112099,2.86585378647,-0.0609756112099,1.0,0.0,0.0,0.0,1.0,0.0,0.0,0.0,1.0,-0.0335188255255,0.60812722168,10.2519715088,1.0,0.0,0.0,0.0,1.0,0.0,0.0,0.0,1.0
1480336309065117316,544,1480336309060392309,,6.52618360519,2.82038593292,20.672290802,0.00113700004295,1.0,0.0,0.0,0.0,1.0,0.0,0.0,0.0,1.0,-0.12195122242,3.04878044128,-0.548780500889,1.0,0.0,0.0,0.0,1.0,0.0,0.0,0.0,1.0,-0.167594116211,0.579396801758,10.1753570557,1.0,0.0,0.0,0.0,1.0,0.0,0.0,0.0,1.0
1480336309085109624,545,1480336309081710386,,6.54334497452,2.81840968132,20.6529483795,0.0014600000577,1.0,0.0,0.0,0.0,1.0,0.0,0.0,0.0,1.0,-0.12195122242,3.47560977936,-0.487804889679,1.0,0.0,0.0,0.0,1.0,0.0,0.0,0.0,1.0,-0.167594116211,0.488417138672,10.1705686523,1.0,0.0,0.0,0.0,1.0,0.0,0.0,0.0,1.0
1480336309105262451,546,1480336309102586122,,6.56208324432,2.81872630119,20.6382656097,0.0014969999902,1.0,0.0,0.0,0.0,1.0,0.0,0.0,0.0,1.0,-0.12195122242,2.86585378647,-0.853658556938,1.0,0.0,0.0,0.0,1.0,0.0,0.0,0.0,1.0,-0.124498486328,0.512359155273,10.0939541992,1.0,0.0,0.0,0.0,1.0,0.0,0.0,0.0,1.0
1480336309126074490,547,1480336309123133008,,6.57562494278,2.82189035416,20.6217060089,0.00126499996986,1.0,0.0,0.0,0.0,1.0,0.0,0.0,0.0,1.0,0.12195122242,2.56097555161,-0.487804889679,1.0,0.0,0.0,0.0,1.0,0.0,0.0,0.0,1.0,-0.229843359375,0.593762048251,10.2232410889,1.0,0.0,0.0,0.0,1.0,0.0,0.0,0.0,1.0
1480336309147865583,548,1480336309144829154,,6.57954120636,2.82406711578,20.6043300629,0.00142099999357,1.0,0.0,0.0,0.0,1.0,0.0,0.0,0.0,1.0,-0.304878056049,3.04878044128,-0.487804889679,1.0,0.0,0.0,0.0,1.0,0.0,0.0,0.0,1.0,-0.172382519531,0.478840332031,10.0891657959,1.0,0.0,0.0,0.0,1.0,0.0,0.0,0.0,1.0
1480336309167690340,549,1480336309165096250,,6.59366559982,2.82308673859,20.5887928009,0.00164999999106,1.0,0.0,0.0,0.0,1.0,0.0,0.0,0.0,1.0,-0.18292683363,2.62195134163,-0.487804889679,1.0,0.0,0.0,0.0,1.0,0.0,0.0,0.0,1.0,-0.220266552734,0.555454785156,10.285490332,1.0,0.0,0.0,0.0,1.0,0.0,0.0,0.0,1.0
1480336309189056385,550,1480336309185983758,,6.60742855072,2.82165598869,20.5764484406,0.00151800003368,1.0,0.0,0.0,0.0,1.0,0.0,0.0,0.0,1.0,0.0,2.13414645195,0.12195122242,1.0,0.0,0.0,0.0,1.0,0.0,0.0,0.0,1.0,-0.225054956055,0.555454785156,10.2136642822,1.0,0.0,0.0,0.0,1.0,0.0,0.0,0.0,1.0
1480336309209469886,551,1480336309206415332,,6.61793756485,2.82379722595,20.5720024109,0.0015340000391,1.0,0.0,0.0,0.0,1.0,0.0,0.0,0.0,1.0,-0.18292683363,1.95121955872,0.243902444839,1.0,0.0,0.0,0.0,1.0,0.0,0.0,0.0,1.0,-0.277727392578,0.526724328702,10.1705686523,1.0,0.0,0.0,0.0,1.0,0.0,0.0,0.0,1.0
1480336309230140729,552,1480336309227358464,,6.60342693329,2.82078671455,20.5708007812,0.0011340000201,1.0,0.0,0.0,0.0,1.0,0.0,0.0,0.0,1.0,-0.12195122242,2.01219511032,-0.12195122242,1.0,0.0,0.0,0.0,1.0,0.0,0.0,0.0,1.0,-0.191536132812,0.598550451572,10.2519715088,1.0,0.0,0.0,0.0,1.0,0.0,0.0,0.0,1.0
1480336309251457243,553,1480336309248665811,,6.58769273758,2.81991505623,20.5622158051,0.00143900001422,1.0,0.0,0.0,0.0,1.0,0.0,0.0,0.0,1.0,0.0,1.8292683363,-0.0609756112099,1.0,0.0,0.0,0.0,1.0,0.0,0.0,0.0,1.0,-0.205901342773,0.536301208408,10.1609918457,1.0,0.0,0.0,0.0,1.0,0.0,0.0,0.0,1.0
1480336309272132200,554,1480336309269695974,,6.57218456268,2.82135105133,20.5480995178,0.00107200001366,1.0,0.0,0.0,0.0,1.0,0.0,0.0,0.0,1.0,0.0,1.8902438879,-0.487804889679,1.0,0.0,0.0,0.0,1.0,0.0,0.0,0.0,1.0,-0.205901342773,0.445321508789,10.1897222656,1.0,0.0,0.0,0.0,1.0,0.0,0.0,0.0,1.0
1480336309293047155,555,1480336309290473691,,6.56734228134,2.82123708725,20.5413341522,0.00107899995055,1.0,0.0,0.0,0.0,1.0,0.0,0.0,0.0,1.0,0.243902444839,1.95121955872,0.304878056049,1.0,0.0,0.0,0.0,1.0,0.0,0.0,0.0,1.0,-0.263362164351,0.488417138672,10.1178962158,1.0,0.0,0.0,0.0,1.0,0.0,0.0,0.0,1.0
1480336309314005131,556,1480336309311213335,,6.55964660645,2.82217168808,20.5396595001,0.00101799995173,1.0,0.0,0.0,0.0,1.0,0.0,0.0,0.0,1.0,-0.12195122242,2.13414645195,0.0609756112099,1.0,0.0,0.0,0.0,1.0,0.0,0.0,0.0,1.0,-0.186747729492,0.574608398438,10.2184526855,1.0,0.0,0.0,0.0,1.0,0.0,0.0,0.0,1.0
1480336309335953722,557,1480336309332338028,,6.54668426514,2.82559275627,20.5365810394,0.00108099996578,1.0,0.0,0.0,0.0,1.0,0.0,0.0,0.0,1.0,-0.243902444839,2.62195134163,-0.12195122242,1.0,0.0,0.0,0.0,1.0,0.0,0.0,0.0,1.0,-0.00957680664062,0.517147558594,10.180145459,1.0,0.0,0.0,0.0,1.0,0.0,0.0,0.0,1.0
1480336309357009561,558,1480336309353399908,,6.54319620132,2.82950258255,20.5273227692,0.0010969999712,1.0,0.0,0.0,0.0,1.0,0.0,0.0,0.0,1.0,-0.0609756112099,2.92682933807,-0.365853667259,1.0,0.0,0.0,0.0,1.0,0.0,0.0,0.0,1.0,-0.162805712891,0.598550451572,10.2519715088,1.0,0.0,0.0,0.0,1.0,0.0,0.0,0.0,1.0
1480336309377629988,559,1480336309374046324,,6.54594659805,2.82904100418,20.5104942322,0.00119400001131,1.0,0.0,0.0,0.0,1.0,0.0,0.0,0.0,1.0,-0.0609756112099,3.29268312454,-0.853658556938,1.0,0.0,0.0,0.0,1.0,0.0,0.0,0.0,1.0,-0.105344873047,0.483628735352,10.2184526855,1.0,0.0,0.0,0.0,1.0,0.0,0.0,0.0,1.0
1480336309400463727,560,1480336309395132372,,6.56889867783,2.83019065857,20.4944572449,0.0010890000267,1.0,0.0,0.0,0.0,1.0,0.0,0.0,0.0,1.0,-0.243902444839,3.90243911743,-0.792682945728,1.0,0.0,0.0,0.0,1.0,0.0,0.0,0.0,1.0,-0.15801730957,0.550666381836,10.2136642822,1.0,0.0,0.0,0.0,1.0,0.0,0.0,0.0,1.0
1480336309421592430,561,1480336309416213158,,6.60167264938,2.83142137527,20.4822807312,0.00104899995495,1.0,0.0,0.0,0.0,1.0,0.0,0.0,0.0,1.0,-0.0609756112099,3.29268312454,-0.304878056049,1.0,0.0,0.0,0.0,1.0,0.0,0.0,0.0,1.0,-0.292092584273,0.569819995117,10.2184526855,1.0,0.0,0.0,0.0,1.0,0.0,0.0,0.0,1.0
1480336309442540718,562,1480336309436817335,,6.61998081207,2.8303103447,20.4701766968,0.00106999999844,1.0,0.0,0.0,0.0,1.0,0.0,0.0,0.0,1.0,0.243902444839,3.23170733452,-0.243902444839,1.0,0.0,0.0,0.0,1.0,0.0,0.0,0.0,1.0,-0.15801730957,0.579396801758,10.299855542,1.0,0.0,0.0,0.0,1.0,0.0,0.0,0.0,1.0
1480336309464187645,563,1480336309458212025,,6.64038801193,2.83016061783,20.4596328735,0.000991999986582,1.0,0.0,0.0,0.0,1.0,0.0,0.0,0.0,1.0,-0.18292683363,3.23170733452,-0.365853667259,1.0,0.0,0.0,0.0,1.0,0.0,0.0,0.0,1.0,-0.0383072265625,0.569819995117,10.1992990723,1.0,0.0,0.0,0.0,1.0,0.0,0.0,0.0,1.0
1480336309482156535,564,1480336309479212240,,6.6544585228,2.83059716225,20.4408950806,0.00113600003533,1.0,0.0,0.0,0.0,1.0,0.0,0.0,0.0,1.0,0.0,3.53658556938,-0.792682945728,1.0,0.0,0.0,0.0,1.0,0.0,0.0,0.0,1.0,-0.201112939453,0.507570751953,10.2519715088,1.0,0.0,0.0,0.0,1.0,0.0,0.0,0.0,1.0
1480336309508062848,565,1480336309504791369,,6.68335580826,2.8322622776,20.4199886322,0.00551600009203,1.0,0.0,0.0,0.0,1.0,0.0,0.0,0.0,1.0,-0.12195122242,3.29268312454,-0.914634168148,1.0,0.0,0.0,0.0,1.0,0.0,0.0,0.0,1.0,-0.253785375977,0.531512805087,10.1897222656,1.0,0.0,0.0,0.0,1.0,0.0,0.0,0.0,1.0
1480336309531104397,566,1480336309529315300,,6.71561384201,2.83614397049,20.4038238525,0.00556100020185,1.0,0.0,0.0,0.0,1.0,0.0,0.0,0.0,1.0,-0.0609756112099,3.17073178291,-0.426829278469,1.0,0.0,0.0,0.0,1.0,0.0,0.0,0.0,1.0,-0.378283862305,0.579396801758,10.2184526855,1.0,0.0,0.0,0.0,1.0,0.0,0.0,0.0,1.0
1480336309552398932,567,1480336309550159162,,6.72388362885,2.8380753994,20.3925189972,0.00135999999475,1.0,0.0,0.0,0.0,1.0,0.0,0.0,0.0,1.0,-0.12195122242,2.68292689323,-0.365853667259,1.0,0.0,0.0,0.0,1.0,0.0,0.0,0.0,1.0,-0.205901342773,0.560243188477,10.314220752,1.0,0.0,0.0,0.0,1.0,0.0,0.0,0.0,1.0
1480336309573999402,568,1480336309571142294,,6.73386621475,2.83772206306,20.3837127686,0.0009710000013,1.0,0.0,0.0,0.0,1.0,0.0,0.0,0.0,1.0,-0.0609756112099,2.92682933807,-0.0609756112099,1.0,0.0,0.0,0.0,1.0,0.0,0.0,0.0,1.0,-0.15801730957,0.526724328702,10.2136642822,1.0,0.0,0.0,0.0,1.0,0.0,0.0,0.0,1.0
1480336309595418623,569,1480336309592301778,,6.73322963715,2.83886051178,20.3739891052,0.00106599996798,1.0,0.0,0.0,0.0,1.0,0.0,0.0,0.0,1.0,-0.12195122242,2.31707310677,-0.18292683363,1.0,0.0,0.0,0.0,1.0,0.0,0.0,0.0,1.0,-0.191536132812,0.502782348633,10.2088758789,1.0,0.0,0.0,0.0,1.0,0.0,0.0,0.0,1.0
1480336309616169204,570,1480336309613395585,,6.74005699158,2.83875870705,20.3611431122,0.00102399999741,1.0,0.0,0.0,0.0,1.0,0.0,0.0,0.0,1.0,-0.365853667259,2.31707310677,-0.304878056049,1.0,0.0,0.0,0.0,1.0,0.0,0.0,0.0,1.0,-0.205901342773,0.627280834961,10.1753570557,1.0,0.0,0.0,0.0,1.0,0.0,0.0,0.0,1.0
1480336309638383157,571,1480336309634129657,,6.73767900467,2.83866214752,20.3506469727,0.00107600004412,1.0,0.0,0.0,0.0,1.0,0.0,0.0,0.0,1.0,0.0,2.31707310677,-0.487804889679,1.0,0.0,0.0,0.0,1.0,0.0,0.0,0.0,1.0,-0.210689746094,0.574608398438,10.1897222656,1.0,0.0,0.0,0.0,1.0,0.0,0.0,0.0,1.0
1480336309657437037,572,1480336309654846801,,6.73745632172,2.84225034714,20.3433589935,0.00102700002026,1.0,0.0,0.0,0.0,1.0,0.0,0.0,0.0,1.0,0.0,2.25609779358,-0.12195122242,1.0,0.0,0.0,0.0,1.0,0.0,0.0,0.0,1.0,-0.138863696289,0.588973571866,10.1370498291,1.0,0.0,0.0,0.0,1.0,0.0,0.0,0.0,1.0
1480336309681310245,573,1480336309675996962,,6.72968626022,2.84324836731,20.3367862701,0.00101799995173,1.0,0.0,0.0,0.0,1.0,0.0,0.0,0.0,1.0,-0.18292683363,2.13414645195,0.0609756112099,1.0,0.0,0.0,0.0,1.0,0.0,0.0,0.0,1.0,-0.248996972656,0.584185168546,10.165780249,1.0,0.0,0.0,0.0,1.0,0.0,0.0,0.0,1.0
1480336309700295791,574,1480336309698562266,,6.72547578812,2.84067678452,20.3281860352,0.00101400003769,1.0,0.0,0.0,0.0,1.0,0.0,0.0,0.0,1.0,0.0609756112099,2.31707310677,0.0609756112099,1.0,0.0,0.0,0.0,1.0,0.0,0.0,0.0,1.0,-0.296881024126,0.555454785156,10.1609918457,1.0,0.0,0.0,0.0,1.0,0.0,0.0,0.0,1.0
1480336309729249107,575,1480336309722357089,,6.71574544907,2.8394343853,20.3179779053,0.00365100009367,1.0,0.0,0.0,0.0,1.0,0.0,0.0,0.0,1.0,0.12195122242,2.13414645195,0.12195122242,1.0,0.0,0.0,0.0,1.0,0.0,0.0,0.0,1.0,-0.225054956055,0.550666381836,10.2184526855,1.0,0.0,0.0,0.0,1.0,0.0,0.0,0.0,1.0
1480336309748747200,576,1480336309745756031,,6.70887517929,2.84024858475,20.3078613281,0.00468999985605,1.0,0.0,0.0,0.0,1.0,0.0,0.0,0.0,1.0,0.0,2.92682933807,-0.426829278469,1.0,0.0,0.0,0.0,1.0,0.0,0.0,0.0,1.0,-0.0861912597656,0.517147558594,10.1178962158,1.0,0.0,0.0,0.0,1.0,0.0,0.0,0.0,1.0
1480336309768310866,577,1480336309767136034,,6.71591281891,2.8408408165,20.2936820984,0.00114599999506,1.0,0.0,0.0,0.0,1.0,0.0,0.0,0.0,1.0,-0.12195122242,2.98780488968,-0.670731723309,1.0,0.0,0.0,0.0,1.0,0.0,0.0,0.0,1.0,-0.162805712891,0.565031591797,10.2184526855,1.0,0.0,0.0,0.0,1.0,0.0,0.0,0.0,1.0
1480336309789636755,578,1480336309787796304,,6.72698259354,2.84146523476,20.2752037048,0.00116400001571,1.0,0.0,0.0,0.0,1.0,0.0,0.0,0.0,1.0,0.18292683363,3.41463422775,-0.609756112099,1.0,0.0,0.0,0.0,1.0,0.0,0.0,0.0,1.0,-0.129286889648,0.469263525391,10.2711251221,1.0,0.0,0.0,0.0,1.0,0.0,0.0,0.0,1.0
1480336309812487056,579,1480336309809226827,,6.74758148193,2.84458613396,20.2596492767,0.00171700003557,1.0,0.0,0.0,0.0,1.0,0.0,0.0,0.0,1.0,-0.0609756112099,3.35365867615,-0.304878056049,1.0,0.0,0.0,0.0,1.0,0.0,0.0,0.0,1.0,-0.253785375977,0.588973571866,10.2328178955,1.0,0.0,0.0,0.0,1.0,0.0,0.0,0.0,1.0
1480336309830928441,580,1480336309829835118,,6.76803445816,2.84231281281,20.2418136597,0.00118699995801,1.0,0.0,0.0,0.0,1.0,0.0,0.0,0.0,1.0,-0.18292683363,3.29268312454,-0.487804889679,1.0,0.0,0.0,0.0,1.0,0.0,0.0,0.0,1.0,-0.244208569336,0.483628735352,10.1705686523,1.0,0.0,0.0,0.0,1.0,0.0,0.0,0.0,1.0
1480336309852457713,581,1480336309850470701,,6.78413009644,2.84460163116,20.2300243378,0.000975999981165,1.0,0.0,0.0,0.0,1.0,0.0,0.0,0.0,1.0,-0.0609756112099,3.47560977936,-0.304878056049,1.0,0.0,0.0,0.0,1.0,0.0,0.0,0.0,1.0,-0.229843359375,0.560243188477,10.0748005859,1.0,0.0,0.0,0.0,1.0,0.0,0.0,0.0,1.0
1480336309874607761,582,1480336309871295188,,6.80344152451,2.84583759308,20.2201385498,0.000965000013821,1.0,0.0,0.0,0.0,1.0,0.0,0.0,0.0,1.0,-0.18292683363,2.80487799644,-0.18292683363,1.0,0.0,0.0,0.0,1.0,0.0,0.0,0.0,1.0,-0.268150604204,0.550666381836,10.1322614258,1.0,0.0,0.0,0.0,1.0,0.0,0.0,0.0,1.0
1480336309894141375,583,1480336309891740044,,6.81427574158,2.84647154808,20.2088184357,0.000974000024144,1.0,0.0,0.0,0.0,1.0,0.0,0.0,0.0,1.0,-0.0609756112099,2.19512200356,-0.243902444839,1.0,0.0,0.0,0.0,1.0,0.0,0.0,0.0,1.0,-0.296881024126,0.584185168546,10.2328178955,1.0,0.0,0.0,0.0,1.0,0.0,0.0,0.0,1.0
1480336309916315068,584,1480336309912506563,,6.8138256073,2.84349274635,20.194562912,0.000966000021435,1.0,0.0,0.0,0.0,1.0,0.0,0.0,0.0,1.0,-0.365853667259,1.52439022064,-0.426829278469,1.0,0.0,0.0,0.0,1.0,0.0,0.0,0.0,1.0,-0.272938989258,0.512359155273,10.1992990723,1.0,0.0,0.0,0.0,1.0,0.0,0.0,0.0,1.0
1480336309937111170,585,1480336309933278394,,6.8076634407,2.84685564041,20.1883335114,0.000985000049695,1.0,0.0,0.0,0.0,1.0,0.0,0.0,0.0,1.0,-0.18292683363,1.70731711388,0.0,1.0,0.0,0.0,0.0,1.0,0.0,0.0,0.0,1.0,-0.277727392578,0.574608398438,10.2711251221,1.0,0.0,0.0,0.0,1.0,0.0,0.0,0.0,1.0
1480336309957382017,586,1480336309953923404,,6.79062318802,2.84796452522,20.1878318787,0.00096700002905,1.0,0.0,0.0,0.0,1.0,0.0,0.0,0.0,1.0,-0.0609756112099,1.40243899822,0.18292683363,1.0,0.0,0.0,0.0,1.0,0.0,0.0,0.0,1.0,-0.181959326172,0.502782348633,10.3285859619,1.0,0.0,0.0,0.0,1.0,0.0,0.0,0.0,1.0
1480336309980107371,587,1480336309975051326,,6.76242589951,2.85237169266,20.1898708344,0.00104899995495,1.0,0.0,0.0,0.0,1.0,0.0,0.0,0.0,1.0,-0.304878056049,1.58536589146,0.365853667259,1.0,0.0,0.0,0.0,1.0,0.0,0.0,0.0,1.0,-0.138863696289,0.536301208408,10.1370498291,1.0,0.0,0.0,0.0,1.0,0.0,0.0,0.0,1.0
1480336309999922389,588,1480336309995794512,,6.73969078064,2.85321688652,20.1895694733,0.00104400003329,1.0,0.0,0.0,0.0,1.0,0.0,0.0,0.0,1.0,-0.243902444839,2.01219511032,0.243902444839,1.0,0.0,0.0,0.0,1.0,0.0,0.0,0.0,1.0,-0.186747729492,0.560243188477,10.2232410889,1.0,0.0,0.0,0.0,1.0,0.0,0.0,0.0,1.0
1480336310019166735,589,1480336310016186191,,6.73020362854,2.85177898407,20.1862239838,0.000983000034466,1.0,0.0,0.0,0.0,1.0,0.0,0.0,0.0,1.0,-0.12195122242,2.62195134163,0.0,1.0,0.0,0.0,0.0,1.0,0.0,0.0,0.0,1.0,-0.196324536133,0.584185168546,10.2184526855,1.0,0.0,0.0,0.0,1.0,0.0,0.0,0.0,1.0
1480336310042508177,590,1480336310037287967,,6.72683286667,2.85256409645,20.1797618866,0.000997000024654,1.0,0.0,0.0,0.0,1.0,0.0,0.0,0.0,1.0,-0.0609756112099,2.37804889679,0.12195122242,1.0,0.0,0.0,0.0,1.0,0.0,0.0,0.0,1.0,-0.134075302102,0.517147558594,10.2711251221,1.0,0.0,0.0,0.0,1.0,0.0,0.0,0.0,1.0
1480336310060914355,591,1480336310058790156,,6.72904253006,2.85239672661,20.1718006134,0.00117299996782,1.0,0.0,0.0,0.0,1.0,0.0,0.0,0.0,1.0,-0.243902444839,3.10975623131,-0.12195122242,1.0,0.0,0.0,0.0,1.0,0.0,0.0,0.0,1.0,-0.15801730957,0.512359155273,10.1466266357,1.0,0.0,0.0,0.0,1.0,0.0,0.0,0.0,1.0
1480336310084255693,592,1480336310079360896,,6.73773145676,2.85017323494,20.1585597992,0.00110300001688,1.0,0.0,0.0,0.0,1.0,0.0,0.0,0.0,1.0,-0.304878056049,2.98780488968,-0.670731723309,1.0,0.0,0.0,0.0,1.0,0.0,0.0,0.0,1.0,-0.124498486328,0.536301208408,10.180145459,1.0,0.0,0.0,0.0,1.0,0.0,0.0,0.0,1.0
1480336310105124815,593,1480336310100698712,,6.74506664276,2.85166811943,20.1431331635,0.00118100002874,1.0,0.0,0.0,0.0,1.0,0.0,0.0,0.0,1.0,-0.12195122242,3.71951246262,-0.853658556938,1.0,0.0,0.0,0.0,1.0,0.0,0.0,0.0,1.0,-0.124498486328,0.526724328702,10.1705686523,1.0,0.0,0.0,0.0,1.0,0.0,0.0,0.0,1.0
1480336310128559329,594,1480336310122432825,,6.76400184631,2.85259866714,20.1262588501,0.00169599999208,1.0,0.0,0.0,0.0,1.0,0.0,0.0,0.0,1.0,0.0,3.71951246262,-0.731707334518,1.0,0.0,0.0,0.0,1.0,0.0,0.0,0.0,1.0,-0.15322890625,0.584185168546,10.2423947021,1.0,0.0,0.0,0.0,1.0,0.0,0.0,0.0,1.0
1480336310152670139,595,1480336310145057452,,6.78839159012,2.85301280022,20.1049804688,0.00165500002913,1.0,0.0,0.0,0.0,1.0,0.0,0.0,0.0,1.0,0.18292683363,3.47560977936,-1.03658533096,1.0,0.0,0.0,0.0,1.0,0.0,0.0,0.0,1.0,-0.258573779297,0.555454785156,10.2711251221,1.0,0.0,0.0,0.0,1.0,0.0,0.0,0.0,1.0
1480336310167694526,596,1480336310164972312,,6.81667089462,2.85424232483,20.0842285156,0.00124799995683,1.0,0.0,0.0,0.0,1.0,0.0,0.0,0.0,1.0,-0.0609756112099,3.47560977936,-0.548780500889,1.0,0.0,0.0,0.0,1.0,0.0,0.0,0.0,1.0,-0.220266552734,0.646434448242,10.2088758789,1.0,0.0,0.0,0.0,1.0,0.0,0.0,0.0,1.0
1480336310188896665,597,1480336310185746331,,6.83961105347,2.85507059097,20.0688781738,0.00152599997818,1.0,0.0,0.0,0.0,1.0,0.0,0.0,0.0,1.0,-0.304878056049,2.92682933807,-0.487804889679,1.0,0.0,0.0,0.0,1.0,0.0,0.0,0.0,1.0,-0.373495458984,0.502782348633,10.1178962158,1.0,0.0,0.0,0.0,1.0,0.0,0.0,0.0,1.0
1480336310210899891,598,1480336310207233364,,6.85647201538,2.85856223106,20.0559120178,0.00137800001539,1.0,0.0,0.0,0.0,1.0,0.0,0.0,0.0,1.0,0.243902444839,2.25609779358,-0.609756112099,1.0,0.0,0.0,0.0,1.0,0.0,0.0,0.0,1.0,-0.349553442383,0.478840332031,10.3094323486,1.0,0.0,0.0,0.0,1.0,0.0,0.0,0.0,1.0
1480336310232233540,599,1480336310228240506,,6.86334514618,2.85532021523,20.0445823669,0.00127100001555,1.0,0.0,0.0,0.0,1.0,0.0,0.0,0.0,1.0,-0.12195122242,2.13414645195,-0.426829278469,1.0,0.0,0.0,0.0,1.0,0.0,0.0,0.0,1.0,-0.330399829102,0.574608398438,10.2088758789,1.0,0.0,0.0,0.0,1.0,0.0,0.0,0.0,1.0
1480336310253477711,600,1480336310250056494,,6.85765743256,2.85606384277,20.03565979,0.00160299998242,1.0,0.0,0.0,0.0,1.0,0.0,0.0,0.0,1.0,-0.243902444839,1.8902438879,-0.0609756112099,1.0,0.0,0.0,0.0,1.0,0.0,0.0,0.0,1.0,-0.248996972656,0.584185168546,10.2040874756,1.0,0.0,0.0,0.0,1.0,0.0,0.0,0.0,1.0
1480336310273998035,601,1480336310270349268,,6.84621667862,2.85876274109,20.0302505493,0.00124799995683,1.0,0.0,0.0,0.0,1.0,0.0,0.0,0.0,1.0,-0.243902444839,1.8292683363,0.12195122242,1.0,0.0,0.0,0.0,1.0,0.0,0.0,0.0,1.0,-0.172382519531,0.565031591797,10.2232410889,1.0,0.0,0.0,0.0,1.0,0.0,0.0,0.0,1.0
1480336310294889188,602,1480336310291342347,,6.83069705963,2.858273983,20.0260601044,0.00137199996971,1.0,0.0,0.0,0.0,1.0,0.0,0.0,0.0,1.0,-0.243902444839,2.43902444839,-0.0609756112099,1.0,0.0,0.0,0.0,1.0,0.0,0.0,0.0,1.0,-0.100556469727,0.488417138672,10.2376062988,1.0,0.0,0.0,0.0,1.0,0.0,0.0,0.0,1.0
1480336310315061286,603,1480336310311743870,,6.82201480865,2.85817909241,20.0158958435,0.0013340000296,1.0,0.0,0.0,0.0,1.0,0.0,0.0,0.0,1.0,-0.304878056049,2.62195134163,-0.304878056049,1.0,0.0,0.0,0.0,1.0,0.0,0.0,0.0,1.0,-0.148440512063,0.555454785156,10.2280294922,1.0,0.0,0.0,0.0,1.0,0.0,0.0,0.0,1.0
1480336310335615202,604,1480336310332852885,,6.82433319092,2.85784769058,20.0027713776,0.00104600004852,1.0,0.0,0.0,0.0,1.0,0.0,0.0,0.0,1.0,0.0609756112099,3.35365867615,-0.609756112099,1.0,0.0,0.0,0.0,1.0,0.0,0.0,0.0,1.0,-0.162805712891,0.512359155273,10.1945106689,1.0,0.0,0.0,0.0,1.0,0.0,0.0,0.0,1.0
1480336310356372242,605,1480336310353562738,,6.83840703964,2.8558614254,19.9876174927,0.00102199998219,1.0,0.0,0.0,0.0,1.0,0.0,0.0,0.0,1.0,0.0609756112099,3.7804877758,-0.426829278469,1.0,0.0,0.0,0.0,1.0,0.0,0.0,0.0,1.0,-0.234631762695,0.536301208408,10.1562034424,1.0,0.0,0.0,0.0,1.0,0.0,0.0,0.0,1.0
1480336310378034847,606,1480336310374951439,,6.86397075653,2.85275673866,19.9661045074,0.00101999996696,1.0,0.0,0.0,0.0,1.0,0.0,0.0,0.0,1.0,0.0609756112099,3.71951246262,-0.853658556938,1.0,0.0,0.0,0.0,1.0,0.0,0.0,0.0,1.0,-0.296881024126,0.435744702148,10.1466266357,1.0,0.0,0.0,0.0,1.0,0.0,0.0,0.0,1.0
1480336310400977751,607,1480336310396049153,,6.89347410202,2.84963583946,19.9454689026,0.00106599996798,1.0,0.0,0.0,0.0,1.0,0.0,0.0,0.0,1.0,-0.18292683363,3.29268312454,-0.792682945728,1.0,0.0,0.0,0.0,1.0,0.0,0.0,0.0,1.0,-0.325611425781,0.61770402832,10.2711251221,1.0,0.0,0.0,0.0,1.0,0.0,0.0,0.0,1.0
1480336310421312660,608,1480336310417406603,,6.91122674942,2.8500058651,19.926240921,0.00107500003651,1.0,0.0,0.0,0.0,1.0,0.0,0.0,0.0,1.0,0.0,3.35365867615,-0.914634168148,1.0,0.0,0.0,0.0,1.0,0.0,0.0,0.0,1.0,-0.268150604204,0.512359155273,10.1992990723,1.0,0.0,0.0,0.0,1.0,0.0,0.0,0.0,1.0
1480336310443165574,609,1480336310438059426,,6.92776727676,2.84854483604,19.9078845978,0.00113600003533,1.0,0.0,0.0,0.0,1.0,0.0,0.0,0.0,1.0,-0.304878056049,2.92682933807,-0.792682945728,1.0,0.0,0.0,0.0,1.0,0.0,0.0,0.0,1.0,-0.316034619141,0.588973571866,10.2519715088,1.0,0.0,0.0,0.0,1.0,0.0,0.0,0.0,1.0
1480336310462788355,610,1480336310458692769,,6.93819904327,2.84605407715,19.888338089,0.001304000034,1.0,0.0,0.0,0.0,1.0,0.0,0.0,0.0,1.0,0.18292683363,2.43902444839,-0.487804889679,1.0,0.0,0.0,0.0,1.0,0.0,0.0,0.0,1.0,-0.378283862305,0.550666381836,10.2040874756,1.0,0.0,0.0,0.0,1.0,0.0,0.0,0.0,1.0
1480336310483472531,611,1480336310479187832,,6.94462680817,2.8427605629,19.8725738525,0.00110200000927,1.0,0.0,0.0,0.0,1.0,0.0,0.0,0.0,1.0,-0.243902444839,2.37804889679,-0.426829278469,1.0,0.0,0.0,0.0,1.0,0.0,0.0,0.0,1.0,-0.296881024126,0.536301208408,10.046070166,1.0,0.0,0.0,0.0,1.0,0.0,0.0,0.0,1.0
1480336310504831804,612,1480336310500832885,,6.94240856171,2.84379529953,19.8666057587,0.00115000002552,1.0,0.0,0.0,0.0,1.0,0.0,0.0,0.0,1.0,-0.243902444839,1.8292683363,-0.0609756112099,1.0,0.0,0.0,0.0,1.0,0.0,0.0,0.0,1.0,-0.292092584273,0.483628735352,10.1992990723,1.0,0.0,0.0,0.0,1.0,0.0,0.0,0.0,1.0
1480336310525571813,613,1480336310522162836,,6.92767906189,2.84613728523,19.8620758057,0.00125700002536,1.0,0.0,0.0,0.0,1.0,0.0,0.0,0.0,1.0,0.12195122242,1.64634156227,0.0,1.0,0.0,0.0,0.0,1.0,0.0,0.0,0.0,1.0,-0.229843359375,0.588973571866,10.1562034424,1.0,0.0,0.0,0.0,1.0,0.0,0.0,0.0,1.0
1480336310553682012,614,1480336310543693358,,6.9110417366,2.84781813622,19.8526973724,0.00127100001555,1.0,0.0,0.0,0.0,1.0,0.0,0.0,0.0,1.0,0.12195122242,1.8292683363,0.0,1.0,0.0,0.0,0.0,1.0,0.0,0.0,0.0,1.0,-0.191536132812,0.526724328702,10.1178962158,1.0,0.0,0.0,0.0,1.0,0.0,0.0,0.0,1.0
1480336310567499223,615,1480336310565532471,,6.9029417038,2.84769964218,19.8402099609,0.00121400004718,1.0,0.0,0.0,0.0,1.0,0.0,0.0,0.0,1.0,-0.12195122242,1.8902438879,-0.12195122242,1.0,0.0,0.0,0.0,1.0,0.0,0.0,0.0,1.0,-0.191536132812,0.565031591797,10.2184526855,1.0,0.0,0.0,0.0,1.0,0.0,0.0,0.0,1.0
1480336310589174222,616,1480336310586912890,,6.89071369171,2.84758090973,19.8298988342,0.00116600003093,1.0,0.0,0.0,0.0,1.0,0.0,0.0,0.0,1.0,-0.0609756112099,1.8292683363,-0.18292683363,1.0,0.0,0.0,0.0,1.0,0.0,0.0,0.0,1.0,-0.234631762695,0.560243188477,10.2902787354,1.0,0.0,0.0,0.0,1.0,0.0,0.0,0.0,1.0
1480336310609003407,617,1480336310607324517,,6.87682437897,2.8494181633,19.82380867,0.00145500001963,1.0,0.0,0.0,0.0,1.0,0.0,0.0,0.0,1.0,-0.243902444839,1.52439022064,0.243902444839,1.0,0.0,0.0,0.0,1.0,0.0,0.0,0.0,1.0,-0.172382519531,0.560243188477,10.1897222656,1.0,0.0,0.0,0.0,1.0,0.0,0.0,0.0,1.0
1480336310632002821,618,1480336310629567688,,6.85726642609,2.84803533554,19.8158454895,0.00175399996806,1.0,0.0,0.0,0.0,1.0,0.0,0.0,0.0,1.0,0.12195122242,2.01219511032,-0.243902444839,1.0,0.0,0.0,0.0,1.0,0.0,0.0,0.0,1.0,-0.162805712891,0.555454785156,10.2232410889,1.0,0.0,0.0,0.0,1.0,0.0,0.0,0.0,1.0
1480336310652818923,619,1480336310650058324,,6.8425822258,2.84924149513,19.8092536926,0.00151500001084,1.0,0.0,0.0,0.0,1.0,0.0,0.0,0.0,1.0,-0.18292683363,2.19512200356,-0.304878056049,1.0,0.0,0.0,0.0,1.0,0.0,0.0,0.0,1.0,-0.220266552734,0.517147558594,10.2136642822,1.0,0.0,0.0,0.0,1.0,0.0,0.0,0.0,1.0
1480336310675336623,620,1480336310671198538,,6.82647228241,2.84968209267,19.7976989746,0.00133999995887,1.0,0.0,0.0,0.0,1.0,0.0,0.0,0.0,1.0,0.0609756112099,2.19512200356,-0.548780500889,1.0,0.0,0.0,0.0,1.0,0.0,0.0,0.0,1.0,-0.124498486328,0.526724328702,10.2184526855,1.0,0.0,0.0,0.0,1.0,0.0,0.0,0.0,1.0
1480336310695397107,621,1480336310692500989,,6.8203587532,2.84843349457,19.7826156616,0.00110300001688,1.0,0.0,0.0,0.0,1.0,0.0,0.0,0.0,1.0,0.0,2.13414645195,-0.609756112099,1.0,0.0,0.0,0.0,1.0,0.0,0.0,0.0,1.0,-0.172382519531,0.651222851562,10.1992990723,1.0,0.0,0.0,0.0,1.0,0.0,0.0,0.0,1.0
1480336310718060900,622,1480336310713873023,,6.8199005127,2.84773468971,19.7706832886,0.00125099997967,1.0,0.0,0.0,0.0,1.0,0.0,0.0,0.0,1.0,0.0,2.01219511032,0.0,1.0,0.0,0.0,0.0,1.0,0.0,0.0,0.0,1.0,-0.349553442383,0.502782348633,10.2280294922,1.0,0.0,0.0,0.0,1.0,0.0,0.0,0.0,1.0
1480336310738967417,623,1480336310735210110,,6.81390762329,2.84802365303,19.7648887634,0.0013340000296,1.0,0.0,0.0,0.0,1.0,0.0,0.0,0.0,1.0,-0.0609756112099,1.8292683363,0.0,1.0,0.0,0.0,0.0,1.0,0.0,0.0,0.0,1.0,-0.210689746094,0.579396801758,10.180145459,1.0,0.0,0.0,0.0,1.0,0.0,0.0,0.0,1.0
1480336310761415743,624,1480336310756103555,,6.80330944061,2.84699892998,19.7616043091,0.00122400000691,1.0,0.0,0.0,0.0,1.0,0.0,0.0,0.0,1.0,0.0,1.70731711388,0.0609756112099,1.0,0.0,0.0,0.0,1.0,0.0,0.0,0.0,1.0,-0.239420166016,0.550666381836,10.1131078125,1.0,0.0,0.0,0.0,1.0,0.0,0.0,0.0,1.0
1480336310780369363,625,1480336310776568045,,6.78244876862,2.84797239304,19.7524414062,0.00132299994584,1.0,0.0,0.0,0.0,1.0,0.0,0.0,0.0,1.0,0.0,1.8292683363,0.18292683363,1.0,0.0,0.0,0.0,1.0,0.0,0.0,0.0,1.0,-0.114921679688,0.512359155273,10.299855542,1.0,0.0,0.0,0.0,1.0,0.0,0.0,0.0,1.0
1480336310801586659,626,1480336310797841122,,6.77128744125,2.84913110733,19.7420005798,0.00132399995346,1.0,0.0,0.0,0.0,1.0,0.0,0.0,0.0,1.0,0.0609756112099,2.43902444839,-0.365853667259,1.0,0.0,0.0,0.0,1.0,0.0,0.0,0.0,1.0,-0.201112939453,0.517147558594,10.2184526855,1.0,0.0,0.0,0.0,1.0,0.0,0.0,0.0,1.0
1480336310820336479,627,1480336310818505975,,6.7696146965,2.84916973114,19.7319126129,0.001304000034,1.0,0.0,0.0,0.0,1.0,0.0,0.0,0.0,1.0,0.12195122242,1.8292683363,-0.365853667259,1.0,0.0,0.0,0.0,1.0,0.0,0.0,0.0,1.0,-0.31124621582,0.521935925381,10.2232410889,1.0,0.0,0.0,0.0,1.0,0.0,0.0,0.0,1.0
1480336310847250022,628,1480336310839109579,,6.75847387314,2.84945511818,19.7287540436,0.00136700004805,1.0,0.0,0.0,0.0,1.0,0.0,0.0,0.0,1.0,0.304878056049,2.37804889679,0.487804889679,1.0,0.0,0.0,0.0,1.0,0.0,0.0,0.0,1.0,-0.138863696289,0.588973571866,10.2711251221,1.0,0.0,0.0,0.0,1.0,0.0,0.0,0.0,1.0
1480336310868899397,629,1480336310860166721,,6.75809812546,2.85228919983,19.722070694,0.00116999994498,1.0,0.0,0.0,0.0,1.0,0.0,0.0,0.0,1.0,-0.12195122242,2.37804889679,-0.731707334518,1.0,0.0,0.0,0.0,1.0,0.0,0.0,0.0,1.0,-0.181959326172,0.550666381836,10.3956236084,1.0,0.0,0.0,0.0,1.0,0.0,0.0,0.0,1.0
1480336310887961505,630,1480336310881470474,,6.74471187592,2.85180282593,19.7059288025,0.00120299996343,1.0,0.0,0.0,0.0,1.0,0.0,0.0,0.0,1.0,0.12195122242,2.07317066193,-0.304878056049,1.0,0.0,0.0,0.0,1.0,0.0,0.0,0.0,1.0,-0.248996972656,0.526724328702,10.2184526855,1.0,0.0,0.0,0.0,1.0,0.0,0.0,0.0,1.0
1480336310907924699,631,1480336310902278087,,6.74015760422,2.84894442558,19.6957550049,0.00122900004499,1.0,0.0,0.0,0.0,1.0,0.0,0.0,0.0,1.0,-0.487804889679,2.5,-0.243902444839,1.0,0.0,0.0,0.0,1.0,0.0,0.0,0.0,1.0,-0.248996972656,0.569819995117,10.1274730225,1.0,0.0,0.0,0.0,1.0,0.0,0.0,0.0,1.0
1480336310925472395,632,1480336310923143094,,6.73546934128,2.84814572334,19.6915149689,0.0013340000296,1.0,0.0,0.0,0.0,1.0,0.0,0.0,0.0,1.0,-0.0609756112099,1.95121955872,0.426829278469,1.0,0.0,0.0,0.0,1.0,0.0,0.0,0.0,1.0,-0.105344873047,0.517147558594,10.1226846191,1.0,0.0,0.0,0.0,1.0,0.0,0.0,0.0,1.0
1480336310947728327,633,1480336310944566534,,6.73596429825,2.85135126114,19.6883525848,0.00133200001437,1.0,0.0,0.0,0.0,1.0,0.0,0.0,0.0,1.0,-0.304878056049,3.47560977936,0.12195122242,1.0,0.0,0.0,0.0,1.0,0.0,0.0,0.0,1.0,-0.263362164351,0.574608398438,10.060435376,1.0,0.0,0.0,0.0,1.0,0.0,0.0,0.0,1.0
1480336310968616303,634,1480336310965152221,,6.74813938141,2.85324764252,19.6794567108,0.00133799994364,1.0,0.0,0.0,0.0,1.0,0.0,0.0,0.0,1.0,-0.12195122242,2.86585378647,-0.365853667259,1.0,0.0,0.0,0.0,1.0,0.0,0.0,0.0,1.0,-0.220266552734,0.593762048251,10.180145459,1.0,0.0,0.0,0.0,1.0,0.0,0.0,0.0,1.0
1480336310989563758,635,1480336310986384257,,6.75514173508,2.85213541985,19.6673259735,0.00118300004397,1.0,0.0,0.0,0.0,1.0,0.0,0.0,0.0,1.0,0.0,3.04878044128,-0.487804889679,1.0,0.0,0.0,0.0,1.0,0.0,0.0,0.0,1.0,-0.196324536133,0.507570751953,10.2376062988,1.0,0.0,0.0,0.0,1.0,0.0,0.0,0.0,1.0
1480336311012036666,636,1480336311007777801,,6.76950550079,2.85591864586,19.6542854309,0.00156600004993,1.0,0.0,0.0,0.0,1.0,0.0,0.0,0.0,1.0,0.0609756112099,2.43902444839,-0.487804889679,1.0,0.0,0.0,0.0,1.0,0.0,0.0,0.0,1.0,-0.253785375977,0.555454785156,10.1322614258,1.0,0.0,0.0,0.0,1.0,0.0,0.0,0.0,1.0
1480336311030387740,637,1480336311027922035,,6.76834583282,2.8575823307,19.6389102936,0.00154600001406,1.0,0.0,0.0,0.0,1.0,0.0,0.0,0.0,1.0,-0.0609756112099,2.68292689323,-0.304878056049,1.0,0.0,0.0,0.0,1.0,0.0,0.0,0.0,1.0,-0.229843359375,0.474051928711,10.2519715088,1.0,0.0,0.0,0.0,1.0,0.0,0.0,0.0,1.0
1480336311052316904,638,1480336311049398182,,6.77166318893,2.85865449905,19.6253700256,0.00146599998698,1.0,0.0,0.0,0.0,1.0,0.0,0.0,0.0,1.0,-0.12195122242,2.92682933807,-0.365853667259,1.0,0.0,0.0,0.0,1.0,0.0,0.0,0.0,1.0,-0.162805712891,0.474051928711,10.1514150391,1.0,0.0,0.0,0.0,1.0,0.0,0.0,0.0,1.0
1480336311072918998,639,1480336311069680643,,6.77187633514,2.85429668427,19.6123123169,0.0012309999438,1.0,0.0,0.0,0.0,1.0,0.0,0.0,0.0,1.0,-0.12195122242,3.29268312454,-0.426829278469,1.0,0.0,0.0,0.0,1.0,0.0,0.0,0.0,1.0,-0.129286889648,0.512359155273,10.1897222656,1.0,0.0,0.0,0.0,1.0,0.0,0.0,0.0,1.0
1480336311093511716,640,1480336311090605755,,6.79114103317,2.85530734062,19.6029415131,0.00157199997921,1.0,0.0,0.0,0.0,1.0,0.0,0.0,0.0,1.0,0.12195122242,2.43902444839,-0.548780500889,1.0,0.0,0.0,0.0,1.0,0.0,0.0,0.0,1.0,-0.330399829102,0.512359155273,10.060435376,1.0,0.0,0.0,0.0,1.0,0.0,0.0,0.0,1.0
1480336311114138080,641,1480336311111666281,,6.79436826706,2.85637187958,19.5947036743,0.0010300000431,1.0,0.0,0.0,0.0,1.0,0.0,0.0,0.0,1.0,0.426829278469,2.25609779358,-0.18292683363,1.0,0.0,0.0,0.0,1.0,0.0,0.0,0.0,1.0,-0.196324536133,0.60812722168,10.1035310059,1.0,0.0,0.0,0.0,1.0,0.0,0.0,0.0,1.0
1480336311135140431,642,1480336311132352749,,6.79162502289,2.85747861862,19.5873851776,0.00102500000503,1.0,0.0,0.0,0.0,1.0,0.0,0.0,0.0,1.0,0.0,2.25609779358,0.12195122242,1.0,0.0,0.0,0.0,1.0,0.0,0.0,0.0,1.0,-0.210689746094,0.641646044922,9.97424411621,1.0,0.0,0.0,0.0,1.0,0.0,0.0,0.0,1.0
1480336311155966532,643,1480336311153174215,,6.78661489487,2.85554480553,19.5807781219,0.00112799997441,1.0,0.0,0.0,0.0,1.0,0.0,0.0,0.0,1.0,0.243902444839,1.40243899822,0.0,1.0,0.0,0.0,0.0,1.0,0.0,0.0,0.0,1.0,-0.129286889648,0.497993945312,10.1562034424,1.0,0.0,0.0,0.0,1.0,0.0,0.0,0.0,1.0
1480336311180780408,644,1480336311174236252,,6.768887043,2.85555171967,19.5720615387,0.0010229999898,1.0,0.0,0.0,0.0,1.0,0.0,0.0,0.0,1.0,0.12195122242,2.19512200356,-0.0609756112099,1.0,0.0,0.0,0.0,1.0,0.0,0.0,0.0,1.0,0.00957680664062,0.45489831543,10.3046439453,1.0,0.0,0.0,0.0,1.0,0.0,0.0,0.0,1.0
1480336311201084067,645,1480336311195218394,,6.76072502136,2.85646128654,19.563325882,0.00106999999844,1.0,0.0,0.0,0.0,1.0,0.0,0.0,0.0,1.0,-0.0609756112099,2.56097555161,0.0609756112099,1.0,0.0,0.0,0.0,1.0,0.0,0.0,0.0,1.0,-0.0526724365234,0.584185168546,10.3573163818,1.0,0.0,0.0,0.0,1.0,0.0,0.0,0.0,1.0
1480336311221982616,646,1480336311216653761,,6.75474834442,2.85770440102,19.5491809845,0.00103399995714,1.0,0.0,0.0,0.0,1.0,0.0,0.0,0.0,1.0,-0.0609756112099,2.92682933807,-0.365853667259,1.0,0.0,0.0,0.0,1.0,0.0,0.0,0.0,1.0,-0.0718260498047,0.517147558594,10.1322614258,1.0,0.0,0.0,0.0,1.0,0.0,0.0,0.0,1.0
1480336311243218922,647,1480336311237434759,,6.76421070099,2.85941314697,19.5339851379,0.0010379999876,1.0,0.0,0.0,0.0,1.0,0.0,0.0,0.0,1.0,-0.487804889679,3.7804877758,-0.853658556938,1.0,0.0,0.0,0.0,1.0,0.0,0.0,0.0,1.0,-0.129286889648,0.588973571866,10.1897222656,1.0,0.0,0.0,0.0,1.0,0.0,0.0,0.0,1.0
1480336311262002492,648,1480336311258868876,,6.7858543396,2.85974502563,19.5117721558,0.00115100003313,1.0,0.0,0.0,0.0,1.0,0.0,0.0,0.0,1.0,0.12195122242,3.35365867615,-1.15853655338,1.0,0.0,0.0,0.0,1.0,0.0,0.0,0.0,1.0,-0.272938989258,0.507570751953,10.2232410889,1.0,0.0,0.0,0.0,1.0,0.0,0.0,0.0,1.0
1480336311287739484,649,1480336311280364138,,6.81299161911,2.85971736908,19.4926681519,0.00123699998949,1.0,0.0,0.0,0.0,1.0,0.0,0.0,0.0,1.0,0.0609756112099,3.53658556938,-0.731707334518,1.0,0.0,0.0,0.0,1.0,0.0,0.0,0.0,1.0,-0.244208569336,0.565031591797,10.1178962158,1.0,0.0,0.0,0.0,1.0,0.0,0.0,0.0,1.0
1480336311308499753,650,1480336311301519456,,6.84192323685,2.85957980156,19.4789295197,0.00127300003078,1.0,0.0,0.0,0.0,1.0,0.0,0.0,0.0,1.0,-0.0609756112099,2.92682933807,-0.12195122242,1.0,0.0,0.0,0.0,1.0,0.0,0.0,0.0,1.0,-0.435744702148,0.584185168546,10.3477395752,1.0,0.0,0.0,0.0,1.0,0.0,0.0,0.0,1.0
1480336311332511033,651,1480336311323104977,,6.85090112686,2.85979127884,19.4700908661,0.00132200005464,1.0,0.0,0.0,0.0,1.0,0.0,0.0,0.0,1.0,-0.12195122242,2.86585378647,-0.18292683363,1.0,0.0,0.0,0.0,1.0,0.0,0.0,0.0,1.0,-0.210689746094,0.588973571866,10.1562034424,1.0,0.0,0.0,0.0,1.0,0.0,0.0,0.0,1.0
1480336311348573743,652,1480336311343882069,,6.8489985466,2.86053442955,19.4599876404,0.00116999994498,1.0,0.0,0.0,0.0,1.0,0.0,0.0,0.0,1.0,-0.12195122242,2.56097555161,-0.670731723309,1.0,0.0,0.0,0.0,1.0,0.0,0.0,0.0,1.0,-0.220266552734,0.526724328702,10.1609918457,1.0,0.0,0.0,0.0,1.0,0.0,0.0,0.0,1.0
1480336311368175117,653,1480336311364807545,,6.84425640106,2.85961866379,19.4439868927,0.00119700003415,1.0,0.0,0.0,0.0,1.0,0.0,0.0,0.0,1.0,-0.243902444839,2.74390244484,-0.548780500889,1.0,0.0,0.0,0.0,1.0,0.0,0.0,0.0,1.0,-0.239420166016,0.474051928711,10.180145459,1.0,0.0,0.0,0.0,1.0,0.0,0.0,0.0,1.0
1480336311389434756,654,1480336311386045049,,6.84198236465,2.86194562912,19.4276351929,0.00133100000676,1.0,0.0,0.0,0.0,1.0,0.0,0.0,0.0,1.0,-0.12195122242,2.19512200356,-0.548780500889,1.0,0.0,0.0,0.0,1.0,0.0,0.0,0.0,1.0,-0.287304199219,0.593762048251,10.1705686523,1.0,0.0,0.0,0.0,1.0,0.0,0.0,0.0,1.0
1480336311410256066,655,1480336311406955681,,6.83799266815,2.86114168167,19.4150524139,0.00126100005582,1.0,0.0,0.0,0.0,1.0,0.0,0.0,0.0,1.0,0.0609756112099,2.13414645195,-0.426829278469,1.0,0.0,0.0,0.0,1.0,0.0,0.0,0.0,1.0,-0.225054956055,0.536301208408,10.2423947021,1.0,0.0,0.0,0.0,1.0,0.0,0.0,0.0,1.0
1480336311431512580,656,1480336311429106093,,6.84021377563,2.86178469658,19.403963089,0.00147500005551,1.0,0.0,0.0,0.0,1.0,0.0,0.0,0.0,1.0,0.0609756112099,2.07317066193,-0.0609756112099,1.0,0.0,0.0,0.0,1.0,0.0,0.0,0.0,1.0,-0.325611425781,0.502782348633,10.1083194092,1.0,0.0,0.0,0.0,1.0,0.0,0.0,0.0,1.0
1480336311452571232,657,1480336311450112297,,6.82974338531,2.86240744591,19.3942146301,0.00110500003211,1.0,0.0,0.0,0.0,1.0,0.0,0.0,0.0,1.0,0.0,1.70731711388,0.12195122242,1.0,0.0,0.0,0.0,1.0,0.0,0.0,0.0,1.0,-0.31124621582,0.517147558594,9.99818613281,1.0,0.0,0.0,0.0,1.0,0.0,0.0,0.0,1.0
1480336311473412803,658,1480336311470480799,,6.82406044006,2.86330294609,19.387134552,0.0011190000223,1.0,0.0,0.0,0.0,1.0,0.0,0.0,0.0,1.0,0.0609756112099,1.95121955872,-0.0609756112099,1.0,0.0,0.0,0.0,1.0,0.0,0.0,0.0,1.0,-0.3064578125,0.526724328702,10.2040874756,1.0,0.0,0.0,0.0,1.0,0.0,0.0,0.0,1.0
1480336311493964115,659,1480336311491209506,,6.81318807602,2.86371970177,19.3793029785,0.00111800001469,1.0,0.0,0.0,0.0,1.0,0.0,0.0,0.0,1.0,0.0,2.25609779358,0.0,1.0,0.0,0.0,0.0,1.0,0.0,0.0,0.0,1.0,-0.15801730957,0.574608398438,10.1514150391,1.0,0.0,0.0,0.0,1.0,0.0,0.0,0.0,1.0
1480336311514906622,660,1480336311512159461,,6.81251478195,2.86332464218,19.3690872192,0.00103899999522,1.0,0.0,0.0,0.0,1.0,0.0,0.0,0.0,1.0,0.304878056049,2.37804889679,-0.426829278469,1.0,0.0,0.0,0.0,1.0,0.0,0.0,0.0,1.0,-0.0239420166016,0.531512805087,10.1992990723,1.0,0.0,0.0,0.0,1.0,0.0,0.0,0.0,1.0
1480336311535460331,661,1480336311533055198,,6.81391954422,2.86024546623,19.3569412231,0.00108399998862,1.0,0.0,0.0,0.0,1.0,0.0,0.0,0.0,1.0,-0.426829278469,2.74390244484,-0.487804889679,1.0,0.0,0.0,0.0,1.0,0.0,0.0,0.0,1.0,0.00478840332031,0.517147558594,10.2328178955,1.0,0.0,0.0,0.0,1.0,0.0,0.0,0.0,1.0
1480336311560967742,662,1480336311554774937,,6.81716489792,2.85988044739,19.3431739807,0.00110200000927,1.0,0.0,0.0,0.0,1.0,0.0,0.0,0.0,1.0,-0.12195122242,2.98780488968,-0.18292683363,1.0,0.0,0.0,0.0,1.0,0.0,0.0,0.0,1.0,-0.272938989258,0.703895288086,10.2950671387,1.0,0.0,0.0,0.0,1.0,0.0,0.0,0.0,1.0
1480336311581025361,663,1480336311574847713,,6.82949066162,2.86027431488,19.331987381,0.000982000026852,1.0,0.0,0.0,0.0,1.0,0.0,0.0,0.0,1.0,-0.12195122242,3.17073178291,-0.548780500889,1.0,0.0,0.0,0.0,1.0,0.0,0.0,0.0,1.0,-0.277727392578,0.689530078125,10.2567599121,1.0,0.0,0.0,0.0,1.0,0.0,0.0,0.0,1.0
1480336311603663633,664,1480336311596032769,,6.84578609467,2.8624355793,19.322303772,0.00105099997018,1.0,0.0,0.0,0.0,1.0,0.0,0.0,0.0,1.0,-0.12195122242,2.68292689323,-0.18292683363,1.0,0.0,0.0,0.0,1.0,0.0,0.0,0.0,1.0,-0.277727392578,0.574608398438,10.0029745361,1.0,0.0,0.0,0.0,1.0,0.0,0.0,0.0,1.0
1480336311623260007,665,1480336311617084702,,6.85249853134,2.86091971397,19.3088417053,0.00101400003769,1.0,0.0,0.0,0.0,1.0,0.0,0.0,0.0,1.0,0.12195122242,2.25609779358,-0.365853667259,1.0,0.0,0.0,0.0,1.0,0.0,0.0,0.0,1.0,-0.248996972656,0.588973571866,10.165780249,1.0,0.0,0.0,0.0,1.0,0.0,0.0,0.0,1.0
1480336311642101962,666,1480336311637209457,,6.84996509552,2.8611934185,19.30052948,0.00102900003549,1.0,0.0,0.0,0.0,1.0,0.0,0.0,0.0,1.0,-0.304878056049,2.25609779358,-0.304878056049,1.0,0.0,0.0,0.0,1.0,0.0,0.0,0.0,1.0,-0.239420166016,0.474051928711,10.2232410889,1.0,0.0,0.0,0.0,1.0,0.0,0.0,0.0,1.0
1480336311661162455,667,1480336311658612636,,6.84478759766,2.8642308712,19.2930469513,0.00118799996562,1.0,0.0,0.0,0.0,1.0,0.0,0.0,0.0,1.0,0.12195122242,2.25609779358,-0.304878056049,1.0,0.0,0.0,0.0,1.0,0.0,0.0,0.0,1.0,-0.148440512063,0.531512805087,10.4243540283,1.0,0.0,0.0,0.0,1.0,0.0,0.0,0.0,1.0
1480336311683173442,668,1480336311679301343,,6.84007453918,2.86347675323,19.2845783234,0.00109399994835,1.0,0.0,0.0,0.0,1.0,0.0,0.0,0.0,1.0,-0.0609756112099,2.25609779358,-0.304878056049,1.0,0.0,0.0,0.0,1.0,0.0,0.0,0.0,1.0,-0.272938989258,0.488417138672,10.2232410889,1.0,0.0,0.0,0.0,1.0,0.0,0.0,0.0,1.0
1480336311703782410,669,1480336311700611451,,6.82943677902,2.85890626907,19.2729644775,0.00131099997088,1.0,0.0,0.0,0.0,1.0,0.0,0.0,0.0,1.0,-0.12195122242,2.07317066193,-0.0609756112099,1.0,0.0,0.0,0.0,1.0,0.0,0.0,0.0,1.0,-0.205901342773,0.550666381836,10.299855542,1.0,0.0,0.0,0.0,1.0,0.0,0.0,0.0,1.0
1480336311728677744,670,1480336311721367970,,6.82396459579,2.85892891884,19.2639465332,0.00110899994615,1.0,0.0,0.0,0.0,1.0,0.0,0.0,0.0,1.0,-0.12195122242,2.43902444839,-0.12195122242,1.0,0.0,0.0,0.0,1.0,0.0,0.0,0.0,1.0,-0.172382519531,0.560243188477,10.2519715088,1.0,0.0,0.0,0.0,1.0,0.0,0.0,0.0,1.0
1480336311745324667,671,1480336311742900836,,6.81986570358,2.85922312737,19.2557544708,0.00121100002434,1.0,0.0,0.0,0.0,1.0,0.0,0.0,0.0,1.0,-0.0609756112099,2.74390244484,-0.243902444839,1.0,0.0,0.0,0.0,1.0,0.0,0.0,0.0,1.0,-0.181959326172,0.507570751953,10.1897222656,1.0,0.0,0.0,0.0,1.0,0.0,0.0,0.0,1.0
1480336311765663013,672,1480336311763290484,,6.82324123383,2.85877799988,19.2436351776,0.00121200003196,1.0,0.0,0.0,0.0,1.0,0.0,0.0,0.0,1.0,-0.18292683363,2.68292689323,-0.304878056049,1.0,0.0,0.0,0.0,1.0,0.0,0.0,0.0,1.0,-0.234631762695,0.588973571866,10.1945106689,1.0,0.0,0.0,0.0,1.0,0.0,0.0,0.0,1.0
1480336311788089985,673,1480336311785494697,,6.82862710953,2.85613083839,19.2277355194,0.00120199995581,1.0,0.0,0.0,0.0,1.0,0.0,0.0,0.0,1.0,-0.12195122242,2.86585378647,-0.792682945728,1.0,0.0,0.0,0.0,1.0,0.0,0.0,0.0,1.0,-0.129286889648,0.60812722168,10.2376062988,1.0,0.0,0.0,0.0,1.0,0.0,0.0,0.0,1.0
1480336311810558831,674,1480336311805776221,,6.83661794662,2.85407114029,19.2123184204,0.00181299995165,1.0,0.0,0.0,0.0,1.0,0.0,0.0,0.0,1.0,-0.365853667259,2.5,-0.548780500889,1.0,0.0,0.0,0.0,1.0,0.0,0.0,0.0,1.0,-0.210689746094,0.574608398438,10.2471831055,1.0,0.0,0.0,0.0,1.0,0.0,0.0,0.0,1.0
1480336311828962508,675,1480336311826916382,,6.84192180634,2.85102725029,19.199426651,0.00127400003839,1.0,0.0,0.0,0.0,1.0,0.0,0.0,0.0,1.0,-0.18292683363,2.80487799644,-0.304878056049,1.0,0.0,0.0,0.0,1.0,0.0,0.0,0.0,1.0,-0.215478149414,0.521935925381,10.1945106689,1.0,0.0,0.0,0.0,1.0,0.0,0.0,0.0,1.0
1480336311850847454,676,1480336311847877795,,6.84487867355,2.8537709713,19.1898574829,0.00108499999624,1.0,0.0,0.0,0.0,1.0,0.0,0.0,0.0,1.0,-0.243902444839,2.62195134163,-0.18292683363,1.0,0.0,0.0,0.0,1.0,0.0,0.0,0.0,1.0,-0.263362164351,0.512359155273,10.2088758789,1.0,0.0,0.0,0.0,1.0,0.0,0.0,0.0,1.0
1480336311871133874,677,1480336311869071081,,6.84648132324,2.85682964325,19.1785945892,0.00111800001469,1.0,0.0,0.0,0.0,1.0,0.0,0.0,0.0,1.0,-0.243902444839,2.43902444839,-0.243902444839,1.0,0.0,0.0,0.0,1.0,0.0,0.0,0.0,1.0,-0.225054956055,0.593762048251,10.2376062988,1.0,0.0,0.0,0.0,1.0,0.0,0.0,0.0,1.0
1480336311891705915,678,1480336311889296928,,6.84940814972,2.85803198814,19.168970108,0.00106299994513,1.0,0.0,0.0,0.0,1.0,0.0,0.0,0.0,1.0,-0.0609756112099,2.5,-0.12195122242,1.0,0.0,0.0,0.0,1.0,0.0,0.0,0.0,1.0,-0.258573779297,0.521935925381,10.1562034424,1.0,0.0,0.0,0.0,1.0,0.0,0.0,0.0,1.0
1480336311912748057,679,1480336311910520110,,6.8501124382,2.85602116585,19.1595516205,0.000998000032268,1.0,0.0,0.0,0.0,1.0,0.0,0.0,0.0,1.0,-0.18292683363,2.37804889679,-0.365853667259,1.0,0.0,0.0,0.0,1.0,0.0,0.0,0.0,1.0,-0.239420166016,0.502782348633,10.2950671387,1.0,0.0,0.0,0.0,1.0,0.0,0.0,0.0,1.0
1480336311934415036,680,1480336311931699385,,6.84849071503,2.85625863075,19.1524982452,0.00104799994733,1.0,0.0,0.0,0.0,1.0,0.0,0.0,0.0,1.0,-0.243902444839,2.62195134163,-0.0609756112099,1.0,0.0,0.0,0.0,1.0,0.0,0.0,0.0,1.0,-0.0957680664062,0.598550451572,10.2040874756,1.0,0.0,0.0,0.0,1.0,0.0,0.0,0.0,1.0
1480336311954563384,681,1480336311952468352,,6.84802770615,2.85721802711,19.1442089081,0.000991999986582,1.0,0.0,0.0,0.0,1.0,0.0,0.0,0.0,1.0,-0.12195122242,2.62195134163,-0.548780500889,1.0,0.0,0.0,0.0,1.0,0.0,0.0,0.0,1.0,-0.181959326172,0.584185168546,10.1609918457,1.0,0.0,0.0,0.0,1.0,0.0,0.0,0.0,1.0
1480336311975992032,682,1480336311973886063,,6.84416723251,2.86016798019,19.1325397491,0.00112599995919,1.0,0.0,0.0,0.0,1.0,0.0,0.0,0.0,1.0,-0.18292683363,2.80487799644,-0.487804889679,1.0,0.0,0.0,0.0,1.0,0.0,0.0,0.0,1.0,-0.129286889648,0.560243188477,10.2232410889,1.0,0.0,0.0,0.0,1.0,0.0,0.0,0.0,1.0
1480336311996306055,683,1480336311994473729,,6.85327625275,2.85834622383,19.1194095612,0.000980000011623,1.0,0.0,0.0,0.0,1.0,0.0,0.0,0.0,1.0,0.0,3.35365867615,-0.609756112099,1.0,0.0,0.0,0.0,1.0,0.0,0.0,0.0,1.0,-0.15322890625,0.584185168546,10.1083194092,1.0,0.0,0.0,0.0,1.0,0.0,0.0,0.0,1.0
1480336312020082546,684,1480336312015070198,,6.86942386627,2.85409379005,19.1055831909,0.000975999981165,1.0,0.0,0.0,0.0,1.0,0.0,0.0,0.0,1.0,-0.243902444839,3.71951246262,-0.609756112099,1.0,0.0,0.0,0.0,1.0,0.0,0.0,0.0,1.0,-0.215478149414,0.550666381836,10.1274730225,1.0,0.0,0.0,0.0,1.0,0.0,0.0,0.0,1.0
1480336312048575709,685,1480336312036922540,,6.8955821991,2.85084199905,19.0928287506,0.00129399995785,1.0,0.0,0.0,0.0,1.0,0.0,0.0,0.0,1.0,0.0609756112099,3.7804877758,-0.731707334518,1.0,0.0,0.0,0.0,1.0,0.0,0.0,0.0,1.0,-0.15322890625,0.478840332031,10.1945106689,1.0,0.0,0.0,0.0,1.0,0.0,0.0,0.0,1.0
1480336312069659985,686,1480336312063258120,,6.92432594299,2.85244846344,19.0768451691,0.000972000008915,1.0,0.0,0.0,0.0,1.0,0.0,0.0,0.0,1.0,-0.0609756112099,3.29268312454,-0.365853667259,1.0,0.0,0.0,0.0,1.0,0.0,0.0,0.0,1.0,-0.148440512063,0.517147558594,10.0652237793,1.0,0.0,0.0,0.0,1.0,0.0,0.0,0.0,1.0
1480336312088779906,687,1480336312085070358,,6.96539878845,2.8529381752,19.0471744537,0.00718000018969,1.0,0.0,0.0,0.0,1.0,0.0,0.0,0.0,1.0,-0.12195122242,2.86585378647,-1.2195122242,1.0,0.0,0.0,0.0,1.0,0.0,0.0,0.0,1.0,-0.450109912109,0.483628735352,10.2088758789,1.0,0.0,0.0,0.0,1.0,0.0,0.0,0.0,1.0
1480336312109565227,688,1480336312106062969,,6.97585010529,2.84801316261,19.0268936157,0.00544800003991,1.0,0.0,0.0,0.0,1.0,0.0,0.0,0.0,1.0,-0.365853667259,2.68292689323,-0.731707334518,1.0,0.0,0.0,0.0,1.0,0.0,0.0,0.0,1.0,-0.239420166016,0.493205541992,10.2280294922,1.0,0.0,0.0,0.0,1.0,0.0,0.0,0.0,1.0
1480336312130851793,689,1480336312127136985,,6.99226808548,2.84476208687,19.015083313,0.00111399998423,1.0,0.0,0.0,0.0,1.0,0.0,0.0,0.0,1.0,-0.12195122242,2.68292689323,-0.18292683363,1.0,0.0,0.0,0.0,1.0,0.0,0.0,0.0,1.0,-0.277727392578,0.474051928711,10.1466266357,1.0,0.0,0.0,0.0,1.0,0.0,0.0,0.0,1.0
1480336312152879810,690,1480336312147956472,,7.0001077652,2.84583115578,19.0092411041,0.00112399994396,1.0,0.0,0.0,0.0,1.0,0.0,0.0,0.0,1.0,-0.0609756112099,2.43902444839,-0.12195122242,1.0,0.0,0.0,0.0,1.0,0.0,0.0,0.0,1.0,-0.225054956055,0.517147558594,10.1226846191,1.0,0.0,0.0,0.0,1.0,0.0,0.0,0.0,1.0
1480336312172655089,691,1480336312168137372,,6.99966716766,2.84756183624,19.0040416718,0.00115499994718,1.0,0.0,0.0,0.0,1.0,0.0,0.0,0.0,1.0,-0.18292683363,2.56097555161,-0.18292683363,1.0,0.0,0.0,0.0,1.0,0.0,0.0,0.0,1.0,-0.282515795898,0.627280834961,10.2423947021,1.0,0.0,0.0,0.0,1.0,0.0,0.0,0.0,1.0
1480336312192193390,692,1480336312188836079,,6.99939012527,2.8460059166,18.99492836,0.00116500002332,1.0,0.0,0.0,0.0,1.0,0.0,0.0,0.0,1.0,-0.12195122242,2.31707310677,-0.243902444839,1.0,0.0,0.0,0.0,1.0,0.0,0.0,0.0,1.0,-0.292092584273,0.531512805087,10.2423947021,1.0,0.0,0.0,0.0,1.0,0.0,0.0,0.0,1.0
1480336312214202137,693,1480336312210010355,,6.99082946777,2.848092556,18.9866752625,0.000995000009425,1.0,0.0,0.0,0.0,1.0,0.0,0.0,0.0,1.0,0.0,2.25609779358,-0.426829278469,1.0,0.0,0.0,0.0,1.0,0.0,0.0,0.0,1.0,-0.220266552734,0.584185168546,10.1226846191,1.0,0.0,0.0,0.0,1.0,0.0,0.0,0.0,1.0
1480336312233843302,694,1480336312231003851,,6.98728752136,2.84626793861,18.9745998383,0.000980000011623,1.0,0.0,0.0,0.0,1.0,0.0,0.0,0.0,1.0,-0.0609756112099,2.25609779358,-0.548780500889,1.0,0.0,0.0,0.0,1.0,0.0,0.0,0.0,1.0,-0.287304199219,0.497993945312,10.1897222656,1.0,0.0,0.0,0.0,1.0,0.0,0.0,0.0,1.0
1480336312253682435,695,1480336312252086148,,6.98221302032,2.84756827354,18.9593524933,0.00101100001484,1.0,0.0,0.0,0.0,1.0,0.0,0.0,0.0,1.0,-0.12195122242,2.19512200356,-0.548780500889,1.0,0.0,0.0,0.0,1.0,0.0,0.0,0.0,1.0,-0.248996972656,0.517147558594,10.1609918457,1.0,0.0,0.0,0.0,1.0,0.0,0.0,0.0,1.0
1480336312274099478,696,1480336312272605742,,6.98323154449,2.84831047058,18.9491500854,0.000972000008915,1.0,0.0,0.0,0.0,1.0,0.0,0.0,0.0,1.0,-0.12195122242,2.5,-0.18292683363,1.0,0.0,0.0,0.0,1.0,0.0,0.0,0.0,1.0,-0.220266552734,0.603338854892,10.180145459,1.0,0.0,0.0,0.0,1.0,0.0,0.0,0.0,1.0
1480336312295692968,697,1480336312293268512,,6.98500347137,2.84790277481,18.9419498444,0.000969999993686,1.0,0.0,0.0,0.0,1.0,0.0,0.0,0.0,1.0,-0.365853667259,2.80487799644,-0.304878056049,1.0,0.0,0.0,0.0,1.0,0.0,0.0,0.0,1.0,-0.191536132812,0.550666381836,10.285490332,1.0,0.0,0.0,0.0,1.0,0.0,0.0,0.0,1.0
1480336312316859431,698,1480336312314360132,,6.984852314,2.84997081757,18.9316940308,0.001111999969,1.0,0.0,0.0,0.0,1.0,0.0,0.0,0.0,1.0,0.0609756112099,2.74390244484,-0.365853667259,1.0,0.0,0.0,0.0,1.0,0.0,0.0,0.0,1.0,-0.234631762695,0.593762048251,10.2711251221,1.0,0.0,0.0,0.0,1.0,0.0,0.0,0.0,1.0
1480336312342831108,699,1480336312334778113,,6.99047899246,2.85248708725,18.9157981873,0.000969999993686,1.0,0.0,0.0,0.0,1.0,0.0,0.0,0.0,1.0,-0.12195122242,2.80487799644,-0.548780500889,1.0,0.0,0.0,0.0,1.0,0.0,0.0,0.0,1.0,-0.253785375977,0.565031591797,10.1226846191,1.0,0.0,0.0,0.0,1.0,0.0,0.0,0.0,1.0
1480336312364119706,700,1480336312356122335,,7.00531387329,2.85245370865,18.8989925385,0.000985000049695,1.0,0.0,0.0,0.0,1.0,0.0,0.0,0.0,1.0,0.0609756112099,2.56097555161,-0.487804889679,1.0,0.0,0.0,0.0,1.0,0.0,0.0,0.0,1.0,-0.339976635742,0.569819995117,10.1562034424,1.0,0.0,0.0,0.0,1.0,0.0,0.0,0.0,1.0
1480336312381552924,701,1480336312377646659,,7.01037168503,2.85571408272,18.885471344,0.00114299997222,1.0,0.0,0.0,0.0,1.0,0.0,0.0,0.0,1.0,0.0,2.31707310677,-0.12195122242,1.0,0.0,0.0,0.0,1.0,0.0,0.0,0.0,1.0,-0.330399829102,0.531512805087,10.1083194092,1.0,0.0,0.0,0.0,1.0,0.0,0.0,0.0,1.0
1480336312413625271,702,1480336312399090724,,7.01365852356,2.85866785049,18.8804836273,0.00150500005111,1.0,0.0,0.0,0.0,1.0,0.0,0.0,0.0,1.0,-0.0609756112099,2.13414645195,-0.12195122242,1.0,0.0,0.0,0.0,1.0,0.0,0.0,0.0,1.0,-0.349553442383,0.502782348633,10.3094323486,1.0,0.0,0.0,0.0,1.0,0.0,0.0,0.0,1.0
1480336312428016175,703,1480336312420299478,,7.00423240662,2.86005973816,18.8756370544,0.00124699994922,1.0,0.0,0.0,0.0,1.0,0.0,0.0,0.0,1.0,0.12195122242,1.8292683363,-0.0609756112099,1.0,0.0,0.0,0.0,1.0,0.0,0.0,0.0,1.0,-0.215478149414,0.521935925381,10.0508585693,1.0,0.0,0.0,0.0,1.0,0.0,0.0,0.0,1.0
1480336312448066503,704,1480336312441789896,,6.98790168762,2.85737919807,18.8658638,0.00127400003839,1.0,0.0,0.0,0.0,1.0,0.0,0.0,0.0,1.0,0.0,2.01219511032,-0.304878056049,1.0,0.0,0.0,0.0,1.0,0.0,0.0,0.0,1.0,-0.248996972656,0.507570751953,10.3956236084,1.0,0.0,0.0,0.0,1.0,0.0,0.0,0.0,1.0
1480336312467931520,705,1480336312462966047,,6.97615814209,2.85676622391,18.8560447693,0.00122500001453,1.0,0.0,0.0,0.0,1.0,0.0,0.0,0.0,1.0,-0.304878056049,2.19512200356,-0.12195122242,1.0,0.0,0.0,0.0,1.0,0.0,0.0,0.0,1.0,-0.172382519531,0.488417138672,10.1418382324,1.0,0.0,0.0,0.0,1.0,0.0,0.0,0.0,1.0
1480336312488245127,706,1480336312484146260,,6.96521377563,2.85474133492,18.8430423737,0.0012969999807,1.0,0.0,0.0,0.0,1.0,0.0,0.0,0.0,1.0,0.0,2.37804889679,-0.304878056049,1.0,0.0,0.0,0.0,1.0,0.0,0.0,0.0,1.0,-0.205901342773,0.526724328702,10.1131078125,1.0,0.0,0.0,0.0,1.0,0.0,0.0,0.0,1.0
1480336312508164571,707,1480336312505443086,,6.96058511734,2.85429883003,18.8316421509,0.00140900001861,1.0,0.0,0.0,0.0,1.0,0.0,0.0,0.0,1.0,-0.0609756112099,2.43902444839,-0.365853667259,1.0,0.0,0.0,0.0,1.0,0.0,0.0,0.0,1.0,-0.210689746094,0.517147558594,10.2950671387,1.0,0.0,0.0,0.0,1.0,0.0,0.0,0.0,1.0
1480336312528015265,708,1480336312526003982,,6.96002197266,2.85255360603,18.8216171265,0.00133899995126,1.0,0.0,0.0,0.0,1.0,0.0,0.0,0.0,1.0,-0.243902444839,2.68292689323,-0.243902444839,1.0,0.0,0.0,0.0,1.0,0.0,0.0,0.0,1.0,-0.167594116211,0.536301208408,10.1514150391,1.0,0.0,0.0,0.0,1.0,0.0,0.0,0.0,1.0
1480336312563458466,709,1480336312547928615,,6.96424388885,2.85377550125,18.8130569458,0.00240399991162,1.0,0.0,0.0,0.0,1.0,0.0,0.0,0.0,1.0,0.0,2.80487799644,-0.18292683363,1.0,0.0,0.0,0.0,1.0,0.0,0.0,0.0,1.0,-0.196324536133,0.507570751953,10.1705686523,1.0,0.0,0.0,0.0,1.0,0.0,0.0,0.0,1.0
1480336312571351776,710,1480336312568840602,,6.96827363968,2.85559487343,18.8023509979,0.00143900001422,1.0,0.0,0.0,0.0,1.0,0.0,0.0,0.0,1.0,0.0609756112099,2.5,-0.304878056049,1.0,0.0,0.0,0.0,1.0,0.0,0.0,0.0,1.0,-0.253785375977,0.541089611728,10.1705686523,1.0,0.0,0.0,0.0,1.0,0.0,0.0,0.0,1.0
1480336312593434740,711,1480336312589935399,,6.97013187408,2.85535883904,18.7889308929,0.00119400001131,1.0,0.0,0.0,0.0,1.0,0.0,0.0,0.0,1.0,-0.243902444839,2.13414645195,-0.18292683363,1.0,0.0,0.0,0.0,1.0,0.0,0.0,0.0,1.0,-0.244208569336,0.497993945312,10.1083194092,1.0,0.0,0.0,0.0,1.0,0.0,0.0,0.0,1.0
1480336312614606099,712,1480336312610763428,,6.97388029099,2.85900568962,18.7778167725,0.00120499997865,1.0,0.0,0.0,0.0,1.0,0.0,0.0,0.0,1.0,-0.12195122242,2.31707310677,-0.304878056049,1.0,0.0,0.0,0.0,1.0,0.0,0.0,0.0,1.0,-0.253785375977,0.560243188477,10.4004120117,1.0,0.0,0.0,0.0,1.0,0.0,0.0,0.0,1.0
1480336312633969871,713,1480336312631477604,,6.96949100494,2.85708808899,18.7679538727,0.00103599997237,1.0,0.0,0.0,0.0,1.0,0.0,0.0,0.0,1.0,0.243902444839,2.25609779358,-0.18292683363,1.0,0.0,0.0,0.0,1.0,0.0,0.0,0.0,1.0,-0.186747729492,0.584185168546,10.1322614258,1.0,0.0,0.0,0.0,1.0,0.0,0.0,0.0,1.0
1480336312655286125,714,1480336312652343184,,6.95955467224,2.8576965332,18.7585258484,0.00100899999961,1.0,0.0,0.0,0.0,1.0,0.0,0.0,0.0,1.0,-0.12195122242,2.31707310677,-0.12195122242,1.0,0.0,0.0,0.0,1.0,0.0,0.0,0.0,1.0,-0.162805712891,0.502782348633,10.1418382324,1.0,0.0,0.0,0.0,1.0,0.0,0.0,0.0,1.0
1480336312675382702,715,1480336312672871528,,6.95251226425,2.85888671875,18.7480716705,0.00240000011399,1.0,0.0,0.0,0.0,1.0,0.0,0.0,0.0,1.0,0.0,2.43902444839,-0.304878056049,1.0,0.0,0.0,0.0,1.0,0.0,0.0,0.0,1.0,-0.167594116211,0.588973571866,10.2184526855,1.0,0.0,0.0,0.0,1.0,0.0,0.0,0.0,1.0
1480336312696780882,716,1480336312693896639,,6.95200490952,2.8587372303,18.7360363007,0.00101000000723,1.0,0.0,0.0,0.0,1.0,0.0,0.0,0.0,1.0,0.0,2.56097555161,-0.365853667259,1.0,0.0,0.0,0.0,1.0,0.0,0.0,0.0,1.0,-0.201112939453,0.555454785156,10.1226846191,1.0,0.0,0.0,0.0,1.0,0.0,0.0,0.0,1.0
1480336312722669800,717,1480336312715367526,,6.95821857452,2.86015582085,18.7236499786,0.00104600004852,1.0,0.0,0.0,0.0,1.0,0.0,0.0,0.0,1.0,-0.18292683363,2.80487799644,-0.243902444839,1.0,0.0,0.0,0.0,1.0,0.0,0.0,0.0,1.0,-0.320823022461,0.584185168546,10.2423947021,1.0,0.0,0.0,0.0,1.0,0.0,0.0,0.0,1.0
1480336312741946541,718,1480336312736796643,,6.95570516586,2.86088895798,18.7146072388,0.00100499996915,1.0,0.0,0.0,0.0,1.0,0.0,0.0,0.0,1.0,0.0609756112099,2.31707310677,0.0609756112099,1.0,0.0,0.0,0.0,1.0,0.0,0.0,0.0,1.0,-0.186747729492,0.569819995117,10.180145459,1.0,0.0,0.0,0.0,1.0,0.0,0.0,0.0,1.0
1480336312762946443,719,1480336312758106021,,6.95284795761,2.8635456562,18.706363678,0.00106100004632,1.0,0.0,0.0,0.0,1.0,0.0,0.0,0.0,1.0,-0.304878056049,2.31707310677,-0.487804889679,1.0,0.0,0.0,0.0,1.0,0.0,0.0,0.0,1.0,-0.172382519531,0.517147558594,10.1322614258,1.0,0.0,0.0,0.0,1.0,0.0,0.0,0.0,1.0
1480336312782301205,720,1480336312779373942,,6.94861793518,2.86463117599,18.6947669983,0.00114399997983,1.0,0.0,0.0,0.0,1.0,0.0,0.0,0.0,1.0,-0.12195122242,2.01219511032,-0.487804889679,1.0,0.0,0.0,0.0,1.0,0.0,0.0,0.0,1.0,-0.0957680664062,0.598550451572,10.1897222656,1.0,0.0,0.0,0.0,1.0,0.0,0.0,0.0,1.0
1480336312808614338,721,1480336312801053629,,6.94340276718,2.8609149456,18.6815166473,0.0012529999949,1.0,0.0,0.0,0.0,1.0,0.0,0.0,0.0,1.0,-0.304878056049,2.43902444839,-0.12195122242,1.0,0.0,0.0,0.0,1.0,0.0,0.0,0.0,1.0,-0.201112939453,0.526724328702,10.2807019287,1.0,0.0,0.0,0.0,1.0,0.0,0.0,0.0,1.0
1480336312829771530,722,1480336312822426184,,6.94065093994,2.86238360405,18.6680755615,0.00121400004718,1.0,0.0,0.0,0.0,1.0,0.0,0.0,0.0,1.0,0.304878056049,2.68292689323,-0.304878056049,1.0,0.0,0.0,0.0,1.0,0.0,0.0,0.0,1.0,-0.129286889648,0.478840332031,10.2376062988,1.0,0.0,0.0,0.0,1.0,0.0,0.0,0.0,1.0
1480336312849923576,723,1480336312843987904,,6.94477081299,2.86265015602,18.6541843414,0.00124799995683,1.0,0.0,0.0,0.0,1.0,0.0,0.0,0.0,1.0,-0.304878056049,2.43902444839,-0.304878056049,1.0,0.0,0.0,0.0,1.0,0.0,0.0,0.0,1.0,-0.205901342773,0.536301208408,10.1609918457,1.0,0.0,0.0,0.0,1.0,0.0,0.0,0.0,1.0
1480336312867216482,724,1480336312864719788,,6.9498758316,2.8629784584,18.6407718658,0.00136899994686,1.0,0.0,0.0,0.0,1.0,0.0,0.0,0.0,1.0,-0.304878056049,2.37804889679,-0.304878056049,1.0,0.0,0.0,0.0,1.0,0.0,0.0,0.0,1.0,-0.31124621582,0.598550451572,10.2328178955,1.0,0.0,0.0,0.0,1.0,0.0,0.0,0.0,1.0
1480336312887984147,725,1480336312885090477,,6.9523100853,2.86124968529,18.6288719177,0.001200000057,1.0,0.0,0.0,0.0,1.0,0.0,0.0,0.0,1.0,-0.0609756112099,2.13414645195,-0.18292683363,1.0,0.0,0.0,0.0,1.0,0.0,0.0,0.0,1.0,-0.253785375977,0.493205541992,10.2423947021,1.0,0.0,0.0,0.0,1.0,0.0,0.0,0.0,1.0
1480336312909453628,726,1480336312906458553,,6.95012664795,2.86372566223,18.6208553314,0.0012309999438,1.0,0.0,0.0,0.0,1.0,0.0,0.0,0.0,1.0,0.0609756112099,1.64634156227,-0.12195122242,1.0,0.0,0.0,0.0,1.0,0.0,0.0,0.0,1.0,-0.344765039063,0.521935925381,10.2471831055,1.0,0.0,0.0,0.0,1.0,0.0,0.0,0.0,1.0
1480336312931639352,727,1480336312928102511,,6.93846130371,2.86346292496,18.6135616302,0.0011269999668,1.0,0.0,0.0,0.0,1.0,0.0,0.0,0.0,1.0,-0.243902444839,1.09756100178,-0.12195122242,1.0,0.0,0.0,0.0,1.0,0.0,0.0,0.0,1.0,-0.287304199219,0.483628735352,10.0795889893,1.0,0.0,0.0,0.0,1.0,0.0,0.0,0.0,1.0
1480336312952694202,728,1480336312950268184,,6.91148042679,2.86892914772,18.6111564636,0.00164100003894,1.0,0.0,0.0,0.0,1.0,0.0,0.0,0.0,1.0,0.18292683363,1.15853655338,0.18292683363,1.0,0.0,0.0,0.0,1.0,0.0,0.0,0.0,1.0,-0.215478149414,0.555454785156,10.180145459,1.0,0.0,0.0,0.0,1.0,0.0,0.0,0.0,1.0
1480336312973271765,729,1480336312970864184,,6.87857723236,2.86787486076,18.6095314026,0.00134700001217,1.0,0.0,0.0,0.0,1.0,0.0,0.0,0.0,1.0,-0.0609756112099,1.2195122242,0.18292683363,1.0,0.0,0.0,0.0,1.0,0.0,0.0,0.0,1.0,-0.076614453125,0.541089611728,10.2376062988,1.0,0.0,0.0,0.0,1.0,0.0,0.0,0.0,1.0
1480336313002693253,730,1480336312992064032,,6.84520769119,2.86860704422,18.6083927155,0.00108700001147,1.0,0.0,0.0,0.0,1.0,0.0,0.0,0.0,1.0,0.12195122242,1.52439022064,0.304878056049,1.0,0.0,0.0,0.0,1.0,0.0,0.0,0.0,1.0,-0.0861912597656,0.478840332031,10.3429511719,1.0,0.0,0.0,0.0,1.0,0.0,0.0,0.0,1.0
1480336313018411695,731,1480336313013442889,,6.82201719284,2.87051177025,18.6009349823,0.00104100001045,1.0,0.0,0.0,0.0,1.0,0.0,0.0,0.0,1.0,0.0609756112099,2.13414645195,-0.304878056049,1.0,0.0,0.0,0.0,1.0,0.0,0.0,0.0,1.0,-0.0814028564453,0.560243188477,10.2184526855,1.0,0.0,0.0,0.0,1.0,0.0,0.0,0.0,1.0
1480336313044500455,732,1480336313033910765,,6.81240797043,2.87103915215,18.5912265778,0.00115499994718,1.0,0.0,0.0,0.0,1.0,0.0,0.0,0.0,1.0,0.0,2.98780488968,-0.548780500889,1.0,0.0,0.0,0.0,1.0,0.0,0.0,0.0,1.0,-0.100556469727,0.61770402832,10.0508585693,1.0,0.0,0.0,0.0,1.0,0.0,0.0,0.0,1.0
1480336313063383658,733,1480336313055280559,,6.81317710876,2.87173342705,18.5744113922,0.00100699998438,1.0,0.0,0.0,0.0,1.0,0.0,0.0,0.0,1.0,0.0,2.92682933807,-0.853658556938,1.0,0.0,0.0,0.0,1.0,0.0,0.0,0.0,1.0,-0.114921679688,0.526724328702,10.165780249,1.0,0.0,0.0,0.0,1.0,0.0,0.0,0.0,1.0
1480336313081945615,734,1480336313076462387,,6.82934427261,2.87007904053,18.5517349243,0.00106299994513,1.0,0.0,0.0,0.0,1.0,0.0,0.0,0.0,1.0,-0.304878056049,3.35365867615,-0.792682945728,1.0,0.0,0.0,0.0,1.0,0.0,0.0,0.0,1.0,-0.320823022461,0.531512805087,10.1992990723,1.0,0.0,0.0,0.0,1.0,0.0,0.0,0.0,1.0
1480336313104186495,735,1480336313097447029,,6.85274219513,2.86629939079,18.5374927521,0.00101300003007,1.0,0.0,0.0,0.0,1.0,0.0,0.0,0.0,1.0,-0.365853667259,3.17073178291,-0.670731723309,1.0,0.0,0.0,0.0,1.0,0.0,0.0,0.0,1.0,-0.186747729492,0.61770402832,10.2376062988,1.0,0.0,0.0,0.0,1.0,0.0,0.0,0.0,1.0
1480336313128592667,736,1480336313118298599,,6.87358903885,2.87009263039,18.5274200439,0.00138100003824,1.0,0.0,0.0,0.0,1.0,0.0,0.0,0.0,1.0,-0.0609756112099,2.86585378647,-0.670731723309,1.0,0.0,0.0,0.0,1.0,0.0,0.0,0.0,1.0,-0.316034619141,0.536301208408,10.1609918457,1.0,0.0,0.0,0.0,1.0,0.0,0.0,0.0,1.0
1480336313147326185,737,1480336313139576832,,6.88374519348,2.87016105652,18.5170650482,0.00115000002552,1.0,0.0,0.0,0.0,1.0,0.0,0.0,0.0,1.0,-0.18292683363,2.31707310677,-0.304878056049,1.0,0.0,0.0,0.0,1.0,0.0,0.0,0.0,1.0,-0.239420166016,0.569819995117,10.2471831055,1.0,0.0,0.0,0.0,1.0,0.0,0.0,0.0,1.0
1480336313166085171,738,1480336313161087875,,6.88239717484,2.87021636963,18.505115509,0.0012300000526,1.0,0.0,0.0,0.0,1.0,0.0,0.0,0.0,1.0,0.0,2.07317066193,-0.243902444839,1.0,0.0,0.0,0.0,1.0,0.0,0.0,0.0,1.0,-0.229843359375,0.526724328702,10.2519715088,1.0,0.0,0.0,0.0,1.0,0.0,0.0,0.0,1.0
1480336313188571934,739,1480336313182530273,,6.87664937973,2.87090158463,18.4944248199,0.0012009999482,1.0,0.0,0.0,0.0,1.0,0.0,0.0,0.0,1.0,-0.0609756112099,2.37804889679,-0.304878056049,1.0,0.0,0.0,0.0,1.0,0.0,0.0,0.0,1.0,-0.172382519531,0.60812722168,10.1274730225,1.0,0.0,0.0,0.0,1.0,0.0,0.0,0.0,1.0
1480336313208710542,740,1480336313202940598,,6.87228298187,2.86996030807,18.4853935242,0.00136300001759,1.0,0.0,0.0,0.0,1.0,0.0,0.0,0.0,1.0,-0.12195122242,2.07317066193,-0.12195122242,1.0,0.0,0.0,0.0,1.0,0.0,0.0,0.0,1.0,-0.167594116211,0.550666381836,10.1609918457,1.0,0.0,0.0,0.0,1.0,0.0,0.0,0.0,1.0
1480336313228520560,741,1480336313223606389,,6.86944818497,2.87008118629,18.4762954712,0.00122800003737,1.0,0.0,0.0,0.0,1.0,0.0,0.0,0.0,1.0,0.0609756112099,2.13414645195,-0.243902444839,1.0,0.0,0.0,0.0,1.0,0.0,0.0,0.0,1.0,-0.272938989258,0.521935925381,10.180145459,1.0,0.0,0.0,0.0,1.0,0.0,0.0,0.0,1.0
1480336313248927135,742,1480336313244604312,,6.86207199097,2.86789727211,18.4687843323,0.00124899996445,1.0,0.0,0.0,0.0,1.0,0.0,0.0,0.0,1.0,-0.12195122242,1.8902438879,0.0609756112099,1.0,0.0,0.0,0.0,1.0,0.0,0.0,0.0,1.0,-0.31124621582,0.512359155273,10.2615483154,1.0,0.0,0.0,0.0,1.0,0.0,0.0,0.0,1.0
1480336313269869746,743,1480336313265811451,,6.85065174103,2.8718225956,18.4621105194,0.00130600004923,1.0,0.0,0.0,0.0,1.0,0.0,0.0,0.0,1.0,0.0,1.70731711388,-0.304878056049,1.0,0.0,0.0,0.0,1.0,0.0,0.0,0.0,1.0,-0.215478149414,0.574608398438,10.1131078125,1.0,0.0,0.0,0.0,1.0,0.0,0.0,0.0,1.0
1480336313291883180,744,1480336313287101872,,6.82683849335,2.86966705322,18.4537677765,0.00126599997748,1.0,0.0,0.0,0.0,1.0,0.0,0.0,0.0,1.0,0.12195122242,1.8902438879,-0.0609756112099,1.0,0.0,0.0,0.0,1.0,0.0,0.0,0.0,1.0,-0.100556469727,0.512359155273,10.1370498291,1.0,0.0,0.0,0.0,1.0,0.0,0.0,0.0,1.0
1480336313311902050,745,1480336313308306199,,6.81309223175,2.86981916428,18.4426269531,0.00137499999255,1.0,0.0,0.0,0.0,1.0,0.0,0.0,0.0,1.0,0.0,2.43902444839,0.0609756112099,1.0,0.0,0.0,0.0,1.0,0.0,0.0,0.0,1.0,-0.0957680664062,0.497993945312,10.3190091553,1.0,0.0,0.0,0.0,1.0,0.0,0.0,0.0,1.0
1480336313341192966,746,1480336313329652765,,6.81178092957,2.86871552467,18.4312286377,0.00141100003384,1.0,0.0,0.0,0.0,1.0,0.0,0.0,0.0,1.0,0.18292683363,2.80487799644,-0.0609756112099,1.0,0.0,0.0,0.0,1.0,0.0,0.0,0.0,1.0,-0.172382519531,0.507570751953,10.2136642822,1.0,0.0,0.0,0.0,1.0,0.0,0.0,0.0,1.0
1480336313356237717,747,1480336313350492825,,6.82167005539,2.86702394485,18.417881012,0.00103499996476,1.0,0.0,0.0,0.0,1.0,0.0,0.0,0.0,1.0,0.0,2.86585378647,-0.0609756112099,1.0,0.0,0.0,0.0,1.0,0.0,0.0,0.0,1.0,-0.15322890625,0.588973571866,10.1945106689,1.0,0.0,0.0,0.0,1.0,0.0,0.0,0.0,1.0
1480336313381065343,748,1480336313372085377,,6.83545064926,2.86816620827,18.4042625427,0.00107899995055,1.0,0.0,0.0,0.0,1.0,0.0,0.0,0.0,1.0,-0.12195122242,3.10975623131,-0.609756112099,1.0,0.0,0.0,0.0,1.0,0.0,0.0,0.0,1.0,-0.172382519531,0.497993945312,10.0891657959,1.0,0.0,0.0,0.0,1.0,0.0,0.0,0.0,1.0
1480336313396855035,749,1480336313392950281,,6.8521695137,2.86950111389,18.3887557983,0.00101300003007,1.0,0.0,0.0,0.0,1.0,0.0,0.0,0.0,1.0,0.0609756112099,2.86585378647,-0.548780500889,1.0,0.0,0.0,0.0,1.0,0.0,0.0,0.0,1.0,-0.225054956055,0.60812722168,10.2232410889,1.0,0.0,0.0,0.0,1.0,0.0,0.0,0.0,1.0
1480336313415351628,750,1480336313413669092,,6.86576557159,2.87009263039,18.3706054688,0.00104999996256,1.0,0.0,0.0,0.0,1.0,0.0,0.0,0.0,1.0,-0.12195122242,2.31707310677,-0.670731723309,1.0,0.0,0.0,0.0,1.0,0.0,0.0,0.0,1.0,-0.268150604204,0.502782348633,10.2902787354,1.0,0.0,0.0,0.0,1.0,0.0,0.0,0.0,1.0
1480336313436320593,751,1480336313434392903,,6.87277650833,2.86585044861,18.3575649261,0.00111499999184,1.0,0.0,0.0,0.0,1.0,0.0,0.0,0.0,1.0,0.0609756112099,1.8902438879,-0.365853667259,1.0,0.0,0.0,0.0,1.0,0.0,0.0,0.0,1.0,-0.320823022461,0.526724328702,10.285490332,1.0,0.0,0.0,0.0,1.0,0.0,0.0,0.0,1.0
1480336313456508420,752,1480336313454900414,,6.86506795883,2.8638086319,18.3558444977,0.00106499996036,1.0,0.0,0.0,0.0,1.0,0.0,0.0,0.0,1.0,0.0,1.58536589146,0.365853667259,1.0,0.0,0.0,0.0,1.0,0.0,0.0,0.0,1.0,-0.253785375977,0.560243188477,10.180145459,1.0,0.0,0.0,0.0,1.0,0.0,0.0,0.0,1.0
1480336313481304119,753,1480336313475933858,,6.84428167343,2.86632728577,18.3552951813,0.00109899998643,1.0,0.0,0.0,0.0,1.0,0.0,0.0,0.0,1.0,-0.304878056049,1.09756100178,0.18292683363,1.0,0.0,0.0,0.0,1.0,0.0,0.0,0.0,1.0,-0.143652099609,0.555454785156,10.1035310059,1.0,0.0,0.0,0.0,1.0,0.0,0.0,0.0,1.0
1480336313503686664,754,1480336313496567409,,6.81424283981,2.86641836166,18.351272583,0.00101200002246,1.0,0.0,0.0,0.0,1.0,0.0,0.0,0.0,1.0,0.12195122242,1.64634156227,0.12195122242,1.0,0.0,0.0,0.0,1.0,0.0,0.0,0.0,1.0,-0.138863696289,0.521935925381,10.2376062988,1.0,0.0,0.0,0.0,1.0,0.0,0.0,0.0,1.0
1480336313523022572,755,1480336313517175336,,6.78367567062,2.86543703079,18.3409404755,0.00101100001484,1.0,0.0,0.0,0.0,1.0,0.0,0.0,0.0,1.0,-0.12195122242,1.64634156227,-0.487804889679,1.0,0.0,0.0,0.0,1.0,0.0,0.0,0.0,1.0,-0.0335188255255,0.493205541992,10.2423947021,1.0,0.0,0.0,0.0,1.0,0.0,0.0,0.0,1.0
1480336313549678774,756,1480336313537768680,,6.76681566238,2.86538338661,18.3300495148,0.00113900005817,1.0,0.0,0.0,0.0,1.0,0.0,0.0,0.0,1.0,0.18292683363,2.43902444839,-0.0609756112099,1.0,0.0,0.0,0.0,1.0,0.0,0.0,0.0,1.0,-0.15801730957,0.593762048251,10.299855542,1.0,0.0,0.0,0.0,1.0,0.0,0.0,0.0,1.0
1480336313565586746,757,1480336313559526283,,6.76131677628,2.86268019676,18.3156108856,0.001912000007,1.0,0.0,0.0,0.0,1.0,0.0,0.0,0.0,1.0,-0.426829278469,3.04878044128,-0.18292683363,1.0,0.0,0.0,0.0,1.0,0.0,0.0,0.0,1.0,-0.0814028564453,0.574608398438,10.2471831055,1.0,0.0,0.0,0.0,1.0,0.0,0.0,0.0,1.0
1480336313585798635,758,1480336313582237211,,6.77391529083,2.86072516441,18.3028583527,0.00106599996798,1.0,0.0,0.0,0.0,1.0,0.0,0.0,0.0,1.0,-0.12195122242,3.41463422775,-0.304878056049,1.0,0.0,0.0,0.0,1.0,0.0,0.0,0.0,1.0,-0.138863696289,0.588973571866,10.1945106689,1.0,0.0,0.0,0.0,1.0,0.0,0.0,0.0,1.0
1480336313606414322,759,1480336313603422944,,6.79293394089,2.85862278938,18.2864074707,0.00309900008142,1.0,0.0,0.0,0.0,1.0,0.0,0.0,0.0,1.0,-0.365853667259,3.65853667259,-0.792682945728,1.0,0.0,0.0,0.0,1.0,0.0,0.0,0.0,1.0,-0.114921679688,0.593762048251,10.2519715088,1.0,0.0,0.0,0.0,1.0,0.0,0.0,0.0,1.0
1480336313627684794,760,1480336313624112172,,6.82223939896,2.85887002945,18.267206192,0.00495699979365,1.0,0.0,0.0,0.0,1.0,0.0,0.0,0.0,1.0,-0.12195122242,4.14634132385,-0.853658556938,1.0,0.0,0.0,0.0,1.0,0.0,0.0,0.0,1.0,-0.181959326172,0.622492431641,10.1131078125,1.0,0.0,0.0,0.0,1.0,0.0,0.0,0.0,1.0
1480336313650033486,761,1480336313645635976,,6.8647608757,2.85048341751,18.2443981171,0.00202500005253,1.0,0.0,0.0,0.0,1.0,0.0,0.0,0.0,1.0,-0.12195122242,2.98780488968,-0.18292683363,1.0,0.0,0.0,0.0,1.0,0.0,0.0,0.0,1.0,-0.502782348633,0.483628735352,10.2567599121,1.0,0.0,0.0,0.0,1.0,0.0,0.0,0.0,1.0
1480336313670789797,762,1480336313666139633,,6.88634252548,2.8488702774,18.2224311829,0.00122500001453,1.0,0.0,0.0,0.0,1.0,0.0,0.0,0.0,1.0,-0.243902444839,2.68292689323,-1.34146344662,1.0,0.0,0.0,0.0,1.0,0.0,0.0,0.0,1.0,-0.272938989258,0.598550451572,10.1562034424,1.0,0.0,0.0,0.0,1.0,0.0,0.0,0.0,1.0
1480336313691647929,763,1480336313687899476,,6.89932489395,2.85311889648,18.216714859,0.00120499997865,1.0,0.0,0.0,0.0,1.0,0.0,0.0,0.0,1.0,-0.487804889679,2.68292689323,-0.18292683363,1.0,0.0,0.0,0.0,1.0,0.0,0.0,0.0,1.0,-0.292092584273,0.541089611728,10.2423947021,1.0,0.0,0.0,0.0,1.0,0.0,0.0,0.0,1.0
1480336313710686548,764,1480336313707865586,,6.9079117775,2.84752845764,18.2135238647,0.00129100005142,1.0,0.0,0.0,0.0,1.0,0.0,0.0,0.0,1.0,-0.18292683363,1.64634156227,0.731707334518,1.0,0.0,0.0,0.0,1.0,0.0,0.0,0.0,1.0,-0.210689746094,0.526724328702,10.3046439453,1.0,0.0,0.0,0.0,1.0,0.0,0.0,0.0,1.0
1480336313731189112,765,1480336313728280858,,6.8868637085,2.84838318825,18.2087535858,0.00133300002199,1.0,0.0,0.0,0.0,1.0,0.0,0.0,0.0,1.0,-0.426829278469,1.95121955872,-0.304878056049,1.0,0.0,0.0,0.0,1.0,0.0,0.0,0.0,1.0,-0.191536132812,0.555454785156,10.0508585693,1.0,0.0,0.0,0.0,1.0,0.0,0.0,0.0,1.0
1480336313752076359,766,1480336313749264042,,6.87338781357,2.85022711754,18.1980400085,0.00109999999404,1.0,0.0,0.0,0.0,1.0,0.0,0.0,0.0,1.0,-0.243902444839,2.37804889679,-0.304878056049,1.0,0.0,0.0,0.0,1.0,0.0,0.0,0.0,1.0,-0.148440512063,0.507570751953,10.2950671387,1.0,0.0,0.0,0.0,1.0,0.0,0.0,0.0,1.0
1480336313775703058,767,1480336313769736449,,6.86725091934,2.84866690636,18.1890106201,0.00118799996562,1.0,0.0,0.0,0.0,1.0,0.0,0.0,0.0,1.0,-0.304878056049,2.62195134163,0.12195122242,1.0,0.0,0.0,0.0,1.0,0.0,0.0,0.0,1.0,-0.272938989258,0.665588061523,10.180145459,1.0,0.0,0.0,0.0,1.0,0.0,0.0,0.0,1.0
1480336313801879838,768,1480336313790543853,,6.8699131012,2.84526729584,18.1798400879,0.00101799995173,1.0,0.0,0.0,0.0,1.0,0.0,0.0,0.0,1.0,-0.243902444839,2.43902444839,-0.304878056049,1.0,0.0,0.0,0.0,1.0,0.0,0.0,0.0,1.0,-0.229843359375,0.574608398438,10.0556469727,1.0,0.0,0.0,0.0,1.0,0.0,0.0,0.0,1.0
1480336313816341834,769,1480336313811694327,,6.86888313293,2.84516358376,18.1667404175,0.00102900003549,1.0,0.0,0.0,0.0,1.0,0.0,0.0,0.0,1.0,-0.304878056049,2.25609779358,-0.243902444839,1.0,0.0,0.0,0.0,1.0,0.0,0.0,0.0,1.0,-0.3064578125,0.521935925381,10.0412817627,1.0,0.0,0.0,0.0,1.0,0.0,0.0,0.0,1.0
1480336313834716866,770,1480336313832326837,,6.860268116,2.83903026581,18.1605434418,0.00100499996915,1.0,0.0,0.0,0.0,1.0,0.0,0.0,0.0,1.0,-0.487804889679,2.07317066193,-0.243902444839,1.0,0.0,0.0,0.0,1.0,0.0,0.0,0.0,1.0,-0.3064578125,0.469263525391,10.1274730225,1.0,0.0,0.0,0.0,1.0,0.0,0.0,0.0,1.0
1480336313855600311,771,1480336313853548195,,6.85304403305,2.84370565414,18.1548271179,0.0010150000453,1.0,0.0,0.0,0.0,1.0,0.0,0.0,0.0,1.0,0.0,2.25609779358,-0.0609756112099,1.0,0.0,0.0,0.0,1.0,0.0,0.0,0.0,1.0,-0.210689746094,0.569819995117,10.1945106689,1.0,0.0,0.0,0.0,1.0,0.0,0.0,0.0,1.0
1480336313876659119,772,1480336313874242111,,6.83000946045,2.84648418427,18.149017334,0.00114700000267,1.0,0.0,0.0,0.0,1.0,0.0,0.0,0.0,1.0,-0.18292683363,2.07317066193,-0.670731723309,1.0,0.0,0.0,0.0,1.0,0.0,0.0,0.0,1.0,-0.067037651051,0.60812722168,10.2280294922,1.0,0.0,0.0,0.0,1.0,0.0,0.0,0.0,1.0
1480336313903523236,773,1480336313895265659,,6.81903505325,2.84850430489,18.1339015961,0.00101899995934,1.0,0.0,0.0,0.0,1.0,0.0,0.0,0.0,1.0,-0.12195122242,2.01219511032,-0.548780500889,1.0,0.0,0.0,0.0,1.0,0.0,0.0,0.0,1.0,-0.196324536133,0.565031591797,10.1562034424,1.0,0.0,0.0,0.0,1.0,0.0,0.0,0.0,1.0
1480336313921109369,774,1480336313916348893,,6.81020307541,2.84185552597,18.1182899475,0.00101699994411,1.0,0.0,0.0,0.0,1.0,0.0,0.0,0.0,1.0,-0.12195122242,2.37804889679,-0.12195122242,1.0,0.0,0.0,0.0,1.0,0.0,0.0,0.0,1.0,-0.292092584273,0.512359155273,10.180145459,1.0,0.0,0.0,0.0,1.0,0.0,0.0,0.0,1.0
1480336313944248052,775,1480336313937770198,,6.81221675873,2.84203457832,18.1114788055,0.00102800002787,1.0,0.0,0.0,0.0,1.0,0.0,0.0,0.0,1.0,0.12195122242,2.43902444839,-0.0609756112099,1.0,0.0,0.0,0.0,1.0,0.0,0.0,0.0,1.0,-0.272938989258,0.555454785156,10.1418382324,1.0,0.0,0.0,0.0,1.0,0.0,0.0,0.0,1.0
1480336313963141100,776,1480336313959018744,,6.80696153641,2.8437526226,18.1072540283,0.0011419999646,1.0,0.0,0.0,0.0,1.0,0.0,0.0,0.0,1.0,-0.18292683363,2.80487799644,0.0609756112099,1.0,0.0,0.0,0.0,1.0,0.0,0.0,0.0,1.0,-0.181959326172,0.550666381836,10.2423947021,1.0,0.0,0.0,0.0,1.0,0.0,0.0,0.0,1.0
1480336313986213638,777,1480336313979866303,,6.80535411835,2.84746551514,18.1013889313,0.00115400005598,1.0,0.0,0.0,0.0,1.0,0.0,0.0,0.0,1.0,0.0,2.5,0.0,1.0,0.0,0.0,0.0,1.0,0.0,0.0,0.0,1.0,-0.244208569336,0.603338854892,9.96945571289,1.0,0.0,0.0,0.0,1.0,0.0,0.0,0.0,1.0
1480336314005763398,778,1480336314000769748,,6.8095741272,2.8484787941,18.0848255157,0.00115000002552,1.0,0.0,0.0,0.0,1.0,0.0,0.0,0.0,1.0,-0.12195122242,2.43902444839,-0.975609779358,1.0,0.0,0.0,0.0,1.0,0.0,0.0,0.0,1.0,-0.201112939453,0.579396801758,10.2615483154,1.0,0.0,0.0,0.0,1.0,0.0,0.0,0.0,1.0
1480336314026928247,779,1480336314022054544,,6.80812978745,2.84576821327,18.0667629242,0.00116999994498,1.0,0.0,0.0,0.0,1.0,0.0,0.0,0.0,1.0,-0.365853667259,1.76829278469,-0.548780500889,1.0,0.0,0.0,0.0,1.0,0.0,0.0,0.0,1.0,-0.344765039063,0.565031591797,10.2232410889,1.0,0.0,0.0,0.0,1.0,0.0,0.0,0.0,1.0
1480336314045927283,780,1480336314043105539,,6.80272674561,2.83965563774,18.0559940338,0.00150699994992,1.0,0.0,0.0,0.0,1.0,0.0,0.0,0.0,1.0,-0.12195122242,1.2195122242,-0.12195122242,1.0,0.0,0.0,0.0,1.0,0.0,0.0,0.0,1.0,-0.296881024126,0.565031591797,10.1753570557,1.0,0.0,0.0,0.0,1.0,0.0,0.0,0.0,1.0
1480336314066264952,781,1480336314063716435,,6.78542232513,2.83722066879,18.0509300232,0.00142400001641,1.0,0.0,0.0,0.0,1.0,0.0,0.0,0.0,1.0,-0.304878056049,1.15853655338,-0.0609756112099,1.0,0.0,0.0,0.0,1.0,0.0,0.0,0.0,1.0,-0.258573779297,0.536301208408,10.1705686523,1.0,0.0,0.0,0.0,1.0,0.0,0.0,0.0,1.0
1480336314087333499,782,1480336314084163009,,6.75231313705,2.83927321434,18.0469741821,0.00170999998227,1.0,0.0,0.0,0.0,1.0,0.0,0.0,0.0,1.0,0.12195122242,1.03658533096,0.304878056049,1.0,0.0,0.0,0.0,1.0,0.0,0.0,0.0,1.0,-0.15322890625,0.541089611728,10.0748005859,1.0,0.0,0.0,0.0,1.0,0.0,0.0,0.0,1.0
1480336314108160486,783,1480336314104558646,,6.72061252594,2.83866000175,18.038520813,0.00141999998596,1.0,0.0,0.0,0.0,1.0,0.0,0.0,0.0,1.0,-0.12195122242,0.365853667259,-0.18292683363,1.0,0.0,0.0,0.0,1.0,0.0,0.0,0.0,1.0,-0.263362164351,0.670376464844,10.2759135254,1.0,0.0,0.0,0.0,1.0,0.0,0.0,0.0,1.0
1480336314128790184,784,1480336314125714380,,6.68162298203,2.83612155914,18.024980545,0.00219999998808,1.0,0.0,0.0,0.0,1.0,0.0,0.0,0.0,1.0,0.12195122242,0.365853667259,-0.304878056049,1.0,0.0,0.0,0.0,1.0,0.0,0.0,0.0,1.0,-0.3064578125,0.526724328702,10.2088758789,1.0,0.0,0.0,0.0,1.0,0.0,0.0,0.0,1.0
1480336314149741649,785,1480336314146289547,,6.63826990128,2.83428764343,18.0139980316,0.001200000057,1.0,0.0,0.0,0.0,1.0,0.0,0.0,0.0,1.0,-0.426829278469,-0.243902444839,-0.18292683363,1.0,0.0,0.0,0.0,1.0,0.0,0.0,0.0,1.0,-0.253785375977,0.622492431641,10.2759135254,1.0,0.0,0.0,0.0,1.0,0.0,0.0,0.0,1.0
1480336314183863300,786,1480336314167730955,,6.58689641953,2.83323574066,18.0062999725,0.00172099994961,1.0,0.0,0.0,0.0,1.0,0.0,0.0,0.0,1.0,-0.18292683363,-0.792682945728,0.304878056049,1.0,0.0,0.0,0.0,1.0,0.0,0.0,0.0,1.0,-0.258573779297,0.641646044922,10.1753570557,1.0,0.0,0.0,0.0,1.0,0.0,0.0,0.0,1.0
1480336314196089016,787,1480336314188635129,,6.52588272095,2.83843970299,17.997751236,0.00175099994522,1.0,0.0,0.0,0.0,1.0,0.0,0.0,0.0,1.0,-0.12195122242,-2.01219511032,0.18292683363,1.0,0.0,0.0,0.0,1.0,0.0,0.0,0.0,1.0,-0.354341845703,0.560243188477,10.1035310059,1.0,0.0,0.0,0.0,1.0,0.0,0.0,0.0,1.0
1480336314214844565,788,1480336314209446439,,6.43797683716,2.83290100098,17.9930477142,0.00142900005449,1.0,0.0,0.0,0.0,1.0,0.0,0.0,0.0,1.0,-0.243902444839,-3.29268312454,0.609756112099,1.0,0.0,0.0,0.0,1.0,0.0,0.0,0.0,1.0,-0.335188232422,0.555454785156,10.1945106689,1.0,0.0,0.0,0.0,1.0,0.0,0.0,0.0,1.0
1480336314234995360,789,1480336314230733526,,6.32385492325,2.82740736008,17.9996681213,0.00111800001469,1.0,0.0,0.0,0.0,1.0,0.0,0.0,0.0,1.0,-0.243902444839,-3.84146332741,0.670731723309,1.0,0.0,0.0,0.0,1.0,0.0,0.0,0.0,1.0,-0.172382519531,0.426167895508,10.180145459,1.0,0.0,0.0,0.0,1.0,0.0,0.0,0.0,1.0
1480336314253766117,790,1480336314251374578,,6.18921136856,2.83104467392,18.0131969452,0.00109599996358,1.0,0.0,0.0,0.0,1.0,0.0,0.0,0.0,1.0,-0.487804889679,-4.08536577225,1.15853655338,1.0,0.0,0.0,0.0,1.0,0.0,0.0,0.0,1.0,-0.0143652099609,0.402225878906,10.3429511719,1.0,0.0,0.0,0.0,1.0,0.0,0.0,0.0,1.0
1480336314274535501,791,1480336314272053181,,6.05565261841,2.83199572563,18.0273399353,0.00101899995934,1.0,0.0,0.0,0.0,1.0,0.0,0.0,0.0,1.0,-0.548780500889,-3.41463422775,1.34146344662,1.0,0.0,0.0,0.0,1.0,0.0,0.0,0.0,1.0,-0.0287304199219,0.588973571866,10.2423947021,1.0,0.0,0.0,0.0,1.0,0.0,0.0,0.0,1.0
1480336314295556601,792,1480336314293135426,,5.93052530289,2.83103752136,18.0510826111,0.00114700000267,1.0,0.0,0.0,0.0,1.0,0.0,0.0,0.0,1.0,-0.548780500889,-3.59756112099,1.76829278469,1.0,0.0,0.0,0.0,1.0,0.0,0.0,0.0,1.0,-0.0430956298828,0.507570751953,10.2136642822,1.0,0.0,0.0,0.0,1.0,0.0,0.0,0.0,1.0
1480336314315758178,793,1480336314313723926,,5.79453325272,2.82093477249,18.0752391815,0.00124699994922,1.0,0.0,0.0,0.0,1.0,0.0,0.0,0.0,1.0,-0.426829278469,-4.63414621353,1.58536589146,1.0,0.0,0.0,0.0,1.0,0.0,0.0,0.0,1.0,-0.105344873047,0.421379492187,10.2136642822,1.0,0.0,0.0,0.0,1.0,0.0,0.0,0.0,1.0
1480336314338260097,794,1480336314334942264,,5.63386774063,2.80980992317,18.0898303986,0.00100100005511,1.0,0.0,0.0,0.0,1.0,0.0,0.0,0.0,1.0,-0.365853667259,-4.2682929039,1.03658533096,1.0,0.0,0.0,0.0,1.0,0.0,0.0,0.0,1.0,0.124498486328,0.426167895508,10.299855542,1.0,0.0,0.0,0.0,1.0,0.0,0.0,0.0,1.0
1480336314359557027,795,1480336314355853573,,5.48107481003,2.80183625221,18.0890636444,0.000991999986582,1.0,0.0,0.0,0.0,1.0,0.0,0.0,0.0,1.0,-0.365853667259,-4.75609779358,0.487804889679,1.0,0.0,0.0,0.0,1.0,0.0,0.0,0.0,1.0,0.124498486328,0.507570751953,10.1035310059,1.0,0.0,0.0,0.0,1.0,0.0,0.0,0.0,1.0
1480336314380566096,796,1480336314376774153,,5.32649040222,2.79736018181,18.0800437927,0.00100299995393,1.0,0.0,0.0,0.0,1.0,0.0,0.0,0.0,1.0,-0.365853667259,-3.7804877758,0.243902444839,1.0,0.0,0.0,0.0,1.0,0.0,0.0,0.0,1.0,0.205901342773,0.541089611728,10.1418382324,1.0,0.0,0.0,0.0,1.0,0.0,0.0,0.0,1.0
1480336314407468337,797,1480336314397426871,,5.20088672638,2.78955173492,18.0730342865,0.000961999990977,1.0,0.0,0.0,0.0,1.0,0.0,0.0,0.0,1.0,-0.426829278469,-2.74390244484,0.0,1.0,0.0,0.0,0.0,1.0,0.0,0.0,0.0,1.0,0.196324536133,0.512359155273,10.2471831055,1.0,0.0,0.0,0.0,1.0,0.0,0.0,0.0,1.0
1480336314425783630,798,1480336314418359951,,5.0856051445,2.78495025635,18.0681324005,0.00106999999844,1.0,0.0,0.0,0.0,1.0,0.0,0.0,0.0,1.0,0.0,-2.74390244484,0.670731723309,1.0,0.0,0.0,0.0,1.0,0.0,0.0,0.0,1.0,0.162805712891,0.517147558594,10.1418382324,1.0,0.0,0.0,0.0,1.0,0.0,0.0,0.0,1.0
1480336314445272870,799,1480336314439641153,,4.97357320786,2.78890943527,18.0876941681,0.00104700005613,1.0,0.0,0.0,0.0,1.0,0.0,0.0,0.0,1.0,-0.304878056049,0.18292683363,1.2195122242,1.0,0.0,0.0,0.0,1.0,0.0,0.0,0.0,1.0,0.378283862305,0.512359155273,10.3573163818,1.0,0.0,0.0,0.0,1.0,0.0,0.0,0.0,1.0
1480336314464107532,800,1480336314460821105,,4.9125418663,2.78239130974,18.1055660248,0.00122700002976,1.0,0.0,0.0,0.0,1.0,0.0,0.0,0.0,1.0,-0.243902444839,1.09756100178,1.03658533096,1.0,0.0,0.0,0.0,1.0,0.0,0.0,0.0,1.0,0.363918652344,0.555454785156,10.2376062988,1.0,0.0,0.0,0.0,1.0,0.0,0.0,0.0,1.0
1480336314485380453,801,1480336314482396367,,4.86559486389,2.7808778286,18.1023635864,0.00117699999828,1.0,0.0,0.0,0.0,1.0,0.0,0.0,0.0,1.0,0.0,2.01219511032,-0.0609756112099,1.0,0.0,0.0,0.0,1.0,0.0,0.0,0.0,1.0,0.31124621582,0.541089611728,10.2519715088,1.0,0.0,0.0,0.0,1.0,0.0,0.0,0.0,1.0
1480336314504914171,802,1480336314502896482,,4.84589242935,2.78375840187,18.0889415741,0.00114299997222,1.0,0.0,0.0,0.0,1.0,0.0,0.0,0.0,1.0,-0.0609756112099,2.92682933807,-0.731707334518,1.0,0.0,0.0,0.0,1.0,0.0,0.0,0.0,1.0,0.277727392578,0.579396801758,10.1753570557,1.0,0.0,0.0,0.0,1.0,0.0,0.0,0.0,1.0
1480336314528502955,803,1480336314523894926,,4.86061811447,2.78484487534,18.0702571869,0.00114700000267,1.0,0.0,0.0,0.0,1.0,0.0,0.0,0.0,1.0,-0.12195122242,3.59756112099,-0.792682945728,1.0,0.0,0.0,0.0,1.0,0.0,0.0,0.0,1.0,0.167594116211,0.512359155273,10.2088758789,1.0,0.0,0.0,0.0,1.0,0.0,0.0,0.0,1.0
1480336314553750212,804,1480336314546463146,,4.89090919495,2.78108763695,18.0491313934,0.00235500000417,1.0,0.0,0.0,0.0,1.0,0.0,0.0,0.0,1.0,0.0609756112099,3.47560977936,-0.670731723309,1.0,0.0,0.0,0.0,1.0,0.0,0.0,0.0,1.0,0.0335188255255,0.421379492187,10.1131078125,1.0,0.0,0.0,0.0,1.0,0.0,0.0,0.0,1.0
1480336314572045661,805,1480336314567444559,,4.92070579529,2.78021287918,18.0331687927,0.00114800001029,1.0,0.0,0.0,0.0,1.0,0.0,0.0,0.0,1.0,-0.12195122242,3.59756112099,-0.548780500889,1.0,0.0,0.0,0.0,1.0,0.0,0.0,0.0,1.0,0.0526724365234,0.521935925381,10.1753570557,1.0,0.0,0.0,0.0,1.0,0.0,0.0,0.0,1.0
1480336314591553390,806,1480336314588050507,,4.94029712677,2.78196144104,18.0183105469,0.00127300003078,1.0,0.0,0.0,0.0,1.0,0.0,0.0,0.0,1.0,0.0,2.80487799644,-0.487804889679,1.0,0.0,0.0,0.0,1.0,0.0,0.0,0.0,1.0,0.0861912597656,0.46447512207,10.2615483154,1.0,0.0,0.0,0.0,1.0,0.0,0.0,0.0,1.0
1480336314612906310,807,1480336314608843067,,4.95681858063,2.78112435341,18.0043106079,0.00128900003619,1.0,0.0,0.0,0.0,1.0,0.0,0.0,0.0,1.0,0.0609756112099,2.74390244484,-0.426829278469,1.0,0.0,0.0,0.0,1.0,0.0,0.0,0.0,1.0,0.0287304199219,0.541089611728,10.1274730225,1.0,0.0,0.0,0.0,1.0,0.0,0.0,0.0,1.0
1480336314632326696,808,1480336314629820366,,4.9677195549,2.78345870972,17.9939060211,0.000969999993686,1.0,0.0,0.0,0.0,1.0,0.0,0.0,0.0,1.0,-0.12195122242,2.13414645195,-0.18292683363,1.0,0.0,0.0,0.0,1.0,0.0,0.0,0.0,1.0,0.0478840332031,0.526724328702,10.2280294922,1.0,0.0,0.0,0.0,1.0,0.0,0.0,0.0,1.0
1480336314658832899,809,1480336314650604905,,4.96793460846,2.783680439,17.9885540009,0.00143900001422,1.0,0.0,0.0,0.0,1.0,0.0,0.0,0.0,1.0,0.243902444839,2.07317066193,0.12195122242,1.0,0.0,0.0,0.0,1.0,0.0,0.0,0.0,1.0,0.067037651051,0.507570751953,10.1274730225,1.0,0.0,0.0,0.0,1.0,0.0,0.0,0.0,1.0
1480336314673878744,810,1480336314671351060,,4.96064853668,2.78348278999,17.9823474884,0.000973000016529,1.0,0.0,0.0,0.0,1.0,0.0,0.0,0.0,1.0,0.0,1.70731711388,-0.12195122242,1.0,0.0,0.0,0.0,1.0,0.0,0.0,0.0,1.0,0.129286889648,0.517147558594,10.1705686523,1.0,0.0,0.0,0.0,1.0,0.0,0.0,0.0,1.0
1480336314695605514,811,1480336314692671532,,4.94436836243,2.78382563591,17.9727420807,0.000969999993686,1.0,0.0,0.0,0.0,1.0,0.0,0.0,0.0,1.0,-0.18292683363,1.52439022064,-0.243902444839,1.0,0.0,0.0,0.0,1.0,0.0,0.0,0.0,1.0,0.110133276367,0.612915625,10.1131078125,1.0,0.0,0.0,0.0,1.0,0.0,0.0,0.0,1.0
1480336314720513869,812,1480336314713695497,,4.92911577225,2.78604626656,17.9586486816,0.00097499997355,1.0,0.0,0.0,0.0,1.0,0.0,0.0,0.0,1.0,0.0609756112099,1.34146344662,-0.304878056049,1.0,0.0,0.0,0.0,1.0,0.0,0.0,0.0,1.0,0.0861912597656,0.641646044922,10.1992990723,1.0,0.0,0.0,0.0,1.0,0.0,0.0,0.0,1.0
1480336314738624111,813,1480336314734811491,,4.91456222534,2.78782176971,17.9488430023,0.00098600005731,1.0,0.0,0.0,0.0,1.0,0.0,0.0,0.0,1.0,-0.12195122242,1.95121955872,-0.12195122242,1.0,0.0,0.0,0.0,1.0,0.0,0.0,0.0,1.0,0.0814028564453,0.574608398438,10.2280294922,1.0,0.0,0.0,0.0,1.0,0.0,0.0,0.0,1.0
1480336314762018469,814,1480336314755629208,,4.90325546265,2.78571557999,17.9400787354,0.000966000021435,1.0,0.0,0.0,0.0,1.0,0.0,0.0,0.0,1.0,0.0,1.95121955872,-0.12195122242,1.0,0.0,0.0,0.0,1.0,0.0,0.0,0.0,1.0,0.15801730957,0.469263525391,10.2040874756,1.0,0.0,0.0,0.0,1.0,0.0,0.0,0.0,1.0
1480336314781301721,815,1480336314776789161,,4.89171504974,2.78214001656,17.9274139404,0.000985000049695,1.0,0.0,0.0,0.0,1.0,0.0,0.0,0.0,1.0,-0.12195122242,2.56097555161,-0.548780500889,1.0,0.0,0.0,0.0,1.0,0.0,0.0,0.0,1.0,0.134075302102,0.488417138672,10.3094323486,1.0,0.0,0.0,0.0,1.0,0.0,0.0,0.0,1.0
1480336314800939449,816,1480336314797964478,,4.89598655701,2.78194069862,17.9175281525,0.00101899995934,1.0,0.0,0.0,0.0,1.0,0.0,0.0,0.0,1.0,-0.18292683363,2.98780488968,-0.243902444839,1.0,0.0,0.0,0.0,1.0,0.0,0.0,0.0,1.0,0.191536132812,0.569819995117,10.1418382324,1.0,0.0,0.0,0.0,1.0,0.0,0.0,0.0,1.0
1480336314827789243,817,1480336314818869902,,4.90796613693,2.7835688591,17.9062614441,0.00100299995393,1.0,0.0,0.0,0.0,1.0,0.0,0.0,0.0,1.0,0.0,3.35365867615,-0.609756112099,1.0,0.0,0.0,0.0,1.0,0.0,0.0,0.0,1.0,0.148440512063,0.598550451572,10.1897222656,1.0,0.0,0.0,0.0,1.0,0.0,0.0,0.0,1.0
1480336314841559059,818,1480336314839541630,,4.9265422821,2.78825378418,17.8960056305,0.0010450000409,1.0,0.0,0.0,0.0,1.0,0.0,0.0,0.0,1.0,-0.12195122242,3.65853667259,-0.487804889679,1.0,0.0,0.0,0.0,1.0,0.0,0.0,0.0,1.0,0.15322890625,0.60812722168,10.165780249,1.0,0.0,0.0,0.0,1.0,0.0,0.0,0.0,1.0
1480336314864603212,819,1480336314860361326,,4.94849300385,2.79095602036,17.8843040466,0.0010450000409,1.0,0.0,0.0,0.0,1.0,0.0,0.0,0.0,1.0,0.0609756112099,3.35365867615,-0.487804889679,1.0,0.0,0.0,0.0,1.0,0.0,0.0,0.0,1.0,0.0526724365234,0.517147558594,10.1226846191,1.0,0.0,0.0,0.0,1.0,0.0,0.0,0.0,1.0
1480336314886423263,820,1480336314881733256,,4.97247362137,2.79039049149,17.8705215454,0.00152599997818,1.0,0.0,0.0,0.0,1.0,0.0,0.0,0.0,1.0,0.18292683363,3.59756112099,-0.18292683363,1.0,0.0,0.0,0.0,1.0,0.0,0.0,0.0,1.0,0.0909796630859,0.584185168546,10.2615483154,1.0,0.0,0.0,0.0,1.0,0.0,0.0,0.0,1.0
1480336314905158655,821,1480336314902581284,,4.99748086929,2.79620933533,17.8626918793,0.00112599995919,1.0,0.0,0.0,0.0,1.0,0.0,0.0,0.0,1.0,-0.0609756112099,4.20731735229,-0.243902444839,1.0,0.0,0.0,0.0,1.0,0.0,0.0,0.0,1.0,0.138863696289,0.574608398438,10.1945106689,1.0,0.0,0.0,0.0,1.0,0.0,0.0,0.0,1.0
1480336314926037205,822,1480336314923933944,,5.02779197693,2.79792690277,17.8511657715,0.00121100002434,1.0,0.0,0.0,0.0,1.0,0.0,0.0,0.0,1.0,0.0609756112099,4.75609779358,-0.365853667259,1.0,0.0,0.0,0.0,1.0,0.0,0.0,0.0,1.0,0.277727392578,0.469263525391,10.0891657959,1.0,0.0,0.0,0.0,1.0,0.0,0.0,0.0,1.0
1480336314947524186,823,1480336314945083584,,5.06985616684,2.79867053032,17.835565567,0.00110999995377,1.0,0.0,0.0,0.0,1.0,0.0,0.0,0.0,1.0,0.12195122242,5.97560977936,-0.548780500889,1.0,0.0,0.0,0.0,1.0,0.0,0.0,0.0,1.0,0.272938989258,0.502782348633,10.1945106689,1.0,0.0,0.0,0.0,1.0,0.0,0.0,0.0,1.0
1480336314971460622,824,1480336314965651407,,5.13635635376,2.80013155937,17.8223953247,0.00107999995816,1.0,0.0,0.0,0.0,1.0,0.0,0.0,0.0,1.0,0.426829278469,7.31707334518,-0.609756112099,1.0,0.0,0.0,0.0,1.0,0.0,0.0,0.0,1.0,0.215478149414,0.469263525391,10.2280294922,1.0,0.0,0.0,0.0,1.0,0.0,0.0,0.0,1.0
1480336314989906382,825,1480336314986391260,,5.22691345215,2.79846739769,17.8101081848,0.00110600003973,1.0,0.0,0.0,0.0,1.0,0.0,0.0,0.0,1.0,0.304878056049,8.65853691101,-0.548780500889,1.0,0.0,0.0,0.0,1.0,0.0,0.0,0.0,1.0,0.234631762695,0.550666381836,10.2088758789,1.0,0.0,0.0,0.0,1.0,0.0,0.0,0.0,1.0
1480336315010296915,826,1480336315007818137,,5.35122108459,2.79982662201,17.7994384766,0.00112399994396,1.0,0.0,0.0,0.0,1.0,0.0,0.0,0.0,1.0,0.18292683363,10.2439022064,-0.609756112099,1.0,0.0,0.0,0.0,1.0,0.0,0.0,0.0,1.0,0.201112939453,0.478840332031,10.1226846191,1.0,0.0,0.0,0.0,1.0,0.0,0.0,0.0,1.0
1480336315031242443,827,1480336315028854393,,5.50976228714,2.80733251572,17.7940196991,0.00123599998187,1.0,0.0,0.0,0.0,1.0,0.0,0.0,0.0,1.0,0.12195122242,12.2560977936,-0.243902444839,1.0,0.0,0.0,0.0,1.0,0.0,0.0,0.0,1.0,0.378283862305,0.790086547852,10.4099888184,1.0,0.0,0.0,0.0,1.0,0.0,0.0,0.0,1.0
1480336315053646446,828,1480336315049690338,,5.70624303818,2.807543993,17.7814731598,0.00097499997355,1.0,0.0,0.0,0.0,1.0,0.0,0.0,0.0,1.0,0.548780500889,14.1463422775,0.0,1.0,0.0,0.0,0.0,1.0,0.0,0.0,0.0,1.0,0.320823022461,0.76614453125,10.0125513428,1.0,0.0,0.0,0.0,1.0,0.0,0.0,0.0,1.0
1480336315075022230,829,1480336315070742063,,5.93968248367,2.83160066605,17.7721652985,0.00121799996123,1.0,0.0,0.0,0.0,1.0,0.0,0.0,0.0,1.0,0.914634168148,17.4390239716,-0.975609779358,1.0,0.0,0.0,0.0,1.0,0.0,0.0,0.0,1.0,0.143652099609,0.92416184082,10.2902787354,1.0,0.0,0.0,0.0,1.0,0.0,0.0,0.0,1.0
1480336315093291742,830,1480336315091733163,,6.22908067703,2.83743572235,17.726858139,0.000967999978457,1.0,0.0,0.0,0.0,1.0,0.0,0.0,0.0,1.0,0.487804889679,18.1097564697,-4.02439022064,1.0,0.0,0.0,0.0,1.0,0.0,0.0,0.0,1.0,0.15801730957,0.521935925381,10.0125513428,1.0,0.0,0.0,0.0,1.0,0.0,0.0,0.0,1.0
1480336315114613777,831,1480336315112599056,,6.55045318604,2.84511017799,17.6480979919,0.000973000016529,1.0,0.0,0.0,0.0,1.0,0.0,0.0,0.0,1.0,0.731707334518,18.0487823486,-4.75609779358,1.0,0.0,0.0,0.0,1.0,0.0,0.0,0.0,1.0,-0.335188232422,0.622492431641,10.1466266357,1.0,0.0,0.0,0.0,1.0,0.0,0.0,0.0,1.0
1480336315135670918,832,1480336315133616615,,6.86602830887,2.85047078133,17.5558986664,0.000975999981165,1.0,0.0,0.0,0.0,1.0,0.0,0.0,0.0,1.0,0.365853667259,15.6707315445,-4.87804889679,1.0,0.0,0.0,0.0,1.0,0.0,0.0,0.0,1.0,-0.373495458984,0.550666381836,10.0269165527,1.0,0.0,0.0,0.0,1.0,0.0,0.0,0.0,1.0
1480336315156811808,833,1480336315154272302,,7.18398857117,2.82979416847,17.4505691528,0.000976999988779,1.0,0.0,0.0,0.0,1.0,0.0,0.0,0.0,1.0,0.0609756112099,19.0853652954,-6.09756088257,1.0,0.0,0.0,0.0,1.0,0.0,0.0,0.0,1.0,-0.574608398438,0.512359155273,10.2471831055,1.0,0.0,0.0,0.0,1.0,0.0,0.0,0.0,1.0
1480336315178774462,834,1480336315175023560,,7.56331777573,2.82411575317,17.3605270386,0.000975999981165,1.0,0.0,0.0,0.0,1.0,0.0,0.0,0.0,1.0,-0.243902444839,14.3902444839,-4.02439022064,1.0,0.0,0.0,0.0,1.0,0.0,0.0,0.0,1.0,-0.92416184082,0.833182177734,10.0221281494,1.0,0.0,0.0,0.0,1.0,0.0,0.0,0.0,1.0
1480336315200604721,835,1480336315196035806,,7.83245658875,2.82272863388,17.2728481293,0.000959999975748,1.0,0.0,0.0,0.0,1.0,0.0,0.0,0.0,1.0,-0.304878056049,9.81707286835,-4.14634132385,1.0,0.0,0.0,0.0,1.0,0.0,0.0,0.0,1.0,-0.876277807617,0.541089611728,9.97903251953,1.0,0.0,0.0,0.0,1.0,0.0,0.0,0.0,1.0
1480336315223106952,836,1480336315216538369,,8.02271747589,2.81662535667,17.203956604,0.000962999998592,1.0,0.0,0.0,0.0,1.0,0.0,0.0,0.0,1.0,-0.243902444839,9.26829242706,-2.74390244484,1.0,0.0,0.0,0.0,1.0,0.0,0.0,0.0,1.0,-0.842758984375,0.517147558594,10.0077629395,1.0,0.0,0.0,0.0,1.0,0.0,0.0,0.0,1.0
1480336315240276787,837,1480336315237589000,,8.20481395721,2.8208501339,17.156085968,0.000986999948509,1.0,0.0,0.0,0.0,1.0,0.0,0.0,0.0,1.0,-0.12195122242,6.09756088257,-1.8902438879,1.0,0.0,0.0,0.0,1.0,0.0,0.0,0.0,1.0,-1.14442839355,0.598550451572,10.1274730225,1.0,0.0,0.0,0.0,1.0,0.0,0.0,0.0,1.0
1480336315262259909,838,1480336315258833067,,8.29585838318,2.82086396217,17.1146945953,0.000996000017039,1.0,0.0,0.0,0.0,1.0,0.0,0.0,0.0,1.0,0.365853667259,3.96341490746,-1.2195122242,1.0,0.0,0.0,0.0,1.0,0.0,0.0,0.0,1.0,-0.593762048251,0.521935925381,10.1274730225,1.0,0.0,0.0,0.0,1.0,0.0,0.0,0.0,1.0
1480336315282558672,839,1480336315279526409,,8.37080287933,2.82316732407,17.0915660858,0.00103399995714,1.0,0.0,0.0,0.0,1.0,0.0,0.0,0.0,1.0,0.18292683363,2.74390244484,-0.731707334518,1.0,0.0,0.0,0.0,1.0,0.0,0.0,0.0,1.0,-0.866701000977,0.402225878906,10.0843773926,1.0,0.0,0.0,0.0,1.0,0.0,0.0,0.0,1.0
1480336315302763894,840,1480336315300436417,,8.39310359955,2.79670262337,17.0755214691,0.00108199997339,1.0,0.0,0.0,0.0,1.0,0.0,0.0,0.0,1.0,0.0,0.670731723309,-0.0609756112099,1.0,0.0,0.0,0.0,1.0,0.0,0.0,0.0,1.0,-0.579396801758,0.292092584273,10.0269165527,1.0,0.0,0.0,0.0,1.0,0.0,0.0,0.0,1.0
1480336315325233105,841,1480336315321892200,,8.37473583221,2.77990412712,17.0714664459,0.00115499994718,1.0,0.0,0.0,0.0,1.0,0.0,0.0,0.0,1.0,0.304878056049,-0.426829278469,0.487804889679,1.0,0.0,0.0,0.0,1.0,0.0,0.0,0.0,1.0,-0.445321508789,0.641646044922,10.2950671387,1.0,0.0,0.0,0.0,1.0,0.0,0.0,0.0,1.0
1480336315346267903,842,1480336315342539241,,8.31663131714,2.78876876831,17.0789031982,0.00117900001351,1.0,0.0,0.0,0.0,1.0,0.0,0.0,0.0,1.0,-0.18292683363,-0.975609779358,1.09756100178,1.0,0.0,0.0,0.0,1.0,0.0,0.0,0.0,1.0,-0.296881024126,0.627280834961,10.1945106689,1.0,0.0,0.0,0.0,1.0,0.0,0.0,0.0,1.0
1480336315365964120,843,1480336315362990815,,8.24107456207,2.80208992958,17.0958881378,0.00119600002654,1.0,0.0,0.0,0.0,1.0,0.0,0.0,0.0,1.0,-0.304878056049,0.975609779358,0.975609779358,1.0,0.0,0.0,0.0,1.0,0.0,0.0,0.0,1.0,-0.248996972656,0.612915625,10.2232410889,1.0,0.0,0.0,0.0,1.0,0.0,0.0,0.0,1.0
1480336315386004188,844,1480336315384149883,,8.17768859863,2.80607008934,17.1051540375,0.00121000001673,1.0,0.0,0.0,0.0,1.0,0.0,0.0,0.0,1.0,-0.0609756112099,1.15853655338,0.12195122242,1.0,0.0,0.0,0.0,1.0,0.0,0.0,0.0,1.0,-0.186747729492,0.526724328702,10.1418382324,1.0,0.0,0.0,0.0,1.0,0.0,0.0,0.0,1.0
1480336315408476367,845,1480336315405119941,,8.13105201721,2.81032061577,17.0965175629,0.00119600002654,1.0,0.0,0.0,0.0,1.0,0.0,0.0,0.0,1.0,0.12195122242,2.07317066193,-0.365853667259,1.0,0.0,0.0,0.0,1.0,0.0,0.0,0.0,1.0,-0.181959326172,0.584185168546,10.2471831055,1.0,0.0,0.0,0.0,1.0,0.0,0.0,0.0,1.0
1480336315429045440,846,1480336315425513704,,8.1103925705,2.81162571907,17.0794582367,0.00114099995699,1.0,0.0,0.0,0.0,1.0,0.0,0.0,0.0,1.0,-0.12195122242,3.10975623131,-0.548780500889,1.0,0.0,0.0,0.0,1.0,0.0,0.0,0.0,1.0,-0.296881024126,0.488417138672,10.2280294922,1.0,0.0,0.0,0.0,1.0,0.0,0.0,0.0,1.0
1480336315449779564,847,1480336315447274901,,8.12205123901,2.81219911575,17.0622463226,0.00106899999082,1.0,0.0,0.0,0.0,1.0,0.0,0.0,0.0,1.0,-0.243902444839,3.59756112099,-0.487804889679,1.0,0.0,0.0,0.0,1.0,0.0,0.0,0.0,1.0,-0.354341845703,0.579396801758,10.1370498291,1.0,0.0,0.0,0.0,1.0,0.0,0.0,0.0,1.0
1480336315470306554,848,1480336315467937462,,8.14725208282,2.81102490425,17.0431632996,0.001304000034,1.0,0.0,0.0,0.0,1.0,0.0,0.0,0.0,1.0,-0.426829278469,4.32926845551,-0.975609779358,1.0,0.0,0.0,0.0,1.0,0.0,0.0,0.0,1.0,-0.349553442383,0.526724328702,10.2136642822,1.0,0.0,0.0,0.0,1.0,0.0,0.0,0.0,1.0
1480336315491511402,849,1480336315488923875,,8.18398666382,2.8092854023,17.024974823,0.00124400004279,1.0,0.0,0.0,0.0,1.0,0.0,0.0,0.0,1.0,-0.0609756112099,4.02439022064,-0.609756112099,1.0,0.0,0.0,0.0,1.0,0.0,0.0,0.0,1.0,-0.440533105469,0.536301208408,10.165780249,1.0,0.0,0.0,0.0,1.0,0.0,0.0,0.0,1.0
1480336315512988956,850,1480336315509764195,,8.21915531158,2.80594086647,17.0083560944,0.000972000008915,1.0,0.0,0.0,0.0,1.0,0.0,0.0,0.0,1.0,-0.243902444839,3.7804877758,-0.548780500889,1.0,0.0,0.0,0.0,1.0,0.0,0.0,0.0,1.0,-0.675164868164,0.565031591797,10.3190091553,1.0,0.0,0.0,0.0,1.0,0.0,0.0,0.0,1.0
1480336315534040733,851,1480336315531231749,,8.25710487366,2.79972076416,16.9935112,0.00130700005684,1.0,0.0,0.0,0.0,1.0,0.0,0.0,0.0,1.0,-0.18292683363,3.90243911743,-0.365853667259,1.0,0.0,0.0,0.0,1.0,0.0,0.0,0.0,1.0,-0.521935925381,0.541089611728,10.1083194092,1.0,0.0,0.0,0.0,1.0,0.0,0.0,0.0,1.0
1480336315557161917,852,1480336315554612462,,8.29238128662,2.79966926575,16.979675293,0.00609100004658,1.0,0.0,0.0,0.0,1.0,0.0,0.0,0.0,1.0,-0.0609756112099,3.7804877758,-0.487804889679,1.0,0.0,0.0,0.0,1.0,0.0,0.0,0.0,1.0,-0.474051928711,0.632069238281,10.1418382324,1.0,0.0,0.0,0.0,1.0,0.0,0.0,0.0,1.0
1480336315582526360,853,1480336315575796685,,8.32068634033,2.79564189911,16.9620571136,0.000975999981165,1.0,0.0,0.0,0.0,1.0,0.0,0.0,0.0,1.0,-0.18292683363,3.47560977936,-0.853658556938,1.0,0.0,0.0,0.0,1.0,0.0,0.0,0.0,1.0,-0.426167895508,0.488417138672,10.2280294922,1.0,0.0,0.0,0.0,1.0,0.0,0.0,0.0,1.0
1480336315601487688,854,1480336315596401644,,8.3452129364,2.79302167892,16.9462795258,0.00106200005393,1.0,0.0,0.0,0.0,1.0,0.0,0.0,0.0,1.0,-0.18292683363,3.17073178291,-0.609756112099,1.0,0.0,0.0,0.0,1.0,0.0,0.0,0.0,1.0,-0.636857641602,0.507570751953,10.0939541992,1.0,0.0,0.0,0.0,1.0,0.0,0.0,0.0,1.0
1480336315622925451,855,1480336315619020020,,8.35788154602,2.79341840744,16.9325065613,0.00117800000589,1.0,0.0,0.0,0.0,1.0,0.0,0.0,0.0,1.0,-0.0609756112099,2.43902444839,-0.487804889679,1.0,0.0,0.0,0.0,1.0,0.0,0.0,0.0,1.0,-0.536301208408,0.603338854892,10.060435376,1.0,0.0,0.0,0.0,1.0,0.0,0.0,0.0,1.0
1480336315646256425,856,1480336315640932517,,8.36142921448,2.79385614395,16.9207000732,0.00132499996107,1.0,0.0,0.0,0.0,1.0,0.0,0.0,0.0,1.0,-0.12195122242,1.70731711388,0.0,1.0,0.0,0.0,0.0,1.0,0.0,0.0,0.0,1.0,-0.646434448242,0.593762048251,10.1370498291,1.0,0.0,0.0,0.0,1.0,0.0,0.0,0.0,1.0
