%time,field.header.seq,field.header.stamp,field.header.frame_id,field.orientation.x,field.orientation.y,field.orientation.z,field.orientation.w,field.orientation_covariance0,field.orientation_covariance1,field.orientation_covariance2,field.orientation_covariance3,field.orientation_covariance4,field.orientation_covariance5,field.orientation_covariance6,field.orientation_covariance7,field.orientation_covariance8,field.angular_velocity.x,field.angular_velocity.y,field.angular_velocity.z,field.angular_velocity_covariance0,field.angular_velocity_covariance1,field.angular_velocity_covariance2,field.angular_velocity_covariance3,field.angular_velocity_covariance4,field.angular_velocity_covariance5,field.angular_velocity_covariance6,field.angular_velocity_covariance7,field.angular_velocity_covariance8,field.linear_acceleration.x,field.linear_acceleration.y,field.linear_acceleration.z,field.linear_acceleration_covariance0,field.linear_acceleration_covariance1,field.linear_acceleration_covariance2,field.linear_acceleration_covariance3,field.linear_acceleration_covariance4,field.linear_acceleration_covariance5,field.linear_acceleration_covariance6,field.linear_acceleration_covariance7,field.linear_acceleration_covariance8
1463504476341555235,498,1463504476274904699,,3.78990030289,-0.637279748917,-175.981964111,0.0100859999657,1.0,0.0,0.0,0.0,1.0,0.0,0.0,0.0,1.0,3.71951246262,-0.18292683363,-0.243902444839,1.0,0.0,0.0,0.0,1.0,0.0,0.0,0.0,1.0,-0.837970581055,-0.167594116211,-10.0891657959,1.0,0.0,0.0,0.0,1.0,0.0,0.0,0.0,1.0
1463504476341659183,499,1463504476285459473,,3.79959058762,-0.608397424221,-175.983154297,0.0100800003856,1.0,0.0,0.0,0.0,1.0,0.0,0.0,0.0,1.0,3.41463422775,-0.365853667259,-0.304878056049,1.0,0.0,0.0,0.0,1.0,0.0,0.0,0.0,1.0,-0.742202514648,-0.205901342773,-10.1992990723,1.0,0.0,0.0,0.0,1.0,0.0,0.0,0.0,1.0
1463504476341777347,500,1463504476295395771,,3.80877590179,-0.581176578999,-175.982345581,0.0101319998503,1.0,0.0,0.0,0.0,1.0,0.0,0.0,0.0,1.0,3.10975623131,-0.12195122242,-0.12195122242,1.0,0.0,0.0,0.0,1.0,0.0,0.0,0.0,1.0,-0.814028564453,-0.253785375977,-10.2328178955,1.0,0.0,0.0,0.0,1.0,0.0,0.0,0.0,1.0
1463504476341829113,501,1463504476305520174,,3.81883025169,-0.553479731083,-175.982315063,0.010098000057,1.0,0.0,0.0,0.0,1.0,0.0,0.0,0.0,1.0,3.04878044128,-0.304878056049,-0.18292683363,1.0,0.0,0.0,0.0,1.0,0.0,0.0,0.0,1.0,-0.76614453125,-0.282515795898,-10.2280294922,1.0,0.0,0.0,0.0,1.0,0.0,0.0,0.0,1.0
1463504476341865307,502,1463504476315905383,,3.82772302628,-0.52692335844,-175.980712891,0.0102920001373,1.0,0.0,0.0,0.0,1.0,0.0,0.0,0.0,1.0,2.92682933807,0.12195122242,-0.0609756112099,1.0,0.0,0.0,0.0,1.0,0.0,0.0,0.0,1.0,-0.866701000977,-0.282515795898,-10.2280294922,1.0,0.0,0.0,0.0,1.0,0.0,0.0,0.0,1.0
1463504476341921915,503,1463504476325671855,,3.83495283127,-0.500665128231,-175.983901978,0.00995200034231,1.0,0.0,0.0,0.0,1.0,0.0,0.0,0.0,1.0,2.92682933807,-0.609756112099,-0.487804889679,1.0,0.0,0.0,0.0,1.0,0.0,0.0,0.0,1.0,-0.723048901367,-0.258573779297,-10.2184526855,1.0,0.0,0.0,0.0,1.0,0.0,0.0,0.0,1.0
1463504476341968942,504,1463504476335810736,,3.83852386475,-0.472794800997,-175.98815918,0.0100659998134,1.0,0.0,0.0,0.0,1.0,0.0,0.0,0.0,1.0,2.98780488968,-0.365853667259,-0.609756112099,1.0,0.0,0.0,0.0,1.0,0.0,0.0,0.0,1.0,-0.742202514648,-0.181959326172,-10.2471831055,1.0,0.0,0.0,0.0,1.0,0.0,0.0,0.0,1.0
1463504476348028148,505,1463504476345770365,,3.84628033638,-0.446221292019,-175.992660522,0.0101319998503,1.0,0.0,0.0,0.0,1.0,0.0,0.0,0.0,1.0,3.10975623131,-0.609756112099,-0.609756112099,1.0,0.0,0.0,0.0,1.0,0.0,0.0,0.0,1.0,-0.718260498047,-0.234631762695,-10.2280294922,1.0,0.0,0.0,0.0,1.0,0.0,0.0,0.0,1.0
1463504476358044645,506,1463504476355974134,,3.85467648506,-0.416310697794,-175.99067688,0.0100800003856,1.0,0.0,0.0,0.0,1.0,0.0,0.0,0.0,1.0,2.62195134163,-0.12195122242,-0.0,1.0,0.0,0.0,0.0,1.0,0.0,0.0,0.0,1.0,-0.737414111328,-0.339976635742,-10.3046439453,1.0,0.0,0.0,0.0,1.0,0.0,0.0,0.0,1.0
1463504476368701492,507,1463504476366588069,,3.84567475319,-0.393993377686,-175.988327026,0.0100919995457,1.0,0.0,0.0,0.0,1.0,0.0,0.0,0.0,1.0,1.8902438879,-0.609756112099,0.0609756112099,1.0,0.0,0.0,0.0,1.0,0.0,0.0,0.0,1.0,-0.77093293457,-0.15801730957,-10.180145459,1.0,0.0,0.0,0.0,1.0,0.0,0.0,0.0,1.0
1463504476382168929,508,1463504476377947550,,3.83073282242,-0.374344408512,-175.985931396,0.0100969998166,1.0,0.0,0.0,0.0,1.0,0.0,0.0,0.0,1.0,1.76829278469,-0.548780500889,0.0609756112099,1.0,0.0,0.0,0.0,1.0,0.0,0.0,0.0,1.0,-0.823605371094,-0.0718260498047,-10.1514150391,1.0,0.0,0.0,0.0,1.0,0.0,0.0,0.0,1.0
1463504476389813541,509,1463504476387863955,,3.82461357117,-0.361382842064,-175.98626709,0.0101300003007,1.0,0.0,0.0,0.0,1.0,0.0,0.0,0.0,1.0,2.31707310677,-0.853658556938,-0.18292683363,1.0,0.0,0.0,0.0,1.0,0.0,0.0,0.0,1.0,-0.900219824219,-0.129286889648,-10.285490332,1.0,0.0,0.0,0.0,1.0,0.0,0.0,0.0,1.0
1463504476398424197,510,1463504476396420866,,3.8249797821,-0.338134795427,-175.991134644,0.0100720003247,1.0,0.0,0.0,0.0,1.0,0.0,0.0,0.0,1.0,2.13414645195,-0.18292683363,-0.670731723309,1.0,0.0,0.0,0.0,1.0,0.0,0.0,0.0,1.0,-0.823605371094,-0.272938989258,-10.1035310059,1.0,0.0,0.0,0.0,1.0,0.0,0.0,0.0,1.0
1463504476409229414,511,1463504476406589275,,3.82222747803,-0.316184073687,-175.99369812,0.0100840004161,1.0,0.0,0.0,0.0,1.0,0.0,0.0,0.0,1.0,2.19512200356,-0.426829278469,-0.426829278469,1.0,0.0,0.0,0.0,1.0,0.0,0.0,0.0,1.0,-0.809240161133,-0.210689746094,-10.2711251221,1.0,0.0,0.0,0.0,1.0,0.0,0.0,0.0,1.0
1463504476418481461,512,1463504476416411523,,3.82163405418,-0.296841949224,-175.990737915,0.0100999996066,1.0,0.0,0.0,0.0,1.0,0.0,0.0,0.0,1.0,1.95121955872,-0.426829278469,0.12195122242,1.0,0.0,0.0,0.0,1.0,0.0,0.0,0.0,1.0,-0.828393774414,-0.287304199219,-10.046070166,1.0,0.0,0.0,0.0,1.0,0.0,0.0,0.0,1.0
1463504476428245277,513,1463504476426618469,,3.81013607979,-0.283448189497,-175.987869263,0.0101659996435,1.0,0.0,0.0,0.0,1.0,0.0,0.0,0.0,1.0,1.34146344662,-0.609756112099,0.12195122242,1.0,0.0,0.0,0.0,1.0,0.0,0.0,0.0,1.0,-0.905008227539,-0.205901342773,-10.1131078125,1.0,0.0,0.0,0.0,1.0,0.0,0.0,0.0,1.0
1463504476438787344,514,1463504476436722718,,3.80369544029,-0.259265780449,-175.98840332,0.010045000352,1.0,0.0,0.0,0.0,1.0,0.0,0.0,0.0,1.0,1.46341466904,-0.0609756112099,-0.243902444839,1.0,0.0,0.0,0.0,1.0,0.0,0.0,0.0,1.0,-0.804451757813,-0.268150604204,-10.0508585693,1.0,0.0,0.0,0.0,1.0,0.0,0.0,0.0,1.0
1463504476449301290,515,1463504476447138444,,3.78844475746,-0.243358135223,-175.987976074,0.0100959995762,1.0,0.0,0.0,0.0,1.0,0.0,0.0,0.0,1.0,1.8292683363,-0.548780500889,-0.12195122242,1.0,0.0,0.0,0.0,1.0,0.0,0.0,0.0,1.0,-0.876277807617,-0.0478840332031,-10.2423947021,1.0,0.0,0.0,0.0,1.0,0.0,0.0,0.0,1.0
1463504476458638744,516,1463504476456721967,,3.7775375843,-0.21591450274,-175.990509033,0.010156000033,1.0,0.0,0.0,0.0,1.0,0.0,0.0,0.0,1.0,1.76829278469,-0.243902444839,-0.426829278469,1.0,0.0,0.0,0.0,1.0,0.0,0.0,0.0,1.0,-0.718260498047,-0.134075302102,-10.1131078125,1.0,0.0,0.0,0.0,1.0,0.0,0.0,0.0,1.0
1463504476468723777,517,1463504476466679877,,3.76568961143,-0.200620308518,-175.993270874,0.0100440001115,1.0,0.0,0.0,0.0,1.0,0.0,0.0,0.0,1.0,1.8902438879,-0.609756112099,-0.426829278469,1.0,0.0,0.0,0.0,1.0,0.0,0.0,0.0,1.0,-0.861912597656,-0.0909796630859,-10.1370498291,1.0,0.0,0.0,0.0,1.0,0.0,0.0,0.0,1.0
1463504476577405097,518,1463504476476951817,,3.75517654419,-0.177223309875,-175.991348267,0.0101049998775,1.0,0.0,0.0,0.0,1.0,0.0,0.0,0.0,1.0,1.58536589146,0.0,-0.0,1.0,0.0,0.0,0.0,1.0,0.0,0.0,0.0,1.0,-0.814028564453,-0.167594116211,-10.0508585693,1.0,0.0,0.0,0.0,1.0,0.0,0.0,0.0,1.0
1463504476577467851,519,1463504476487497686,,3.73940443993,-0.154494255781,-175.987091064,0.0101229995489,1.0,0.0,0.0,0.0,1.0,0.0,0.0,0.0,1.0,1.52439022064,-0.18292683363,0.243902444839,1.0,0.0,0.0,0.0,1.0,0.0,0.0,0.0,1.0,-0.799663354492,-0.0861912597656,-10.2184526855,1.0,0.0,0.0,0.0,1.0,0.0,0.0,0.0,1.0
1463504476580091325,520,1463504476502521104,,3.72778439522,-0.136249691248,-175.985931396,0.0101009998471,1.0,0.0,0.0,0.0,1.0,0.0,0.0,0.0,1.0,1.2195122242,-0.12195122242,-0.0609756112099,1.0,0.0,0.0,0.0,1.0,0.0,0.0,0.0,1.0,-0.885854614258,-0.210689746094,-10.165780249,1.0,0.0,0.0,0.0,1.0,0.0,0.0,0.0,1.0
1463504476580179805,521,1463504476507164626,,3.70882415771,-0.119038715959,-175.982055664,0.0100760003552,1.0,0.0,0.0,0.0,1.0,0.0,0.0,0.0,1.0,1.46341466904,-0.670731723309,0.243902444839,1.0,0.0,0.0,0.0,1.0,0.0,0.0,0.0,1.0,-0.799663354492,-0.0335188255255,-10.1945106689,1.0,0.0,0.0,0.0,1.0,0.0,0.0,0.0,1.0
1463504476584478207,522,1463504476517432504,,3.69737362862,-0.100032091141,-175.980316162,0.0101030003279,1.0,0.0,0.0,0.0,1.0,0.0,0.0,0.0,1.0,1.46341466904,-0.12195122242,-0.0,1.0,0.0,0.0,0.0,1.0,0.0,0.0,0.0,1.0,-0.857124194336,-0.162805712891,-10.0700121826,1.0,0.0,0.0,0.0,1.0,0.0,0.0,0.0,1.0
1463504476586274059,523,1463504476527502121,,3.68422222137,-0.0910001993179,-175.979110718,0.0101199997589,1.0,0.0,0.0,0.0,1.0,0.0,0.0,0.0,1.0,1.8292683363,-0.914634168148,-0.0,1.0,0.0,0.0,0.0,1.0,0.0,0.0,0.0,1.0,-0.905008227539,-0.067037651051,-10.2519715088,1.0,0.0,0.0,0.0,1.0,0.0,0.0,0.0,1.0
1463504476586414409,524,1463504476537934929,,3.67982077599,-0.072139672935,-175.976898193,0.0100959995762,1.0,0.0,0.0,0.0,1.0,0.0,0.0,0.0,1.0,1.95121955872,-0.243902444839,0.0609756112099,1.0,0.0,0.0,0.0,1.0,0.0,0.0,0.0,1.0,-0.833182177734,-0.196324536133,-10.0843773926,1.0,0.0,0.0,0.0,1.0,0.0,0.0,0.0,1.0
1463504476586453416,525,1463504476549032250,,3.66764640808,-0.056080058217,-175.972366333,0.0101150004193,1.0,0.0,0.0,0.0,1.0,0.0,0.0,0.0,1.0,1.64634156227,-0.487804889679,0.304878056049,1.0,0.0,0.0,0.0,1.0,0.0,0.0,0.0,1.0,-0.847547387695,-0.114921679688,-10.2567599121,1.0,0.0,0.0,0.0,1.0,0.0,0.0,0.0,1.0
1463504476586490703,526,1463504476558603847,,3.65385818481,-0.0414076335728,-175.970245361,0.0100779999048,1.0,0.0,0.0,0.0,1.0,0.0,0.0,0.0,1.0,1.8902438879,-0.365853667259,0.0609756112099,1.0,0.0,0.0,0.0,1.0,0.0,0.0,0.0,1.0,-0.895431420898,-0.0383072265625,-10.2759135254,1.0,0.0,0.0,0.0,1.0,0.0,0.0,0.0,1.0
1463504476588037676,527,1463504476570007438,,3.64371466637,-0.0223691705614,-175.972610474,0.0106440000236,1.0,0.0,0.0,0.0,1.0,0.0,0.0,0.0,1.0,2.31707310677,-0.365853667259,-0.365853667259,1.0,0.0,0.0,0.0,1.0,0.0,0.0,0.0,1.0,-0.828393774414,-0.0335188255255,-10.1705686523,1.0,0.0,0.0,0.0,1.0,0.0,0.0,0.0,1.0
1463504476644073288,528,1463504476577828803,,3.63503432274,-0.00560458377004,-175.972290039,0.00954699981958,1.0,0.0,0.0,0.0,1.0,0.0,0.0,0.0,1.0,2.37804889679,-0.18292683363,-0.12195122242,1.0,0.0,0.0,0.0,1.0,0.0,0.0,0.0,1.0,-0.866701000977,-0.0287304199219,-10.2376062988,1.0,0.0,0.0,0.0,1.0,0.0,0.0,0.0,1.0
1463504476644117971,529,1463504476588170266,,3.63681864738,0.0109418164939,-175.972213745,0.0102159995586,1.0,0.0,0.0,0.0,1.0,0.0,0.0,0.0,1.0,2.74390244484,-0.548780500889,-0.12195122242,1.0,0.0,0.0,0.0,1.0,0.0,0.0,0.0,1.0,-0.823605371094,-0.15801730957,-10.2567599121,1.0,0.0,0.0,0.0,1.0,0.0,0.0,0.0,1.0
1463504476644387161,530,1463504476598400387,,3.63133192062,0.0310083795339,-175.970840454,0.0100060002878,1.0,0.0,0.0,0.0,1.0,0.0,0.0,0.0,1.0,2.86585378647,-0.426829278469,-0.0,1.0,0.0,0.0,0.0,1.0,0.0,0.0,0.0,1.0,-0.76135612793,-0.00478840332031,-10.1274730225,1.0,0.0,0.0,0.0,1.0,0.0,0.0,0.0,1.0
1463504476644663903,531,1463504476608755703,,3.63413262367,0.0451889783144,-175.971450806,0.0101239997894,1.0,0.0,0.0,0.0,1.0,0.0,0.0,0.0,1.0,3.23170733452,-0.609756112099,-0.18292683363,1.0,0.0,0.0,0.0,1.0,0.0,0.0,0.0,1.0,-0.837970581055,-0.0861912597656,-10.1514150391,1.0,0.0,0.0,0.0,1.0,0.0,0.0,0.0,1.0
1463504476645331541,532,1463504476618701219,,3.6263897419,0.0637575462461,-175.969985962,0.0100670000538,1.0,0.0,0.0,0.0,1.0,0.0,0.0,0.0,1.0,3.17073178291,-0.243902444839,-0.0,1.0,0.0,0.0,0.0,1.0,0.0,0.0,0.0,1.0,-0.823605371094,0.0909796630859,-10.2088758789,1.0,0.0,0.0,0.0,1.0,0.0,0.0,0.0,1.0
1463504476645396690,533,1463504476628589553,,3.63588404655,0.0827549174428,-175.970535278,0.0103339999914,1.0,0.0,0.0,0.0,1.0,0.0,0.0,0.0,1.0,3.65853667259,-0.487804889679,-0.18292683363,1.0,0.0,0.0,0.0,1.0,0.0,0.0,0.0,1.0,-0.775721337891,-0.124498486328,-10.1609918457,1.0,0.0,0.0,0.0,1.0,0.0,0.0,0.0,1.0
1463504476645437728,534,1463504476638525174,,3.63873624802,0.100846804678,-175.970443726,0.00988200027496,1.0,0.0,0.0,0.0,1.0,0.0,0.0,0.0,1.0,3.59756112099,-0.426829278469,-0.12195122242,1.0,0.0,0.0,0.0,1.0,0.0,0.0,0.0,1.0,-0.790086547852,-0.0239420166016,-10.2423947021,1.0,0.0,0.0,0.0,1.0,0.0,0.0,0.0,1.0
1463504476662321003,535,1463504476648748369,,3.65148854256,0.113010197878,-175.969711304,0.0101020000875,1.0,0.0,0.0,0.0,1.0,0.0,0.0,0.0,1.0,3.90243911743,-0.426829278469,-0.0609756112099,1.0,0.0,0.0,0.0,1.0,0.0,0.0,0.0,1.0,-0.890643017578,-0.143652099609,-10.1274730225,1.0,0.0,0.0,0.0,1.0,0.0,0.0,0.0,1.0
1463504476729036376,536,1463504476661669769,,3.66163349152,0.131834462285,-175.971420288,0.0100760003552,1.0,0.0,0.0,0.0,1.0,0.0,0.0,0.0,1.0,4.32926845551,-0.365853667259,-0.304878056049,1.0,0.0,0.0,0.0,1.0,0.0,0.0,0.0,1.0,-0.780509741211,-0.0239420166016,-10.1035310059,1.0,0.0,0.0,0.0,1.0,0.0,0.0,0.0,1.0
1463504476729226981,537,1463504476670580081,,3.68027639389,0.146782904863,-175.97543335,0.0110090002418,1.0,0.0,0.0,0.0,1.0,0.0,0.0,0.0,1.0,4.63414621353,-0.548780500889,-0.487804889679,1.0,0.0,0.0,0.0,1.0,0.0,0.0,0.0,1.0,-0.852335791016,-0.0957680664062,-10.2759135254,1.0,0.0,0.0,0.0,1.0,0.0,0.0,0.0,1.0
1463504476729587255,538,1463504476679029088,,3.69270658493,0.16120429337,-175.977081299,0.00920499954373,1.0,0.0,0.0,0.0,1.0,0.0,0.0,0.0,1.0,4.2682929039,-0.548780500889,-0.304878056049,1.0,0.0,0.0,0.0,1.0,0.0,0.0,0.0,1.0,-0.790086547852,-0.100556469727,-10.0269165527,1.0,0.0,0.0,0.0,1.0,0.0,0.0,0.0,1.0
1463504476729629126,539,1463504476689276655,,3.7093706131,0.172654628754,-175.980224609,0.0101070003584,1.0,0.0,0.0,0.0,1.0,0.0,0.0,0.0,1.0,4.08536577225,-0.731707334518,-0.426829278469,1.0,0.0,0.0,0.0,1.0,0.0,0.0,0.0,1.0,-0.847547387695,-0.191536132812,-10.1945106689,1.0,0.0,0.0,0.0,1.0,0.0,0.0,0.0,1.0
1463504476729904826,540,1463504476699186862,,3.71859431267,0.18651778996,-175.97833252,0.0100899999961,1.0,0.0,0.0,0.0,1.0,0.0,0.0,0.0,1.0,4.2682929039,-0.548780500889,0.0609756112099,1.0,0.0,0.0,0.0,1.0,0.0,0.0,0.0,1.0,-0.833182177734,-0.0287304199219,-10.2471831055,1.0,0.0,0.0,0.0,1.0,0.0,0.0,0.0,1.0
1463504476730195056,541,1463504476709197839,,3.74142289162,0.202172026038,-175.982040405,0.0101209999993,1.0,0.0,0.0,0.0,1.0,0.0,0.0,0.0,1.0,4.63414621353,-0.670731723309,-0.487804889679,1.0,0.0,0.0,0.0,1.0,0.0,0.0,0.0,1.0,-0.775721337891,-0.205901342773,-10.1418382324,1.0,0.0,0.0,0.0,1.0,0.0,0.0,0.0,1.0
1463504476730484036,542,1463504476720025606,,3.75606393814,0.219848766923,-175.986434937,0.0101199997589,1.0,0.0,0.0,0.0,1.0,0.0,0.0,0.0,1.0,4.75609779358,-0.731707334518,-0.548780500889,1.0,0.0,0.0,0.0,1.0,0.0,0.0,0.0,1.0,-0.727837304687,-0.0430956298828,-10.1609918457,1.0,0.0,0.0,0.0,1.0,0.0,0.0,0.0,1.0
1463504476732393887,543,1463504476729436126,,3.77681136131,0.227429464459,-175.994491577,0.0100699998438,1.0,0.0,0.0,0.0,1.0,0.0,0.0,0.0,1.0,5.48780488968,-0.731707334518,-0.914634168148,1.0,0.0,0.0,0.0,1.0,0.0,0.0,0.0,1.0,-0.909796630859,-0.0239420166016,-10.1705686523,1.0,0.0,0.0,0.0,1.0,0.0,0.0,0.0,1.0
1463504476764919786,544,1463504476739571152,,3.79648041725,0.240432858467,-175.996856689,0.0101220002398,1.0,0.0,0.0,0.0,1.0,0.0,0.0,0.0,1.0,5.54878091812,-0.487804889679,-0.365853667259,1.0,0.0,0.0,0.0,1.0,0.0,0.0,0.0,1.0,-0.833182177734,0.00478840332031,-9.96945571289,1.0,0.0,0.0,0.0,1.0,0.0,0.0,0.0,1.0
1463504476765241888,545,1463504476749879182,,3.82202267647,0.25462526083,-175.996353149,0.0100819999352,1.0,0.0,0.0,0.0,1.0,0.0,0.0,0.0,1.0,5.12195110321,-0.914634168148,-0.0609756112099,1.0,0.0,0.0,0.0,1.0,0.0,0.0,0.0,1.0,-0.742202514648,-0.181959326172,-10.1418382324,1.0,0.0,0.0,0.0,1.0,0.0,0.0,0.0,1.0
1463504476765558573,546,1463504476761527904,,3.85047054291,0.268963694572,-175.991699219,0.0103550003842,1.0,0.0,0.0,0.0,1.0,0.0,0.0,0.0,1.0,5.06097555161,-0.487804889679,0.304878056049,1.0,0.0,0.0,0.0,1.0,0.0,0.0,0.0,1.0,-0.814028564453,-0.234631762695,-10.1131078125,1.0,0.0,0.0,0.0,1.0,0.0,0.0,0.0,1.0
1463504476803153366,547,1463504476773142567,,3.87661981583,0.286029279232,-175.984863281,0.00984199997038,1.0,0.0,0.0,0.0,1.0,0.0,0.0,0.0,1.0,4.69512224197,-0.548780500889,0.548780500889,1.0,0.0,0.0,0.0,1.0,0.0,0.0,0.0,1.0,-0.742202514648,-0.292092584273,-10.2184526855,1.0,0.0,0.0,0.0,1.0,0.0,0.0,0.0,1.0
1463504476803462396,548,1463504476782069648,,3.90110421181,0.302594900131,-175.978607178,0.0111800003797,1.0,0.0,0.0,0.0,1.0,0.0,0.0,0.0,1.0,4.39024400711,-0.731707334518,0.426829278469,1.0,0.0,0.0,0.0,1.0,0.0,0.0,0.0,1.0,-0.742202514648,-0.263362164351,-10.0652237793,1.0,0.0,0.0,0.0,1.0,0.0,0.0,0.0,1.0
1463504476803738877,549,1463504476794620306,,3.92691516876,0.316265881062,-175.978744507,0.00902299955487,1.0,0.0,0.0,0.0,1.0,0.0,0.0,0.0,1.0,4.20731735229,-0.304878056049,-0.18292683363,1.0,0.0,0.0,0.0,1.0,0.0,0.0,0.0,1.0,-0.828393774414,-0.426167895508,-10.2040874756,1.0,0.0,0.0,0.0,1.0,0.0,0.0,0.0,1.0
1463504476804062125,550,1463504476800516925,,3.95843291283,0.324296623468,-175.978607178,0.010440999642,1.0,0.0,0.0,0.0,1.0,0.0,0.0,0.0,1.0,3.65853667259,-0.853658556938,-0.12195122242,1.0,0.0,0.0,0.0,1.0,0.0,0.0,0.0,1.0,-0.857124194336,-0.555454785156,-10.1466266357,1.0,0.0,0.0,0.0,1.0,0.0,0.0,0.0,1.0
1463504476817148716,551,1463504476814632106,,3.97952103615,0.341288655996,-175.974594116,0.0140030002221,1.0,0.0,0.0,0.0,1.0,0.0,0.0,0.0,1.0,1.64634156227,-0.548780500889,0.12195122242,1.0,0.0,0.0,0.0,1.0,0.0,0.0,0.0,1.0,-0.828393774414,-0.651222851562,-10.1562034424,1.0,0.0,0.0,0.0,1.0,0.0,0.0,0.0,1.0
1463504476823705942,552,1463504476820401030,,3.98069310188,0.345481544733,-175.969726562,0.00586300017312,1.0,0.0,0.0,0.0,1.0,0.0,0.0,0.0,1.0,0.792682945728,-0.609756112099,0.670731723309,1.0,0.0,0.0,0.0,1.0,0.0,0.0,0.0,1.0,-0.885854614258,-0.565031591797,-10.0221281494,1.0,0.0,0.0,0.0,1.0,0.0,0.0,0.0,1.0
1463504476841186446,553,1463504476830469032,,3.96840929985,0.351801723242,-175.955718994,0.0101100001484,1.0,0.0,0.0,0.0,1.0,0.0,0.0,0.0,1.0,-0.426829278469,-0.548780500889,1.2195122242,1.0,0.0,0.0,0.0,1.0,0.0,0.0,0.0,1.0,-0.92416184082,-0.541089611728,-10.2376062988,1.0,0.0,0.0,0.0,1.0,0.0,0.0,0.0,1.0
1463504476877854774,554,1463504476853398546,,3.92667269707,0.369815260172,-175.951828003,0.0130319995806,1.0,0.0,0.0,0.0,1.0,0.0,0.0,0.0,1.0,-1.64634156227,-0.243902444839,0.12195122242,1.0,0.0,0.0,0.0,1.0,0.0,0.0,0.0,1.0,-0.857124194336,-0.402225878906,-10.2807019287,1.0,0.0,0.0,0.0,1.0,0.0,0.0,0.0,1.0
1463504476877918413,555,1463504476855210178,,3.88164710999,0.382352858782,-175.95552063,0.0117929996923,1.0,0.0,0.0,0.0,1.0,0.0,0.0,0.0,1.0,-1.8902438879,-0.12195122242,-0.487804889679,1.0,0.0,0.0,0.0,1.0,0.0,0.0,0.0,1.0,-0.92416184082,-0.320823022461,-10.0795889893,1.0,0.0,0.0,0.0,1.0,0.0,0.0,0.0,1.0
1463504476877958565,556,1463504476861682361,,3.8612177372,0.389853805304,-175.957260132,0.00569299980998,1.0,0.0,0.0,0.0,1.0,0.0,0.0,0.0,1.0,-1.52439022064,0.0609756112099,-0.487804889679,1.0,0.0,0.0,0.0,1.0,0.0,0.0,0.0,1.0,-0.9193734375,-0.292092584273,-10.1992990723,1.0,0.0,0.0,0.0,1.0,0.0,0.0,0.0,1.0
1463504476878001633,557,1463504476870797808,,3.82009792328,0.404362678528,-175.959274292,0.0098729999736,1.0,0.0,0.0,0.0,1.0,0.0,0.0,0.0,1.0,-2.13414645195,-0.18292683363,-0.365853667259,1.0,0.0,0.0,0.0,1.0,0.0,0.0,0.0,1.0,-0.837970581055,-0.292092584273,-10.1178962158,1.0,0.0,0.0,0.0,1.0,0.0,0.0,0.0,1.0
1463504476912553778,558,1463504476882806388,,3.7641274929,0.418532729149,-175.950241089,0.0100929997861,1.0,0.0,0.0,0.0,1.0,0.0,0.0,0.0,1.0,-3.23170733452,-0.12195122242,0.731707334518,1.0,0.0,0.0,0.0,1.0,0.0,0.0,0.0,1.0,-0.852335791016,-0.234631762695,-10.2088758789,1.0,0.0,0.0,0.0,1.0,0.0,0.0,0.0,1.0
1463504476915796457,559,1463504476896715393,,3.7128303051,0.449770182371,-175.936828613,0.0122349997982,1.0,0.0,0.0,0.0,1.0,0.0,0.0,0.0,1.0,-3.71951246262,0.0609756112099,0.914634168148,1.0,0.0,0.0,0.0,1.0,0.0,0.0,0.0,1.0,-0.670376464844,-0.555454785156,-10.1705686523,1.0,0.0,0.0,0.0,1.0,0.0,0.0,0.0,1.0
1463504476916172563,560,1463504476905016654,,3.66491580009,0.466215610504,-175.928710938,0.00797300040722,1.0,0.0,0.0,0.0,1.0,0.0,0.0,0.0,1.0,-4.63414621353,0.0,0.853658556938,1.0,0.0,0.0,0.0,1.0,0.0,0.0,0.0,1.0,-0.742202514648,-0.383072265625,-10.1609918457,1.0,0.0,0.0,0.0,1.0,0.0,0.0,0.0,1.0
1463504476916523203,561,1463504476913833643,,3.6005885601,0.483794659376,-175.924255371,0.0101209999993,1.0,0.0,0.0,0.0,1.0,0.0,0.0,0.0,1.0,-5.30487823486,-0.365853667259,0.304878056049,1.0,0.0,0.0,0.0,1.0,0.0,0.0,0.0,1.0,-0.742202514648,-0.435744702148,-10.2088758789,1.0,0.0,0.0,0.0,1.0,0.0,0.0,0.0,1.0
1463504476938668893,562,1463504476923650162,,3.52865791321,0.500682413578,-175.916931152,0.0100840004161,1.0,0.0,0.0,0.0,1.0,0.0,0.0,0.0,1.0,-5.91463422775,0.426829278469,0.548780500889,1.0,0.0,0.0,0.0,1.0,0.0,0.0,0.0,1.0,-0.890643017578,-0.392649072266,-10.1992990723,1.0,0.0,0.0,0.0,1.0,0.0,0.0,0.0,1.0
1463504476939020575,563,1463504476933578075,,3.44224977493,0.50717407465,-175.912765503,0.0101110003889,1.0,0.0,0.0,0.0,1.0,0.0,0.0,0.0,1.0,-7.01219511032,-0.487804889679,0.304878056049,1.0,0.0,0.0,0.0,1.0,0.0,0.0,0.0,1.0,-0.9193734375,-0.325611425781,-10.2807019287,1.0,0.0,0.0,0.0,1.0,0.0,0.0,0.0,1.0
1463504476957759436,564,1463504476945370740,,3.35573124886,0.541445493698,-175.908630371,0.0103860003874,1.0,0.0,0.0,0.0,1.0,0.0,0.0,0.0,1.0,-7.07317113876,0.426829278469,0.243902444839,1.0,0.0,0.0,0.0,1.0,0.0,0.0,0.0,1.0,-0.588973571866,-0.354341845703,-10.0939541992,1.0,0.0,0.0,0.0,1.0,0.0,0.0,0.0,1.0
1463504476960515187,565,1463504476955535764,,3.2672252655,0.553038358688,-175.900253296,0.00981699954718,1.0,0.0,0.0,0.0,1.0,0.0,0.0,0.0,1.0,-7.56097555161,0.0609756112099,0.731707334518,1.0,0.0,0.0,0.0,1.0,0.0,0.0,0.0,1.0,-0.905008227539,-0.3064578125,-10.2328178955,1.0,0.0,0.0,0.0,1.0,0.0,0.0,0.0,1.0
1463504477011741514,566,1463504476964276875,,3.15053272247,0.569200634956,-175.887908936,0.0101169999689,1.0,0.0,0.0,0.0,1.0,0.0,0.0,0.0,1.0,-7.92682981491,0.609756112099,1.09756100178,1.0,0.0,0.0,0.0,1.0,0.0,0.0,0.0,1.0,-0.9193734375,0.100556469727,-10.1897222656,1.0,0.0,0.0,0.0,1.0,0.0,0.0,0.0,1.0
1463504477014513461,567,1463504476974964500,,3.04379200935,0.589804828167,-175.880142212,0.0110250003636,1.0,0.0,0.0,0.0,1.0,0.0,0.0,0.0,1.0,-7.74390268326,0.12195122242,0.609756112099,1.0,0.0,0.0,0.0,1.0,0.0,0.0,0.0,1.0,-0.785298144531,-0.181959326172,-10.2088758789,1.0,0.0,0.0,0.0,1.0,0.0,0.0,0.0,1.0
1463504477014672715,568,1463504476985032294,,2.94338917732,0.600294232368,-175.870773315,0.0102709997445,1.0,0.0,0.0,0.0,1.0,0.0,0.0,0.0,1.0,-7.74390268326,-0.304878056049,0.853658556938,1.0,0.0,0.0,0.0,1.0,0.0,0.0,0.0,1.0,-0.847547387695,-0.143652099609,-10.1035310059,1.0,0.0,0.0,0.0,1.0,0.0,0.0,0.0,1.0
1463504477015025178,569,1463504476994807776,,2.8512134552,0.614946246147,-175.865219116,0.00955600012094,1.0,0.0,0.0,0.0,1.0,0.0,0.0,0.0,1.0,-7.68292665482,0.609756112099,0.487804889679,1.0,0.0,0.0,0.0,1.0,0.0,0.0,0.0,1.0,-0.92416184082,-0.138863696289,-10.1322614258,1.0,0.0,0.0,0.0,1.0,0.0,0.0,0.0,1.0
1463504477017757649,570,1463504477004762665,,2.74631142616,0.628743350506,-175.858963013,0.00954100023955,1.0,0.0,0.0,0.0,1.0,0.0,0.0,0.0,1.0,-8.10975551605,0.12195122242,0.609756112099,1.0,0.0,0.0,0.0,1.0,0.0,0.0,0.0,1.0,-0.847547387695,0.0430956298828,-10.1226846191,1.0,0.0,0.0,0.0,1.0,0.0,0.0,0.0,1.0
1463504477018172657,571,1463504477015924093,,2.63208842278,0.647214353085,-175.854949951,0.0111899999902,1.0,0.0,0.0,0.0,1.0,0.0,0.0,0.0,1.0,-7.92682981491,0.426829278469,0.304878056049,1.0,0.0,0.0,0.0,1.0,0.0,0.0,0.0,1.0,-0.876277807617,-0.0478840332031,-10.2471831055,1.0,0.0,0.0,0.0,1.0,0.0,0.0,0.0,1.0
1463504477124187237,572,1463504477024436786,,2.53385686874,0.664040744305,-175.849700928,0.00900200009346,1.0,0.0,0.0,0.0,1.0,0.0,0.0,0.0,1.0,-7.74390268326,0.548780500889,0.548780500889,1.0,0.0,0.0,0.0,1.0,0.0,0.0,0.0,1.0,-0.852335791016,0.134075302102,-10.2328178955,1.0,0.0,0.0,0.0,1.0,0.0,0.0,0.0,1.0
1463504477124580789,573,1463504477032492186,,2.42656779289,0.687374174595,-175.846038818,0.0101209999993,1.0,0.0,0.0,0.0,1.0,0.0,0.0,0.0,1.0,-7.01219511032,0.12195122242,0.365853667259,1.0,0.0,0.0,0.0,1.0,0.0,0.0,0.0,1.0,-0.703895288086,0.229843359375,-10.3812583984,1.0,0.0,0.0,0.0,1.0,0.0,0.0,0.0,1.0
1463504477126929968,574,1463504477044735944,,2.30981969833,0.708616733551,-175.846328735,0.0106549998745,1.0,0.0,0.0,0.0,1.0,0.0,0.0,0.0,1.0,-6.82926845551,0.12195122242,-0.0,1.0,0.0,0.0,0.0,1.0,0.0,0.0,0.0,1.0,-0.742202514648,0.339976635742,-10.1274730225,1.0,0.0,0.0,0.0,1.0,0.0,0.0,0.0,1.0
1463504477127379660,575,1463504477054483925,,2.21105742455,0.724894464016,-175.85395813,0.00953899975866,1.0,0.0,0.0,0.0,1.0,0.0,0.0,0.0,1.0,-5.85365867615,-0.304878056049,-0.731707334518,1.0,0.0,0.0,0.0,1.0,0.0,0.0,0.0,1.0,-0.727837304687,0.430956298828,-10.2567599121,1.0,0.0,0.0,0.0,1.0,0.0,0.0,0.0,1.0
1463504477127699470,576,1463504477066152171,,2.11519479752,0.750189781189,-175.861740112,0.0100999996066,1.0,0.0,0.0,0.0,1.0,0.0,0.0,0.0,1.0,-5.36585378647,0.670731723309,-0.731707334518,1.0,0.0,0.0,0.0,1.0,0.0,0.0,0.0,1.0,-0.751779321289,0.378283862305,-10.1897222656,1.0,0.0,0.0,0.0,1.0,0.0,0.0,0.0,1.0
1463504477127937309,577,1463504477074745482,,2.01990842819,0.762836635113,-175.867004395,0.0101009998471,1.0,0.0,0.0,0.0,1.0,0.0,0.0,0.0,1.0,-5.12195110321,-0.426829278469,-0.426829278469,1.0,0.0,0.0,0.0,1.0,0.0,0.0,0.0,1.0,-0.775721337891,0.430956298828,-10.2184526855,1.0,0.0,0.0,0.0,1.0,0.0,0.0,0.0,1.0
1463504477128212593,578,1463504477083720783,,1.93952703476,0.789041340351,-175.872756958,0.0106640001759,1.0,0.0,0.0,0.0,1.0,0.0,0.0,0.0,1.0,-4.32926845551,0.670731723309,-0.487804889679,1.0,0.0,0.0,0.0,1.0,0.0,0.0,0.0,1.0,-0.742202514648,0.244208569336,-10.0652237793,1.0,0.0,0.0,0.0,1.0,0.0,0.0,0.0,1.0
1463504477129832630,579,1463504477093871065,,1.86886584759,0.793066501617,-175.878112793,0.0101469997317,1.0,0.0,0.0,0.0,1.0,0.0,0.0,0.0,1.0,-3.65853667259,-0.426829278469,-0.426829278469,1.0,0.0,0.0,0.0,1.0,0.0,0.0,0.0,1.0,-0.91458503418,0.277727392578,-10.1131078125,1.0,0.0,0.0,0.0,1.0,0.0,0.0,0.0,1.0
1463504477130210923,580,1463504477104647635,,1.80190587044,0.816136777401,-175.878234863,0.00949199963361,1.0,0.0,0.0,0.0,1.0,0.0,0.0,0.0,1.0,-3.59756112099,0.670731723309,0.0609756112099,1.0,0.0,0.0,0.0,1.0,0.0,0.0,0.0,1.0,-0.737414111328,0.316034619141,-10.0508585693,1.0,0.0,0.0,0.0,1.0,0.0,0.0,0.0,1.0
1463504477130582759,581,1463504477114716675,,1.73540747166,0.832375526428,-175.884643555,0.010553999804,1.0,0.0,0.0,0.0,1.0,0.0,0.0,0.0,1.0,-2.86585378647,-0.365853667259,-0.487804889679,1.0,0.0,0.0,0.0,1.0,0.0,0.0,0.0,1.0,-0.718260498047,0.325611425781,-10.1609918457,1.0,0.0,0.0,0.0,1.0,0.0,0.0,0.0,1.0
1463504477133696701,582,1463504477124654479,,1.66604471207,0.848576247692,-175.888763428,0.010048000142,1.0,0.0,0.0,0.0,1.0,0.0,0.0,0.0,1.0,-2.92682933807,0.609756112099,-0.304878056049,1.0,0.0,0.0,0.0,1.0,0.0,0.0,0.0,1.0,-0.876277807617,0.435744702148,-10.1418382324,1.0,0.0,0.0,0.0,1.0,0.0,0.0,0.0,1.0
1463504477411796067,583,1463504477134590877,,1.60871398449,0.86645668745,-175.894866943,0.0107880001888,1.0,0.0,0.0,0.0,1.0,0.0,0.0,0.0,1.0,-1.8292683363,-0.426829278469,-0.426829278469,1.0,0.0,0.0,0.0,1.0,0.0,0.0,0.0,1.0,-0.689530078125,0.363918652344,-10.314220752,1.0,0.0,0.0,0.0,1.0,0.0,0.0,0.0,1.0
1463504477412134469,584,1463504477144458168,,1.55771577358,0.881640553474,-175.89491272,0.00899199955165,1.0,0.0,0.0,0.0,1.0,0.0,0.0,0.0,1.0,-1.76829278469,0.365853667259,0.12195122242,1.0,0.0,0.0,0.0,1.0,0.0,0.0,0.0,1.0,-0.809240161133,0.445321508789,-10.1322614258,1.0,0.0,0.0,0.0,1.0,0.0,0.0,0.0,1.0
1463504477412239145,585,1463504477154685212,,1.50830030441,0.8881534338,-175.8959198,0.0107289999723,1.0,0.0,0.0,0.0,1.0,0.0,0.0,0.0,1.0,-1.03658533096,-0.609756112099,0.0609756112099,1.0,0.0,0.0,0.0,1.0,0.0,0.0,0.0,1.0,-0.833182177734,0.397437475586,-10.2232410889,1.0,0.0,0.0,0.0,1.0,0.0,0.0,0.0,1.0
1463504477416456304,586,1463504477165182437,,1.46144855022,0.905306220055,-175.896057129,0.0101840002462,1.0,0.0,0.0,0.0,1.0,0.0,0.0,0.0,1.0,-1.09756100178,0.365853667259,0.12195122242,1.0,0.0,0.0,0.0,1.0,0.0,0.0,0.0,1.0,-0.809240161133,0.392649072266,-10.1753570557,1.0,0.0,0.0,0.0,1.0,0.0,0.0,0.0,1.0
1463504477416804601,587,1463504477174551134,,1.42833852768,0.907601177692,-175.898284912,0.0100199999288,1.0,0.0,0.0,0.0,1.0,0.0,0.0,0.0,1.0,-0.304878056049,-0.731707334518,-0.0609756112099,1.0,0.0,0.0,0.0,1.0,0.0,0.0,0.0,1.0,-0.876277807617,0.31124621582,-10.2280294922,1.0,0.0,0.0,0.0,1.0,0.0,0.0,0.0,1.0
1463504477417108110,588,1463504477185180584,,1.39535987377,0.921042025089,-175.900878906,0.00974499993026,1.0,0.0,0.0,0.0,1.0,0.0,0.0,0.0,1.0,-0.243902444839,0.243902444839,-0.12195122242,1.0,0.0,0.0,0.0,1.0,0.0,0.0,0.0,1.0,-0.837970581055,0.339976635742,-10.1514150391,1.0,0.0,0.0,0.0,1.0,0.0,0.0,0.0,1.0
1463504477418627689,589,1463504477194792069,,1.36678898335,0.927706897259,-175.906539917,0.0105210002512,1.0,0.0,0.0,0.0,1.0,0.0,0.0,0.0,1.0,0.609756112099,-0.548780500889,-0.365853667259,1.0,0.0,0.0,0.0,1.0,0.0,0.0,0.0,1.0,-0.828393774414,0.378283862305,-10.1514150391,1.0,0.0,0.0,0.0,1.0,0.0,0.0,0.0,1.0
1463504477419034834,590,1463504477204605980,,1.34005594254,0.938861966133,-175.910446167,0.0094050001353,1.0,0.0,0.0,0.0,1.0,0.0,0.0,0.0,1.0,0.853658556938,-0.12195122242,-0.243902444839,1.0,0.0,0.0,0.0,1.0,0.0,0.0,0.0,1.0,-0.794874951172,0.445321508789,-10.0317049561,1.0,0.0,0.0,0.0,1.0,0.0,0.0,0.0,1.0
1463504477419376777,591,1463504477214418016,,1.32766366005,0.940145611763,-175.912246704,0.0101169999689,1.0,0.0,0.0,0.0,1.0,0.0,0.0,0.0,1.0,1.70731711388,-0.853658556938,-0.0,1.0,0.0,0.0,0.0,1.0,0.0,0.0,0.0,1.0,-0.866701000977,0.320823022461,-10.2328178955,1.0,0.0,0.0,0.0,1.0,0.0,0.0,0.0,1.0
1463504477419637739,592,1463504477225411542,,1.31260454655,0.959307968616,-175.917251587,0.0104839997366,1.0,0.0,0.0,0.0,1.0,0.0,0.0,0.0,1.0,2.07317066193,-0.0609756112099,-0.304878056049,1.0,0.0,0.0,0.0,1.0,0.0,0.0,0.0,1.0,-0.694318481445,0.421379492187,-10.1131078125,1.0,0.0,0.0,0.0,1.0,0.0,0.0,0.0,1.0
1463504477419702576,593,1463504477235075833,,1.3127976656,0.970942914486,-175.920272827,0.010332999751,1.0,0.0,0.0,0.0,1.0,0.0,0.0,0.0,1.0,2.80487799644,-0.365853667259,-0.12195122242,1.0,0.0,0.0,0.0,1.0,0.0,0.0,0.0,1.0,-0.76614453125,0.296881024126,-10.180145459,1.0,0.0,0.0,0.0,1.0,0.0,0.0,0.0,1.0
1463504477419749706,594,1463504477245213876,,1.3201675415,0.975109696388,-175.923324585,0.0101159997284,1.0,0.0,0.0,0.0,1.0,0.0,0.0,0.0,1.0,3.84146332741,-0.609756112099,-0.12195122242,1.0,0.0,0.0,0.0,1.0,0.0,0.0,0.0,1.0,-0.857124194336,0.359130249023,-10.2711251221,1.0,0.0,0.0,0.0,1.0,0.0,0.0,0.0,1.0
1463504477419785952,595,1463504477255510289,,1.33034026623,0.986276268959,-175.930740356,0.0101739997044,1.0,0.0,0.0,0.0,1.0,0.0,0.0,0.0,1.0,4.08536577225,-0.487804889679,-0.548780500889,1.0,0.0,0.0,0.0,1.0,0.0,0.0,0.0,1.0,-0.751779321289,0.349553442383,-10.2280294922,1.0,0.0,0.0,0.0,1.0,0.0,0.0,0.0,1.0
1463504477420047800,596,1463504477264761186,,1.34094130993,0.997970223427,-175.934707642,0.00938399974257,1.0,0.0,0.0,0.0,1.0,0.0,0.0,0.0,1.0,4.69512224197,-0.243902444839,-0.243902444839,1.0,0.0,0.0,0.0,1.0,0.0,0.0,0.0,1.0,-0.76614453125,0.435744702148,-10.2280294922,1.0,0.0,0.0,0.0,1.0,0.0,0.0,0.0,1.0
1463504477420089774,597,1463504477275727944,,1.36393094063,1.00315237045,-175.938964844,0.010111999698,1.0,0.0,0.0,0.0,1.0,0.0,0.0,0.0,1.0,5.48780488968,-0.426829278469,-0.243902444839,1.0,0.0,0.0,0.0,1.0,0.0,0.0,0.0,1.0,-0.871489404297,0.373495458984,-10.314220752,1.0,0.0,0.0,0.0,1.0,0.0,0.0,0.0,1.0
1463504477421540350,598,1463504477286659706,,1.39023149014,1.01496124268,-175.944595337,0.0102669997141,1.0,0.0,0.0,0.0,1.0,0.0,0.0,0.0,1.0,5.97560977936,-0.548780500889,-0.365853667259,1.0,0.0,0.0,0.0,1.0,0.0,0.0,0.0,1.0,-0.718260498047,0.397437475586,-10.1226846191,1.0,0.0,0.0,0.0,1.0,0.0,0.0,0.0,1.0
1463504477423316829,599,1463504477296142037,,1.42941617966,1.02403390408,-175.948364258,0.0106440000236,1.0,0.0,0.0,0.0,1.0,0.0,0.0,0.0,1.0,6.82926845551,-0.426829278469,-0.18292683363,1.0,0.0,0.0,0.0,1.0,0.0,0.0,0.0,1.0,-0.799663354492,0.349553442383,-10.2376062988,1.0,0.0,0.0,0.0,1.0,0.0,0.0,0.0,1.0
1463504477424955614,600,1463504477305497455,,1.46875071526,1.02518236637,-175.954040527,0.00938399974257,1.0,0.0,0.0,0.0,1.0,0.0,0.0,0.0,1.0,7.07317113876,-0.975609779358,-0.426829278469,1.0,0.0,0.0,0.0,1.0,0.0,0.0,0.0,1.0,-0.828393774414,0.292092584273,-10.1897222656,1.0,0.0,0.0,0.0,1.0,0.0,0.0,0.0,1.0
1463504477426520501,601,1463504477315635134,,1.5200124979,1.03135550022,-175.962463379,0.0101290000603,1.0,0.0,0.0,0.0,1.0,0.0,0.0,0.0,1.0,7.74390268326,-0.548780500889,-0.670731723309,1.0,0.0,0.0,0.0,1.0,0.0,0.0,0.0,1.0,-0.804451757813,0.244208569336,-10.0125513428,1.0,0.0,0.0,0.0,1.0,0.0,0.0,0.0,1.0
1463504477426989827,602,1463504477325727140,,1.57153356075,1.02976095676,-175.970977783,0.0100959995762,1.0,0.0,0.0,0.0,1.0,0.0,0.0,0.0,1.0,8.04878044128,-0.975609779358,-0.670731723309,1.0,0.0,0.0,0.0,1.0,0.0,0.0,0.0,1.0,-0.881066210937,0.287304199219,-10.2088758789,1.0,0.0,0.0,0.0,1.0,0.0,0.0,0.0,1.0
1463504477427047112,603,1463504477335583703,,1.63058328629,1.03133761883,-175.977416992,0.0100689996034,1.0,0.0,0.0,0.0,1.0,0.0,0.0,0.0,1.0,8.47560977936,-0.731707334518,-0.487804889679,1.0,0.0,0.0,0.0,1.0,0.0,0.0,0.0,1.0,-0.857124194336,0.215478149414,-10.0843773926,1.0,0.0,0.0,0.0,1.0,0.0,0.0,0.0,1.0
1463504477428428685,604,1463504477345948702,,1.69766485691,1.03185319901,-175.982498169,0.0101009998471,1.0,0.0,0.0,0.0,1.0,0.0,0.0,0.0,1.0,8.90243911743,-0.670731723309,-0.365853667259,1.0,0.0,0.0,0.0,1.0,0.0,0.0,0.0,1.0,-0.890643017578,0.143652099609,-10.1370498291,1.0,0.0,0.0,0.0,1.0,0.0,0.0,0.0,1.0
1463504477428477534,605,1463504477356791306,,1.76469230652,1.04077517986,-175.986328125,0.0102279996499,1.0,0.0,0.0,0.0,1.0,0.0,0.0,0.0,1.0,9.08536529541,-0.548780500889,-0.243902444839,1.0,0.0,0.0,0.0,1.0,0.0,0.0,0.0,1.0,-0.77093293457,0.181959326172,-10.2376062988,1.0,0.0,0.0,0.0,1.0,0.0,0.0,0.0,1.0
1463504477428735580,606,1463504477366499135,,1.82991266251,1.04612982273,-175.992767334,0.0103810001165,1.0,0.0,0.0,0.0,1.0,0.0,0.0,0.0,1.0,8.96341514587,-0.670731723309,-0.487804889679,1.0,0.0,0.0,0.0,1.0,0.0,0.0,0.0,1.0,-0.814028564453,0.196324536133,-10.2423947021,1.0,0.0,0.0,0.0,1.0,0.0,0.0,0.0,1.0
1463504477428777554,607,1463504477377358664,,1.90152335167,1.04900169373,-175.99887085,0.00994099956006,1.0,0.0,0.0,0.0,1.0,0.0,0.0,0.0,1.0,9.51219558716,-0.914634168148,-0.487804889679,1.0,0.0,0.0,0.0,1.0,0.0,0.0,0.0,1.0,-0.794874951172,0.114921679688,-10.046070166,1.0,0.0,0.0,0.0,1.0,0.0,0.0,0.0,1.0
1463504477429085074,608,1463504477389609714,,1.97053325176,1.05519962311,-176.006668091,0.00990999955684,1.0,0.0,0.0,0.0,1.0,0.0,0.0,0.0,1.0,9.39024448395,-0.731707334518,-0.670731723309,1.0,0.0,0.0,0.0,1.0,0.0,0.0,0.0,1.0,-0.780509741211,0.124498486328,-10.2136642822,1.0,0.0,0.0,0.0,1.0,0.0,0.0,0.0,1.0
1463504477429368481,609,1463504477398477631,,2.04954910278,1.06066167355,-176.014877319,0.0106359999627,1.0,0.0,0.0,0.0,1.0,0.0,0.0,0.0,1.0,9.20731735229,-0.853658556938,-0.670731723309,1.0,0.0,0.0,0.0,1.0,0.0,0.0,0.0,1.0,-0.76135612793,-0.00478840332031,-9.99339772949,1.0,0.0,0.0,0.0,1.0,0.0,0.0,0.0,1.0
1463504477429676834,610,1463504477409450794,,2.12597846985,1.05812907219,-176.020568848,0.0111090000719,1.0,0.0,0.0,0.0,1.0,0.0,0.0,0.0,1.0,8.23170757294,-0.914634168148,-0.426829278469,1.0,0.0,0.0,0.0,1.0,0.0,0.0,0.0,1.0,-0.905008227539,-0.0957680664062,-10.2807019287,1.0,0.0,0.0,0.0,1.0,0.0,0.0,0.0,1.0
1463504477704605963,611,1463504477417176801,,2.18645691872,1.0592290163,-176.025268555,0.0085199996829,1.0,0.0,0.0,0.0,1.0,0.0,0.0,0.0,1.0,8.17073154449,-0.670731723309,-0.487804889679,1.0,0.0,0.0,0.0,1.0,0.0,0.0,0.0,1.0,-0.871489404297,-0.15801730957,-10.1178962158,1.0,0.0,0.0,0.0,1.0,0.0,0.0,0.0,1.0
1463504477704886402,612,1463504477426998992,,2.2652964592,1.06051456928,-176.024459839,0.0107009997591,1.0,0.0,0.0,0.0,1.0,0.0,0.0,0.0,1.0,6.95121955872,-1.15853655338,0.12195122242,1.0,0.0,0.0,0.0,1.0,0.0,0.0,0.0,1.0,-0.785298144531,-0.435744702148,-10.1705686523,1.0,0.0,0.0,0.0,1.0,0.0,0.0,0.0,1.0
1463504477707768806,613,1463504477438627399,,2.32624053955,1.05976355076,-176.011795044,0.0102390004322,1.0,0.0,0.0,0.0,1.0,0.0,0.0,0.0,1.0,3.53658556938,-0.853658556938,1.2195122242,1.0,0.0,0.0,0.0,1.0,0.0,0.0,0.0,1.0,-0.866701000977,-0.804451757813,-10.1370498291,1.0,0.0,0.0,0.0,1.0,0.0,0.0,0.0,1.0
1463504477709620433,614,1463504477448614937,,2.34774875641,1.06212389469,-175.984481812,0.00936499983072,1.0,0.0,0.0,0.0,1.0,0.0,0.0,0.0,1.0,-0.609756112099,-0.609756112099,2.86585378647,1.0,0.0,0.0,0.0,1.0,0.0,0.0,0.0,1.0,-0.837970581055,-0.895431420898,-10.1083194092,1.0,0.0,0.0,0.0,1.0,0.0,0.0,0.0,1.0
1463504477709684645,615,1463504477456654557,,2.33701491356,1.06300604343,-175.948898315,0.0100779999048,1.0,0.0,0.0,0.0,1.0,0.0,0.0,0.0,1.0,-3.35365867615,-0.365853667259,3.47560977936,1.0,0.0,0.0,0.0,1.0,0.0,0.0,0.0,1.0,-0.900219824219,-0.780509741211,-10.0412817627,1.0,0.0,0.0,0.0,1.0,0.0,0.0,0.0,1.0
1463504477709726776,616,1463504477466803589,,2.30287957191,1.07397401333,-175.920471191,0.0101159997284,1.0,0.0,0.0,0.0,1.0,0.0,0.0,0.0,1.0,-5.85365867615,-0.0609756112099,2.74390244484,1.0,0.0,0.0,0.0,1.0,0.0,0.0,0.0,1.0,-0.790086547852,-0.823605371094,-10.1562034424,1.0,0.0,0.0,0.0,1.0,0.0,0.0,0.0,1.0
1463504477710062417,617,1463504477477689470,,2.22685408592,1.08545148373,-175.896820068,0.0101079996675,1.0,0.0,0.0,0.0,1.0,0.0,0.0,0.0,1.0,-7.56097555161,0.18292683363,2.31707310677,1.0,0.0,0.0,0.0,1.0,0.0,0.0,0.0,1.0,-0.823605371094,-0.378283862305,-10.1466266357,1.0,0.0,0.0,0.0,1.0,0.0,0.0,0.0,1.0
1463504477710408631,618,1463504477488308191,,2.1276140213,1.10496509075,-175.892822266,0.0106859998778,1.0,0.0,0.0,0.0,1.0,0.0,0.0,0.0,1.0,-6.28048801422,0.243902444839,0.426829278469,1.0,0.0,0.0,0.0,1.0,0.0,0.0,0.0,1.0,-0.727837304687,0.177170922852,-10.2423947021,1.0,0.0,0.0,0.0,1.0,0.0,0.0,0.0,1.0
1463504477712058248,619,1463504477498815831,,2.03910255432,1.12425601482,-175.908859253,0.0112079996616,1.0,0.0,0.0,0.0,1.0,0.0,0.0,0.0,1.0,-3.84146332741,0.365853667259,-1.34146344662,1.0,0.0,0.0,0.0,1.0,0.0,0.0,0.0,1.0,-0.76614453125,0.373495458984,-10.0795889893,1.0,0.0,0.0,0.0,1.0,0.0,0.0,0.0,1.0
1463504477712118242,620,1463504477508229264,,1.97017657757,1.14078104496,-175.934585571,0.00839500036091,1.0,0.0,0.0,0.0,1.0,0.0,0.0,0.0,1.0,-2.98780488968,0.304878056049,-2.92682933807,1.0,0.0,0.0,0.0,1.0,0.0,0.0,0.0,1.0,-0.737414111328,0.60812722168,-10.3573163818,1.0,0.0,0.0,0.0,1.0,0.0,0.0,0.0,1.0
1463504477712452425,621,1463504477518852620,,1.89070689678,1.16510534286,-175.952178955,0.0100969998166,1.0,0.0,0.0,0.0,1.0,0.0,0.0,0.0,1.0,-1.8292683363,0.304878056049,-1.58536589146,1.0,0.0,0.0,0.0,1.0,0.0,0.0,0.0,1.0,-0.636857641602,0.76614453125,-10.2232410889,1.0,0.0,0.0,0.0,1.0,0.0,0.0,0.0,1.0
1463504477712890869,622,1463504477528966760,,1.82251560688,1.1825363636,-175.942687988,0.0108869997784,1.0,0.0,0.0,0.0,1.0,0.0,0.0,0.0,1.0,-0.975609779358,-0.487804889679,1.03658533096,1.0,0.0,0.0,0.0,1.0,0.0,0.0,0.0,1.0,-0.61770402832,0.651222851562,-10.2040874756,1.0,0.0,0.0,0.0,1.0,0.0,0.0,0.0,1.0
1463504477713344571,623,1463504477539912687,,1.8029769659,1.20968747139,-175.946456909,0.0111029995605,1.0,0.0,0.0,0.0,1.0,0.0,0.0,0.0,1.0,0.426829278469,0.18292683363,-0.243902444839,1.0,0.0,0.0,0.0,1.0,0.0,0.0,0.0,1.0,-0.579396801758,0.0957680664062,-10.0412817627,1.0,0.0,0.0,0.0,1.0,0.0,0.0,0.0,1.0
1463504477713681566,624,1463504477549752324,,1.79074537754,1.22124755383,-175.951522827,0.00833899993449,1.0,0.0,0.0,0.0,1.0,0.0,0.0,0.0,1.0,1.09756100178,-0.243902444839,-0.487804889679,1.0,0.0,0.0,0.0,1.0,0.0,0.0,0.0,1.0,-0.718260498047,0.172382519531,-10.4770264648,1.0,0.0,0.0,0.0,1.0,0.0,0.0,0.0,1.0
1463504477713976587,625,1463504477559072069,,1.78180706501,1.24302005768,-175.964675903,0.0100830001757,1.0,0.0,0.0,0.0,1.0,0.0,0.0,0.0,1.0,2.56097555161,-0.243902444839,-1.15853655338,1.0,0.0,0.0,0.0,1.0,0.0,0.0,0.0,1.0,-0.560243188477,0.325611425781,-10.1753570557,1.0,0.0,0.0,0.0,1.0,0.0,0.0,0.0,1.0
1463504477714270462,626,1463504477570570906,,1.77989113331,1.25526082516,-175.984085083,0.0108780004084,1.0,0.0,0.0,0.0,1.0,0.0,0.0,0.0,1.0,3.04878044128,0.0,-1.64634156227,1.0,0.0,0.0,0.0,1.0,0.0,0.0,0.0,1.0,-0.780509741211,0.282515795898,-10.046070166,1.0,0.0,0.0,0.0,1.0,0.0,0.0,0.0,1.0
1463504477717638648,627,1463504477580472464,,1.77239084244,1.26538956165,-176.003204346,0.00933200027794,1.0,0.0,0.0,0.0,1.0,0.0,0.0,0.0,1.0,3.04878044128,-0.18292683363,-1.8902438879,1.0,0.0,0.0,0.0,1.0,0.0,0.0,0.0,1.0,-0.780509741211,0.407014282227,-10.4004120117,1.0,0.0,0.0,0.0,1.0,0.0,0.0,0.0,1.0
1463504477717709630,628,1463504477589292209,,1.7719540596,1.28359341621,-176.021362305,0.0101079996675,1.0,0.0,0.0,0.0,1.0,0.0,0.0,0.0,1.0,3.35365867615,-0.18292683363,-1.64634156227,1.0,0.0,0.0,0.0,1.0,0.0,0.0,0.0,1.0,-0.636857641602,0.320823022461,-10.2759135254,1.0,0.0,0.0,0.0,1.0,0.0,0.0,0.0,1.0
1463504477720692492,629,1463504477599391455,,1.76001369953,1.2932472229,-176.034393311,0.0107890004292,1.0,0.0,0.0,0.0,1.0,0.0,0.0,0.0,1.0,2.98780488968,-0.426829278469,-1.03658533096,1.0,0.0,0.0,0.0,1.0,0.0,0.0,0.0,1.0,-0.742202514648,0.445321508789,-10.1418382324,1.0,0.0,0.0,0.0,1.0,0.0,0.0,0.0,1.0
1463504477720744882,630,1463504477610108187,,1.75130486488,1.30463516712,-176.038391113,0.00941400043666,1.0,0.0,0.0,0.0,1.0,0.0,0.0,0.0,1.0,3.59756112099,-0.487804889679,-0.243902444839,1.0,0.0,0.0,0.0,1.0,0.0,0.0,0.0,1.0,-0.679953271484,0.536301208408,-10.3190091553,1.0,0.0,0.0,0.0,1.0,0.0,0.0,0.0,1.0
1463504477720777848,631,1463504477619201341,,1.74298131466,1.30529606342,-176.038452148,0.0101979998872,1.0,0.0,0.0,0.0,1.0,0.0,0.0,0.0,1.0,4.08536577225,-0.487804889679,0.18292683363,1.0,0.0,0.0,0.0,1.0,0.0,0.0,0.0,1.0,-0.876277807617,0.603338854892,-10.1945106689,1.0,0.0,0.0,0.0,1.0,0.0,0.0,0.0,1.0
1463504477720829249,632,1463504477631076544,,1.76094138622,1.30458164215,-176.03288269,0.0112509997562,1.0,0.0,0.0,0.0,1.0,0.0,0.0,0.0,1.0,5.73170757294,-0.670731723309,0.670731723309,1.0,0.0,0.0,0.0,1.0,0.0,0.0,0.0,1.0,-0.857124194336,0.46447512207,-10.1274730225,1.0,0.0,0.0,0.0,1.0,0.0,0.0,0.0,1.0
1463504477721143174,633,1463504477640251877,,1.7784525156,1.30198478699,-176.032272339,0.00916799996048,1.0,0.0,0.0,0.0,1.0,0.0,0.0,0.0,1.0,6.15853643417,-0.670731723309,0.243902444839,1.0,0.0,0.0,0.0,1.0,0.0,0.0,0.0,1.0,-0.92416184082,0.493205541992,-10.4099888184,1.0,0.0,0.0,0.0,1.0,0.0,0.0,0.0,1.0
1463504477721458870,634,1463504477650887576,,1.80771183968,1.30193722248,-176.036895752,0.0106819998473,1.0,0.0,0.0,0.0,1.0,0.0,0.0,0.0,1.0,7.68292665482,-0.487804889679,-0.243902444839,1.0,0.0,0.0,0.0,1.0,0.0,0.0,0.0,1.0,-0.905008227539,0.612915625,-10.3477395752,1.0,0.0,0.0,0.0,1.0,0.0,0.0,0.0,1.0
1463504477723430849,635,1463504477661037545,,1.86394274235,1.29736542702,-176.041946411,0.0106509998441,1.0,0.0,0.0,0.0,1.0,0.0,0.0,0.0,1.0,9.39024448395,-0.548780500889,-0.304878056049,1.0,0.0,0.0,0.0,1.0,0.0,0.0,0.0,1.0,-0.952892260742,0.445321508789,-10.1418382324,1.0,0.0,0.0,0.0,1.0,0.0,0.0,0.0,1.0
1463504477723805444,636,1463504477668809641,,1.92506706715,1.29305505753,-176.04800415,0.00865299999714,1.0,0.0,0.0,0.0,1.0,0.0,0.0,0.0,1.0,9.93902492523,-1.03658533096,-0.548780500889,1.0,0.0,0.0,0.0,1.0,0.0,0.0,0.0,1.0,-0.876277807617,0.210689746094,-10.1178962158,1.0,0.0,0.0,0.0,1.0,0.0,0.0,0.0,1.0
1463504477724111350,637,1463504477679626154,,1.99519062042,1.28941690922,-176.058013916,0.0100859999657,1.0,0.0,0.0,0.0,1.0,0.0,0.0,0.0,1.0,10.0,-0.731707334518,-0.853658556938,1.0,0.0,0.0,0.0,1.0,0.0,0.0,0.0,1.0,-0.909796630859,0.229843359375,-10.1226846191,1.0,0.0,0.0,0.0,1.0,0.0,0.0,0.0,1.0
1463504477724393455,638,1463504477689035733,,2.07443833351,1.28999984264,-176.063568115,0.0100999996066,1.0,0.0,0.0,0.0,1.0,0.0,0.0,0.0,1.0,10.3658542633,-0.853658556938,-0.426829278469,1.0,0.0,0.0,0.0,1.0,0.0,0.0,0.0,1.0,-0.814028564453,0.124498486328,-10.1753570557,1.0,0.0,0.0,0.0,1.0,0.0,0.0,0.0,1.0
1463504478068564880,639,1463504477699598523,,2.16422319412,1.29043149948,-176.066482544,0.010540000163,1.0,0.0,0.0,0.0,1.0,0.0,0.0,0.0,1.0,10.3658542633,-0.731707334518,-0.18292683363,1.0,0.0,0.0,0.0,1.0,0.0,0.0,0.0,1.0,-0.833182177734,-0.00957680664062,-10.1226846191,1.0,0.0,0.0,0.0,1.0,0.0,0.0,0.0,1.0
1463504478070041025,640,1463504477711252812,,2.25716972351,1.28454554081,-176.066116333,0.0109369996935,1.0,0.0,0.0,0.0,1.0,0.0,0.0,0.0,1.0,9.81707286835,-1.2195122242,0.12195122242,1.0,0.0,0.0,0.0,1.0,0.0,0.0,0.0,1.0,-0.852335791016,-0.119710083008,-10.180145459,1.0,0.0,0.0,0.0,1.0,0.0,0.0,0.0,1.0
1463504478070395936,641,1463504477720090889,,2.32679367065,1.28401398659,-176.067840576,0.00884899962693,1.0,0.0,0.0,0.0,1.0,0.0,0.0,0.0,1.0,9.39024448395,-0.914634168148,-0.12195122242,1.0,0.0,0.0,0.0,1.0,0.0,0.0,0.0,1.0,-0.823605371094,-0.100556469727,-10.180145459,1.0,0.0,0.0,0.0,1.0,0.0,0.0,0.0,1.0
1463504478072161061,642,1463504477729463024,,2.40652441978,1.28488206863,-176.074737549,0.0100819999352,1.0,0.0,0.0,0.0,1.0,0.0,0.0,0.0,1.0,9.45121955872,-1.03658533096,-0.609756112099,1.0,0.0,0.0,0.0,1.0,0.0,0.0,0.0,1.0,-0.77093293457,-0.110133276367,-10.0748005859,1.0,0.0,0.0,0.0,1.0,0.0,0.0,0.0,1.0
1463504478072222409,643,1463504477740203764,,2.48916292191,1.28013384342,-176.082672119,0.0100959995762,1.0,0.0,0.0,0.0,1.0,0.0,0.0,0.0,1.0,9.08536529541,-1.09756100178,-0.731707334518,1.0,0.0,0.0,0.0,1.0,0.0,0.0,0.0,1.0,-0.861912597656,-0.239420166016,-10.0843773926,1.0,0.0,0.0,0.0,1.0,0.0,0.0,0.0,1.0
1463504478072549926,644,1463504477750375241,,2.56591272354,1.28304433823,-176.08984375,0.0102970004082,1.0,0.0,0.0,0.0,1.0,0.0,0.0,0.0,1.0,8.29268264771,-0.670731723309,-0.670731723309,1.0,0.0,0.0,0.0,1.0,0.0,0.0,0.0,1.0,-0.814028564453,-0.268150604204,-10.2184526855,1.0,0.0,0.0,0.0,1.0,0.0,0.0,0.0,1.0
1463504478075112935,645,1463504477761759559,,2.63082718849,1.2813397646,-176.095657349,0.0099189998582,1.0,0.0,0.0,0.0,1.0,0.0,0.0,0.0,1.0,7.50000047684,-1.03658533096,-0.548780500889,1.0,0.0,0.0,0.0,1.0,0.0,0.0,0.0,1.0,-0.823605371094,-0.258573779297,-10.1514150391,1.0,0.0,0.0,0.0,1.0,0.0,0.0,0.0,1.0
1463504478075526121,646,1463504477771758399,,2.69324946404,1.28565597534,-176.099304199,0.0100969998166,1.0,0.0,0.0,0.0,1.0,0.0,0.0,0.0,1.0,6.46341466904,-0.670731723309,-0.365853667259,1.0,0.0,0.0,0.0,1.0,0.0,0.0,0.0,1.0,-0.76614453125,-0.383072265625,-9.95987890625,1.0,0.0,0.0,0.0,1.0,0.0,0.0,0.0,1.0
1463504478075825568,647,1463504477783475546,,2.75121045113,1.28601408005,-176.09034729,0.0121990004554,1.0,0.0,0.0,0.0,1.0,0.0,0.0,0.0,1.0,5.06097555161,-0.914634168148,0.731707334518,1.0,0.0,0.0,0.0,1.0,0.0,0.0,0.0,1.0,-0.799663354492,-0.392649072266,-10.1705686523,1.0,0.0,0.0,0.0,1.0,0.0,0.0,0.0,1.0
1463504478076146680,648,1463504477790019126,,2.78116559982,1.290386796,-176.079284668,0.00800300016999,1.0,0.0,0.0,0.0,1.0,0.0,0.0,0.0,1.0,3.41463422775,-0.609756112099,1.34146344662,1.0,0.0,0.0,0.0,1.0,0.0,0.0,0.0,1.0,-0.751779321289,-0.512359155273,-10.1131078125,1.0,0.0,0.0,0.0,1.0,0.0,0.0,0.0,1.0
1463504478076475083,649,1463504477801136649,,2.79307675362,1.2922321558,-176.057434082,0.0104649998248,1.0,0.0,0.0,0.0,1.0,0.0,0.0,0.0,1.0,1.8292683363,-0.792682945728,2.07317066193,1.0,0.0,0.0,0.0,1.0,0.0,0.0,0.0,1.0,-0.785298144531,-0.335188232422,-10.2136642822,1.0,0.0,0.0,0.0,1.0,0.0,0.0,0.0,1.0
1463504478076758386,650,1463504477812096532,,2.79809403419,1.30591154099,-176.042831421,0.0097359996289,1.0,0.0,0.0,0.0,1.0,0.0,0.0,0.0,1.0,1.15853655338,-0.365853667259,1.46341466904,1.0,0.0,0.0,0.0,1.0,0.0,0.0,0.0,1.0,-0.646434448242,-0.349553442383,-10.2471831055,1.0,0.0,0.0,0.0,1.0,0.0,0.0,0.0,1.0
1463504478081475229,651,1463504477823280872,,2.79097294807,1.30570447445,-176.033752441,0.0101110003889,1.0,0.0,0.0,0.0,1.0,0.0,0.0,0.0,1.0,1.03658533096,-0.853658556938,0.914634168148,1.0,0.0,0.0,0.0,1.0,0.0,0.0,0.0,1.0,-0.818816967773,-0.15322890625,-10.2328178955,1.0,0.0,0.0,0.0,1.0,0.0,0.0,0.0,1.0
1463504478081837431,652,1463504477830456728,,2.78298354149,1.31660401821,-176.029327393,0.0101030003279,1.0,0.0,0.0,0.0,1.0,0.0,0.0,0.0,1.0,1.2195122242,-0.12195122242,0.426829278469,1.0,0.0,0.0,0.0,1.0,0.0,0.0,0.0,1.0,-0.756567724609,-0.105344873047,-10.2423947021,1.0,0.0,0.0,0.0,1.0,0.0,0.0,0.0,1.0
1463504478083443510,653,1463504477842155231,,2.7710647583,1.31704676151,-176.036773682,0.0116860000417,1.0,0.0,0.0,0.0,1.0,0.0,0.0,0.0,1.0,1.58536589146,-0.487804889679,-0.609756112099,1.0,0.0,0.0,0.0,1.0,0.0,0.0,0.0,1.0,-0.890643017578,0.0,-10.2807019287,1.0,0.0,0.0,0.0,1.0,0.0,0.0,0.0,1.0
1463504478083832115,654,1463504477850702089,,2.75992703438,1.3206859827,-176.044769287,0.00851400010288,1.0,0.0,0.0,0.0,1.0,0.0,0.0,0.0,1.0,2.01219511032,-0.0609756112099,-0.914634168148,1.0,0.0,0.0,0.0,1.0,0.0,0.0,0.0,1.0,-0.885854614258,0.129286889648,-10.1131078125,1.0,0.0,0.0,0.0,1.0,0.0,0.0,0.0,1.0
1463504478084170464,655,1463504477863158898,,2.74771237373,1.3265144825,-176.047607422,0.0100929997861,1.0,0.0,0.0,0.0,1.0,0.0,0.0,0.0,1.0,1.76829278469,-0.487804889679,-0.243902444839,1.0,0.0,0.0,0.0,1.0,0.0,0.0,0.0,1.0,-0.77093293457,0.0718260498047,-10.0556469727,1.0,0.0,0.0,0.0,1.0,0.0,0.0,0.0,1.0
1463504478084463298,656,1463504477870841940,,2.73896312714,1.32988250256,-176.048492432,0.010111999698,1.0,0.0,0.0,0.0,1.0,0.0,0.0,0.0,1.0,2.01219511032,-0.304878056049,-0.0609756112099,1.0,0.0,0.0,0.0,1.0,0.0,0.0,0.0,1.0,-0.852335791016,0.0574608398438,-10.1466266357,1.0,0.0,0.0,0.0,1.0,0.0,0.0,0.0,1.0
1463504478084738738,657,1463504477883096270,,2.72362399101,1.33974957466,-176.045501709,0.0115970000625,1.0,0.0,0.0,0.0,1.0,0.0,0.0,0.0,1.0,2.19512200356,-0.426829278469,0.304878056049,1.0,0.0,0.0,0.0,1.0,0.0,0.0,0.0,1.0,-0.742202514648,0.177170922852,-10.2759135254,1.0,0.0,0.0,0.0,1.0,0.0,0.0,0.0,1.0
1463504478085012042,658,1463504477893722075,,2.7186319828,1.3431251049,-176.044204712,0.00974399968982,1.0,0.0,0.0,0.0,1.0,0.0,0.0,0.0,1.0,2.92682933807,-0.487804889679,0.18292683363,1.0,0.0,0.0,0.0,1.0,0.0,0.0,0.0,1.0,-0.809240161133,0.162805712891,-10.1035310059,1.0,0.0,0.0,0.0,1.0,0.0,0.0,0.0,1.0
1463504478085244830,659,1463504477902844184,,2.7240588665,1.34951639175,-176.044036865,0.0100149996579,1.0,0.0,0.0,0.0,1.0,0.0,0.0,0.0,1.0,3.59756112099,-0.487804889679,0.0609756112099,1.0,0.0,0.0,0.0,1.0,0.0,0.0,0.0,1.0,-0.77093293457,0.0957680664062,-10.2950671387,1.0,0.0,0.0,0.0,1.0,0.0,0.0,0.0,1.0
1463504478086564690,660,1463504477912711787,,2.73897004128,1.35637366772,-176.045318604,0.00905099976808,1.0,0.0,0.0,0.0,1.0,0.0,0.0,0.0,1.0,3.84146332741,-0.426829278469,-0.12195122242,1.0,0.0,0.0,0.0,1.0,0.0,0.0,0.0,1.0,-0.751779321289,-0.0622492431641,-10.1753570557,1.0,0.0,0.0,0.0,1.0,0.0,0.0,0.0,1.0
1463504478086921006,661,1463504477923640893,,2.75913763046,1.36377763748,-176.045608521,0.0108869997784,1.0,0.0,0.0,0.0,1.0,0.0,0.0,0.0,1.0,3.90243911743,-0.670731723309,-0.0,1.0,0.0,0.0,0.0,1.0,0.0,0.0,0.0,1.0,-0.723048901367,-0.0909796630859,-10.2280294922,1.0,0.0,0.0,0.0,1.0,0.0,0.0,0.0,1.0
1463504478087258470,662,1463504477934049897,,2.77085089684,1.36268305779,-176.045349121,0.00930900033563,1.0,0.0,0.0,0.0,1.0,0.0,0.0,0.0,1.0,3.53658556938,-0.731707334518,0.0609756112099,1.0,0.0,0.0,0.0,1.0,0.0,0.0,0.0,1.0,-0.857124194336,-0.0526724365234,-10.2471831055,1.0,0.0,0.0,0.0,1.0,0.0,0.0,0.0,1.0
1463504478088720919,663,1463504477942793713,,2.78568744659,1.36627614498,-176.046798706,0.0104649998248,1.0,0.0,0.0,0.0,1.0,0.0,0.0,0.0,1.0,3.65853667259,-0.426829278469,-0.12195122242,1.0,0.0,0.0,0.0,1.0,0.0,0.0,0.0,1.0,-0.828393774414,-0.0622492431641,-10.2232410889,1.0,0.0,0.0,0.0,1.0,0.0,0.0,0.0,1.0
1463504478090126604,664,1463504477953114185,,2.79433941841,1.36849534512,-176.049453735,0.00973199959844,1.0,0.0,0.0,0.0,1.0,0.0,0.0,0.0,1.0,3.59756112099,-0.487804889679,-0.243902444839,1.0,0.0,0.0,0.0,1.0,0.0,0.0,0.0,1.0,-0.823605371094,0.0191536132812,-10.0317049561,1.0,0.0,0.0,0.0,1.0,0.0,0.0,0.0,1.0
1463504478091786063,665,1463504477962790975,,2.80921316147,1.37186670303,-176.050369263,0.010108999908,1.0,0.0,0.0,0.0,1.0,0.0,0.0,0.0,1.0,3.84146332741,-0.670731723309,-0.0609756112099,1.0,0.0,0.0,0.0,1.0,0.0,0.0,0.0,1.0,-0.785298144531,-0.0430956298828,-10.2376062988,1.0,0.0,0.0,0.0,1.0,0.0,0.0,0.0,1.0
1463504478093819025,666,1463504477975433337,,2.8265182972,1.37763333321,-176.052352905,0.010095000267,1.0,0.0,0.0,0.0,1.0,0.0,0.0,0.0,1.0,3.96341490746,-0.426829278469,-0.18292683363,1.0,0.0,0.0,0.0,1.0,0.0,0.0,0.0,1.0,-0.775721337891,-0.067037651051,-10.0891657959,1.0,0.0,0.0,0.0,1.0,0.0,0.0,0.0,1.0
1463504478094212472,667,1463504477983661113,,2.83991527557,1.37847816944,-176.055206299,0.0108110001311,1.0,0.0,0.0,0.0,1.0,0.0,0.0,0.0,1.0,3.71951246262,-0.487804889679,-0.243902444839,1.0,0.0,0.0,0.0,1.0,0.0,0.0,0.0,1.0,-0.852335791016,-0.0287304199219,-10.0795889893,1.0,0.0,0.0,0.0,1.0,0.0,0.0,0.0,1.0
1463504478095797825,668,1463504477994951379,,2.85283041,1.38356566429,-176.055297852,0.0118599999696,1.0,0.0,0.0,0.0,1.0,0.0,0.0,0.0,1.0,3.29268312454,-0.426829278469,-0.0,1.0,0.0,0.0,0.0,1.0,0.0,0.0,0.0,1.0,-0.814028564453,-0.0814028564453,-10.2902787354,1.0,0.0,0.0,0.0,1.0,0.0,0.0,0.0,1.0
1463504478096228092,669,1463504478002422048,,2.86229157448,1.38703978062,-176.054275513,0.00761599978432,1.0,0.0,0.0,0.0,1.0,0.0,0.0,0.0,1.0,2.80487799644,-0.365853667259,0.12195122242,1.0,0.0,0.0,0.0,1.0,0.0,0.0,0.0,1.0,-0.804451757813,-0.196324536133,-10.1131078125,1.0,0.0,0.0,0.0,1.0,0.0,0.0,0.0,1.0
1463504478096284544,670,1463504478012538531,,2.87715768814,1.39080584049,-176.050262451,0.0101789999753,1.0,0.0,0.0,0.0,1.0,0.0,0.0,0.0,1.0,2.92682933807,-0.12195122242,0.365853667259,1.0,0.0,0.0,0.0,1.0,0.0,0.0,0.0,1.0,-0.866701000977,-0.215478149414,-10.180145459,1.0,0.0,0.0,0.0,1.0,0.0,0.0,0.0,1.0
1463504478096606958,671,1463504478022607982,,2.88189601898,1.39196360111,-176.048416138,0.0100320000201,1.0,0.0,0.0,0.0,1.0,0.0,0.0,0.0,1.0,2.13414645195,-0.609756112099,0.18292683363,1.0,0.0,0.0,0.0,1.0,0.0,0.0,0.0,1.0,-0.837970581055,-0.186747729492,-10.3381627686,1.0,0.0,0.0,0.0,1.0,0.0,0.0,0.0,1.0
1463504478096917967,672,1463504478032820911,,2.88272428513,1.39538156986,-176.047698975,0.0101330000907,1.0,0.0,0.0,0.0,1.0,0.0,0.0,0.0,1.0,1.70731711388,-0.426829278469,0.0609756112099,1.0,0.0,0.0,0.0,1.0,0.0,0.0,0.0,1.0,-0.818816967773,-0.191536132812,-10.1753570557,1.0,0.0,0.0,0.0,1.0,0.0,0.0,0.0,1.0
1463504478097234131,673,1463504478042879739,,2.88311886787,1.40376186371,-176.048080444,0.0101030003279,1.0,0.0,0.0,0.0,1.0,0.0,0.0,0.0,1.0,1.40243899822,-0.304878056049,-0.0609756112099,1.0,0.0,0.0,0.0,1.0,0.0,0.0,0.0,1.0,-0.751779321289,-0.239420166016,-10.1705686523,1.0,0.0,0.0,0.0,1.0,0.0,0.0,0.0,1.0
1463504478097537380,674,1463504478053111519,,2.88098359108,1.40873754025,-176.046020508,0.0101420003921,1.0,0.0,0.0,0.0,1.0,0.0,0.0,0.0,1.0,1.15853655338,-0.365853667259,0.18292683363,1.0,0.0,0.0,0.0,1.0,0.0,0.0,0.0,1.0,-0.790086547852,-0.234631762695,-10.060435376,1.0,0.0,0.0,0.0,1.0,0.0,0.0,0.0,1.0
1463504478099058000,675,1463504478065485259,,2.86887025833,1.41427791119,-176.04914856,0.0106229996309,1.0,0.0,0.0,0.0,1.0,0.0,0.0,0.0,1.0,0.731707334518,-0.243902444839,-0.304878056049,1.0,0.0,0.0,0.0,1.0,0.0,0.0,0.0,1.0,-0.818816967773,-0.148440512063,-10.1753570557,1.0,0.0,0.0,0.0,1.0,0.0,0.0,0.0,1.0
1463504478100765163,676,1463504478073223709,,2.85862827301,1.4216285944,-176.053619385,0.00960700027645,1.0,0.0,0.0,0.0,1.0,0.0,0.0,0.0,1.0,0.548780500889,-0.12195122242,-0.487804889679,1.0,0.0,0.0,0.0,1.0,0.0,0.0,0.0,1.0,-0.790086547852,-0.191536132812,-10.0795889893,1.0,0.0,0.0,0.0,1.0,0.0,0.0,0.0,1.0
1463504478105293953,677,1463504478082893569,,2.84170818329,1.43525063992,-176.053482056,0.0099950004369,1.0,0.0,0.0,0.0,1.0,0.0,0.0,0.0,1.0,0.12195122242,-0.18292683363,-0.0,1.0,0.0,0.0,0.0,1.0,0.0,0.0,0.0,1.0,-0.670376464844,-0.15322890625,-10.1466266357,1.0,0.0,0.0,0.0,1.0,0.0,0.0,0.0,1.0
1463504478495930285,678,1463504478094833604,,2.81801962852,1.44778859615,-176.052246094,0.010108999908,1.0,0.0,0.0,0.0,1.0,0.0,0.0,0.0,1.0,-0.304878056049,-0.304878056049,0.12195122242,1.0,0.0,0.0,0.0,1.0,0.0,0.0,0.0,1.0,-0.670376464844,-0.110133276367,-10.1992990723,1.0,0.0,0.0,0.0,1.0,0.0,0.0,0.0,1.0
1463504478497112243,679,1463504478105240261,,2.78900408745,1.45906126499,-176.05355835,0.0110360002145,1.0,0.0,0.0,0.0,1.0,0.0,0.0,0.0,1.0,-0.792682945728,-0.243902444839,-0.12195122242,1.0,0.0,0.0,0.0,1.0,0.0,0.0,0.0,1.0,-0.723048901367,-0.143652099609,-10.2280294922,1.0,0.0,0.0,0.0,1.0,0.0,0.0,0.0,1.0
1463504478497431428,680,1463504478114718943,,2.75718975067,1.47048830986,-176.05255127,0.00916600041091,1.0,0.0,0.0,0.0,1.0,0.0,0.0,0.0,1.0,-1.2195122242,-0.304878056049,0.12195122242,1.0,0.0,0.0,0.0,1.0,0.0,0.0,0.0,1.0,-0.665588061523,-0.0622492431641,-10.2088758789,1.0,0.0,0.0,0.0,1.0,0.0,0.0,0.0,1.0
1463504478497762851,681,1463504478123761995,,2.72621297836,1.48218631744,-176.052658081,0.0103129995987,1.0,0.0,0.0,0.0,1.0,0.0,0.0,0.0,1.0,-1.09756100178,-0.365853667259,-0.0,1.0,0.0,0.0,0.0,1.0,0.0,0.0,0.0,1.0,-0.675164868164,-0.119710083008,-10.2280294922,1.0,0.0,0.0,0.0,1.0,0.0,0.0,0.0,1.0
1463504478498055528,682,1463504478135610374,,2.6887319088,1.49602234364,-176.052856445,0.0112969996408,1.0,0.0,0.0,0.0,1.0,0.0,0.0,0.0,1.0,-1.34146344662,-0.365853667259,-0.0,1.0,0.0,0.0,0.0,1.0,0.0,0.0,0.0,1.0,-0.651222851562,-0.100556469727,-10.1418382324,1.0,0.0,0.0,0.0,1.0,0.0,0.0,0.0,1.0
1463504478499841068,683,1463504478144533386,,2.65494561195,1.50830054283,-176.05128479,0.00874600000679,1.0,0.0,0.0,0.0,1.0,0.0,0.0,0.0,1.0,-1.76829278469,0.0609756112099,0.18292683363,1.0,0.0,0.0,0.0,1.0,0.0,0.0,0.0,1.0,-0.694318481445,-0.0718260498047,-10.180145459,1.0,0.0,0.0,0.0,1.0,0.0,0.0,0.0,1.0
1463504478500177335,684,1463504478155734750,,2.60883688927,1.52124929428,-176.046157837,0.0110680004582,1.0,0.0,0.0,0.0,1.0,0.0,0.0,0.0,1.0,-2.13414645195,-0.365853667259,0.487804889679,1.0,0.0,0.0,0.0,1.0,0.0,0.0,0.0,1.0,-0.660799658203,-0.076614453125,-10.2759135254,1.0,0.0,0.0,0.0,1.0,0.0,0.0,0.0,1.0
1463504478500472876,685,1463504478165440179,,2.56633901596,1.53945219517,-176.044372559,0.0106189996004,1.0,0.0,0.0,0.0,1.0,0.0,0.0,0.0,1.0,-2.19512200356,-0.12195122242,0.18292683363,1.0,0.0,0.0,0.0,1.0,0.0,0.0,0.0,1.0,-0.603338854892,-0.110133276367,-10.2280294922,1.0,0.0,0.0,0.0,1.0,0.0,0.0,0.0,1.0
1463504478500719985,686,1463504478174029841,,2.53049349785,1.54730725288,-176.040313721,0.00855400040746,1.0,0.0,0.0,0.0,1.0,0.0,0.0,0.0,1.0,-2.5,-0.0609756112099,0.487804889679,1.0,0.0,0.0,0.0,1.0,0.0,0.0,0.0,1.0,-0.742202514648,-0.119710083008,-10.0700121826,1.0,0.0,0.0,0.0,1.0,0.0,0.0,0.0,1.0
1463504478502042970,687,1463504478184485451,,2.47711133957,1.55502319336,-176.033630371,0.0105659998953,1.0,0.0,0.0,0.0,1.0,0.0,0.0,0.0,1.0,-2.86585378647,-0.243902444839,0.670731723309,1.0,0.0,0.0,0.0,1.0,0.0,0.0,0.0,1.0,-0.737414111328,-0.0239420166016,-10.0269165527,1.0,0.0,0.0,0.0,1.0,0.0,0.0,0.0,1.0
1463504478502093225,688,1463504478194247436,,2.43111038208,1.56441557407,-176.024536133,0.00963599979877,1.0,0.0,0.0,0.0,1.0,0.0,0.0,0.0,1.0,-2.62195134163,0.0,0.975609779358,1.0,0.0,0.0,0.0,1.0,0.0,0.0,0.0,1.0,-0.732625708008,-0.0191536132812,-10.0125513428,1.0,0.0,0.0,0.0,1.0,0.0,0.0,0.0,1.0
1463504478503941362,689,1463504478205052228,,2.37411403656,1.57238233089,-176.01725769,0.0106969997287,1.0,0.0,0.0,0.0,1.0,0.0,0.0,0.0,1.0,-3.29268312454,-0.365853667259,0.731707334518,1.0,0.0,0.0,0.0,1.0,0.0,0.0,0.0,1.0,-0.718260498047,-0.0335188255255,-10.1514150391,1.0,0.0,0.0,0.0,1.0,0.0,0.0,0.0,1.0
1463504478504512135,690,1463504478215058823,,2.31730294228,1.5739825964,-176.008041382,0.0102620003745,1.0,0.0,0.0,0.0,1.0,0.0,0.0,0.0,1.0,-2.74390244484,-0.365853667259,0.975609779358,1.0,0.0,0.0,0.0,1.0,0.0,0.0,0.0,1.0,-0.828393774414,0.114921679688,-10.2328178955,1.0,0.0,0.0,0.0,1.0,0.0,0.0,0.0,1.0
1463504478504787991,691,1463504478225195091,,2.27608919144,1.57738411427,-176.00151062,0.00951899960637,1.0,0.0,0.0,0.0,1.0,0.0,0.0,0.0,1.0,-2.62195134163,-0.18292683363,0.731707334518,1.0,0.0,0.0,0.0,1.0,0.0,0.0,0.0,1.0,-0.818816967773,-0.0718260498047,-10.1370498291,1.0,0.0,0.0,0.0,1.0,0.0,0.0,0.0,1.0
1463504478505080200,692,1463504478234786887,,2.23272371292,1.57856404781,-175.997085571,0.0102030001581,1.0,0.0,0.0,0.0,1.0,0.0,0.0,0.0,1.0,-2.25609779358,0.0,0.487804889679,1.0,0.0,0.0,0.0,1.0,0.0,0.0,0.0,1.0,-0.909796630859,-0.0143652099609,-10.285490332,1.0,0.0,0.0,0.0,1.0,0.0,0.0,0.0,1.0
1463504478505369388,693,1463504478244497576,,2.19159150124,1.57958805561,-175.994094849,0.00982199981809,1.0,0.0,0.0,0.0,1.0,0.0,0.0,0.0,1.0,-2.5,-0.243902444839,0.365853667259,1.0,0.0,0.0,0.0,1.0,0.0,0.0,0.0,1.0,-0.857124194336,-0.0622492431641,-10.1562034424,1.0,0.0,0.0,0.0,1.0,0.0,0.0,0.0,1.0
1463504478505724559,694,1463504478257442036,,2.14585351944,1.57675874233,-175.992279053,0.0107620004565,1.0,0.0,0.0,0.0,1.0,0.0,0.0,0.0,1.0,-2.43902444839,-0.426829278469,0.243902444839,1.0,0.0,0.0,0.0,1.0,0.0,0.0,0.0,1.0,-0.895431420898,-0.0335188255255,-10.2040874756,1.0,0.0,0.0,0.0,1.0,0.0,0.0,0.0,1.0
1463504478506042025,695,1463504478265271414,,2.09585189819,1.57273352146,-175.993865967,0.00996599998325,1.0,0.0,0.0,0.0,1.0,0.0,0.0,0.0,1.0,-2.31707310677,-0.18292683363,-0.0609756112099,1.0,0.0,0.0,0.0,1.0,0.0,0.0,0.0,1.0,-0.967257470703,0.134075302102,-10.1897222656,1.0,0.0,0.0,0.0,1.0,0.0,0.0,0.0,1.0
1463504478506508330,696,1463504478274980228,,2.05561089516,1.56976985931,-175.994613647,0.00956999976188,1.0,0.0,0.0,0.0,1.0,0.0,0.0,0.0,1.0,-2.37804889679,-0.12195122242,-0.0,1.0,0.0,0.0,0.0,1.0,0.0,0.0,0.0,1.0,-0.957680664062,-0.0143652099609,-10.1514150391,1.0,0.0,0.0,0.0,1.0,0.0,0.0,0.0,1.0
1463504478506554731,697,1463504478285776219,,2.0111477375,1.57199764252,-175.998825073,0.0102549996227,1.0,0.0,0.0,0.0,1.0,0.0,0.0,0.0,1.0,-1.76829278469,-0.18292683363,-0.304878056049,1.0,0.0,0.0,0.0,1.0,0.0,0.0,0.0,1.0,-0.857124194336,0.124498486328,-10.1945106689,1.0,0.0,0.0,0.0,1.0,0.0,0.0,0.0,1.0
1463504478506591029,698,1463504478295260682,,1.9643368721,1.58365094662,-176.000564575,0.00998300034553,1.0,0.0,0.0,0.0,1.0,0.0,0.0,0.0,1.0,-1.76829278469,0.0,-0.0609756112099,1.0,0.0,0.0,0.0,1.0,0.0,0.0,0.0,1.0,-0.713472094727,0.196324536133,-10.1609918457,1.0,0.0,0.0,0.0,1.0,0.0,0.0,0.0,1.0
1463504478506845013,699,1463504478305377994,,1.9224319458,1.58339965343,-176.007492065,0.010095000267,1.0,0.0,0.0,0.0,1.0,0.0,0.0,0.0,1.0,-1.34146344662,-0.548780500889,-0.548780500889,1.0,0.0,0.0,0.0,1.0,0.0,0.0,0.0,1.0,-0.828393774414,0.181959326172,-10.1274730225,1.0,0.0,0.0,0.0,1.0,0.0,0.0,0.0,1.0
1463504478507119046,700,1463504478315806263,,1.88404655457,1.5906277895,-176.011825562,0.0100870002061,1.0,0.0,0.0,0.0,1.0,0.0,0.0,0.0,1.0,-1.09756100178,-0.12195122242,-0.304878056049,1.0,0.0,0.0,0.0,1.0,0.0,0.0,0.0,1.0,-0.77093293457,0.172382519531,-10.1418382324,1.0,0.0,0.0,0.0,1.0,0.0,0.0,0.0,1.0
1463504478508426616,701,1463504478325565697,,1.83872997761,1.59562826157,-176.016464233,0.010106000118,1.0,0.0,0.0,0.0,1.0,0.0,0.0,0.0,1.0,-0.853658556938,-0.12195122242,-0.304878056049,1.0,0.0,0.0,0.0,1.0,0.0,0.0,0.0,1.0,-0.809240161133,0.344765039063,-10.1274730225,1.0,0.0,0.0,0.0,1.0,0.0,0.0,0.0,1.0
1463504478508830688,702,1463504478335784977,,1.81265699863,1.60284614563,-176.022644043,0.0100940000266,1.0,0.0,0.0,0.0,1.0,0.0,0.0,0.0,1.0,-0.0609756112099,0.0609756112099,-0.487804889679,1.0,0.0,0.0,0.0,1.0,0.0,0.0,0.0,1.0,-0.804451757813,0.15322890625,-10.1609918457,1.0,0.0,0.0,0.0,1.0,0.0,0.0,0.0,1.0
1463504478509990513,703,1463504478346750169,,1.777348876,1.60594272614,-176.024307251,0.010111999698,1.0,0.0,0.0,0.0,1.0,0.0,0.0,0.0,1.0,-0.0609756112099,-0.365853667259,-0.0,1.0,0.0,0.0,0.0,1.0,0.0,0.0,0.0,1.0,-0.790086547852,0.320823022461,-10.060435376,1.0,0.0,0.0,0.0,1.0,0.0,0.0,0.0,1.0
1463504478511202051,704,1463504478356352900,,1.75345766544,1.60900712013,-176.026397705,0.0100840004161,1.0,0.0,0.0,0.0,1.0,0.0,0.0,0.0,1.0,0.304878056049,-0.304878056049,-0.0609756112099,1.0,0.0,0.0,0.0,1.0,0.0,0.0,0.0,1.0,-0.799663354492,0.191536132812,-10.046070166,1.0,0.0,0.0,0.0,1.0,0.0,0.0,0.0,1.0
1463504478511557430,705,1463504478366102179,,1.73109769821,1.60742163658,-176.029281616,0.0101349996403,1.0,0.0,0.0,0.0,1.0,0.0,0.0,0.0,1.0,0.609756112099,-0.670731723309,-0.12195122242,1.0,0.0,0.0,0.0,1.0,0.0,0.0,0.0,1.0,-0.833182177734,0.225054956055,-10.2567599121,1.0,0.0,0.0,0.0,1.0,0.0,0.0,0.0,1.0
1463504478511841098,706,1463504478376039042,,1.7111415863,1.61414265633,-176.033370972,0.0101669998839,1.0,0.0,0.0,0.0,1.0,0.0,0.0,0.0,1.0,0.914634168148,-0.304878056049,-0.243902444839,1.0,0.0,0.0,0.0,1.0,0.0,0.0,0.0,1.0,-0.751779321289,0.239420166016,-10.2615483154,1.0,0.0,0.0,0.0,1.0,0.0,0.0,0.0,1.0
1463504478512115079,707,1463504478386094277,,1.68509268761,1.61700725555,-176.040679932,0.0100130001083,1.0,0.0,0.0,0.0,1.0,0.0,0.0,0.0,1.0,1.03658533096,-0.243902444839,-0.548780500889,1.0,0.0,0.0,0.0,1.0,0.0,0.0,0.0,1.0,-0.828393774414,0.378283862305,-10.2088758789,1.0,0.0,0.0,0.0,1.0,0.0,0.0,0.0,1.0
1463504478512386873,708,1463504478396174354,,1.67617857456,1.61650049686,-176.04776001,0.0101020000875,1.0,0.0,0.0,0.0,1.0,0.0,0.0,0.0,1.0,1.76829278469,-0.12195122242,-0.548780500889,1.0,0.0,0.0,0.0,1.0,0.0,0.0,0.0,1.0,-0.895431420898,0.201112939453,-10.0317049561,1.0,0.0,0.0,0.0,1.0,0.0,0.0,0.0,1.0
1463504478512837086,709,1463504478406316456,,1.66455507278,1.61921358109,-176.051956177,0.0100929997861,1.0,0.0,0.0,0.0,1.0,0.0,0.0,0.0,1.0,1.8292683363,-0.426829278469,-0.243902444839,1.0,0.0,0.0,0.0,1.0,0.0,0.0,0.0,1.0,-0.799663354492,0.268150604204,-10.2615483154,1.0,0.0,0.0,0.0,1.0,0.0,0.0,0.0,1.0
1463504478512884164,710,1463504478416384086,,1.6587908268,1.62138330936,-176.058517456,0.0100929997861,1.0,0.0,0.0,0.0,1.0,0.0,0.0,0.0,1.0,2.19512200356,-0.304878056049,-0.487804889679,1.0,0.0,0.0,0.0,1.0,0.0,0.0,0.0,1.0,-0.814028564453,0.225054956055,-10.0269165527,1.0,0.0,0.0,0.0,1.0,0.0,0.0,0.0,1.0
1463504478512920931,711,1463504478426540457,,1.64548623562,1.62196946144,-176.064956665,0.0101039996371,1.0,0.0,0.0,0.0,1.0,0.0,0.0,0.0,1.0,2.86585378647,-0.487804889679,-0.426829278469,1.0,0.0,0.0,0.0,1.0,0.0,0.0,0.0,1.0,-0.818816967773,0.483628735352,-10.1418382324,1.0,0.0,0.0,0.0,1.0,0.0,0.0,0.0,1.0
1463504478516230788,712,1463504478436543875,,1.6486620903,1.62050509453,-176.073104858,0.0100969998166,1.0,0.0,0.0,0.0,1.0,0.0,0.0,0.0,1.0,3.84146332741,-0.609756112099,-0.609756112099,1.0,0.0,0.0,0.0,1.0,0.0,0.0,0.0,1.0,-0.837970581055,0.368707055664,-10.1945106689,1.0,0.0,0.0,0.0,1.0,0.0,0.0,0.0,1.0
1463504478516560076,713,1463504478446622077,,1.6361335516,1.61565470695,-176.086929321,0.0101100001484,1.0,0.0,0.0,0.0,1.0,0.0,0.0,0.0,1.0,4.81707286835,-0.548780500889,-1.09756100178,1.0,0.0,0.0,0.0,1.0,0.0,0.0,0.0,1.0,-0.9193734375,0.828393774414,-10.2280294922,1.0,0.0,0.0,0.0,1.0,0.0,0.0,0.0,1.0
1463504478517944825,714,1463504478456662210,,1.66078174114,1.62037169933,-176.105316162,0.0100870002061,1.0,0.0,0.0,0.0,1.0,0.0,0.0,0.0,1.0,7.37804937363,-0.426829278469,-1.58536589146,1.0,0.0,0.0,0.0,1.0,0.0,0.0,0.0,1.0,-0.77093293457,0.622492431641,-10.2423947021,1.0,0.0,0.0,0.0,1.0,0.0,0.0,0.0,1.0
1463504478518313953,715,1463504478466983563,,1.69686102867,1.61798560619,-176.123626709,0.0100999996066,1.0,0.0,0.0,0.0,1.0,0.0,0.0,0.0,1.0,9.81707286835,-0.975609779358,-1.52439022064,1.0,0.0,0.0,0.0,1.0,0.0,0.0,0.0,1.0,-0.799663354492,0.857124194336,-10.2328178955,1.0,0.0,0.0,0.0,1.0,0.0,0.0,0.0,1.0
1463504478518603818,716,1463504478476999584,,1.74678647518,1.61609375477,-176.148132324,0.0101669998839,1.0,0.0,0.0,0.0,1.0,0.0,0.0,0.0,1.0,11.2195119858,-0.487804889679,-2.13414645195,1.0,0.0,0.0,0.0,1.0,0.0,0.0,0.0,1.0,-0.881066210937,0.857124194336,-10.1992990723,1.0,0.0,0.0,0.0,1.0,0.0,0.0,0.0,1.0
1463504478519771194,717,1463504478487468370,,1.8189085722,1.60752689838,-176.162872314,0.010158999823,1.0,0.0,0.0,0.0,1.0,0.0,0.0,0.0,1.0,13.3536586761,-1.46341466904,-1.15853655338,1.0,0.0,0.0,0.0,1.0,0.0,0.0,0.0,1.0,-0.814028564453,0.837970581055,-10.1466266357,1.0,0.0,0.0,0.0,1.0,0.0,0.0,0.0,1.0
1463504478572734952,718,1463504478497324877,,1.914919734,1.60483968258,-176.174301147,0.00999100040644,1.0,0.0,0.0,0.0,1.0,0.0,0.0,0.0,1.0,14.6341466904,-0.853658556938,-0.914634168148,1.0,0.0,0.0,0.0,1.0,0.0,0.0,0.0,1.0,-0.818816967773,0.603338854892,-10.1466266357,1.0,0.0,0.0,0.0,1.0,0.0,0.0,0.0,1.0
1463504478573141836,719,1463504478507277936,,2.02388763428,1.5909050703,-176.179763794,0.0101009998471,1.0,0.0,0.0,0.0,1.0,0.0,0.0,0.0,1.0,15.7317075729,-1.46341466904,-0.304878056049,1.0,0.0,0.0,0.0,1.0,0.0,0.0,0.0,1.0,-0.890643017578,0.565031591797,-9.95987890625,1.0,0.0,0.0,0.0,1.0,0.0,0.0,0.0,1.0
1463504478573610172,720,1463504478517370667,,2.14898872375,1.58057320118,-176.186065674,0.0101039996371,1.0,0.0,0.0,0.0,1.0,0.0,0.0,0.0,1.0,16.6463413239,-1.2195122242,-0.426829278469,1.0,0.0,0.0,0.0,1.0,0.0,0.0,0.0,1.0,-0.885854614258,0.430956298828,-10.1131078125,1.0,0.0,0.0,0.0,1.0,0.0,0.0,0.0,1.0
1463504478573662406,721,1463504478527630985,,2.28708124161,1.56708335876,-176.193008423,0.010095000267,1.0,0.0,0.0,0.0,1.0,0.0,0.0,0.0,1.0,17.9268302917,-1.64634156227,-0.487804889679,1.0,0.0,0.0,0.0,1.0,0.0,0.0,0.0,1.0,-0.861912597656,0.402225878906,-10.0412817627,1.0,0.0,0.0,0.0,1.0,0.0,0.0,0.0,1.0
1463504478573699850,722,1463504478537649975,,2.44508600235,1.55552423,-176.205734253,0.0101169999689,1.0,0.0,0.0,0.0,1.0,0.0,0.0,0.0,1.0,19.1463432312,-1.40243899822,-1.09756100178,1.0,0.0,0.0,0.0,1.0,0.0,0.0,0.0,1.0,-0.885854614258,0.248996972656,-10.1418382324,1.0,0.0,0.0,0.0,1.0,0.0,0.0,0.0,1.0
1463504478575240572,723,1463504478548165787,,2.61512899399,1.53771138191,-176.216583252,0.0100800003856,1.0,0.0,0.0,0.0,1.0,0.0,0.0,0.0,1.0,20.1829280853,-1.95121955872,-0.914634168148,1.0,0.0,0.0,0.0,1.0,0.0,0.0,0.0,1.0,-0.895431420898,0.181959326172,-10.0795889893,1.0,0.0,0.0,0.0,1.0,0.0,0.0,0.0,1.0
1463504478575589128,724,1463504478557887308,,2.7917547226,1.53059720993,-176.232818604,0.0101070003584,1.0,0.0,0.0,0.0,1.0,0.0,0.0,0.0,1.0,21.0975627899,-1.64634156227,-1.46341466904,1.0,0.0,0.0,0.0,1.0,0.0,0.0,0.0,1.0,-0.775721337891,0.205901342773,-10.1945106689,1.0,0.0,0.0,0.0,1.0,0.0,0.0,0.0,1.0
1463504478575913781,725,1463504478567830576,,2.98359107971,1.52400302887,-176.251876831,0.0100999996066,1.0,0.0,0.0,0.0,1.0,0.0,0.0,0.0,1.0,22.1951236725,-1.70731711388,-1.76829278469,1.0,0.0,0.0,0.0,1.0,0.0,0.0,0.0,1.0,-0.751779321289,0.0957680664062,-10.0795889893,1.0,0.0,0.0,0.0,1.0,0.0,0.0,0.0,1.0
1463504478613956986,726,1463504478578065168,,3.17932605743,1.51379299164,-176.274734497,0.0100959995762,1.0,0.0,0.0,0.0,1.0,0.0,0.0,0.0,1.0,23.2317085266,-1.8902438879,-2.13414645195,1.0,0.0,0.0,0.0,1.0,0.0,0.0,0.0,1.0,-0.799663354492,0.177170922852,-10.2136642822,1.0,0.0,0.0,0.0,1.0,0.0,0.0,0.0,1.0
1463504478614336529,727,1463504478588281584,,3.39123392105,1.50792908669,-176.30128479,0.0101870000362,1.0,0.0,0.0,0.0,1.0,0.0,0.0,0.0,1.0,24.5121955872,-1.8292683363,-2.5,1.0,0.0,0.0,0.0,1.0,0.0,0.0,0.0,1.0,-0.732625708008,0.114921679688,-10.1322614258,1.0,0.0,0.0,0.0,1.0,0.0,0.0,0.0,1.0
1463504478614385535,728,1463504478598453058,,3.59246277809,1.5015925169,-176.320709229,0.0100239999592,1.0,0.0,0.0,0.0,1.0,0.0,0.0,0.0,1.0,24.8780498505,-1.76829278469,-1.8292683363,1.0,0.0,0.0,0.0,1.0,0.0,0.0,0.0,1.0,-0.751779321289,0.277727392578,-10.1609918457,1.0,0.0,0.0,0.0,1.0,0.0,0.0,0.0,1.0
1463504478614666286,729,1463504478608779306,,3.80911779404,1.4960590601,-176.339172363,0.0101300003007,1.0,0.0,0.0,0.0,1.0,0.0,0.0,0.0,1.0,26.3414649963,-2.07317066193,-1.70731711388,1.0,0.0,0.0,0.0,1.0,0.0,0.0,0.0,1.0,-0.679953271484,0.268150604204,-10.1274730225,1.0,0.0,0.0,0.0,1.0,0.0,0.0,0.0,1.0
1463504478653742038,730,1463504478618419534,,4.03650045395,1.49252569675,-176.357513428,0.0100689996034,1.0,0.0,0.0,0.0,1.0,0.0,0.0,0.0,1.0,27.9878063202,-2.19512200356,-1.70731711388,1.0,0.0,0.0,0.0,1.0,0.0,0.0,0.0,1.0,-0.627280834961,0.31124621582,-10.1609918457,1.0,0.0,0.0,0.0,1.0,0.0,0.0,0.0,1.0
1463504478654060962,731,1463504478628675165,,4.28324842453,1.4839502573,-176.374572754,0.0101009998471,1.0,0.0,0.0,0.0,1.0,0.0,0.0,0.0,1.0,29.7560997009,-2.31707310677,-1.58536589146,1.0,0.0,0.0,0.0,1.0,0.0,0.0,0.0,1.0,-0.684741674805,0.253785375977,-9.99818613281,1.0,0.0,0.0,0.0,1.0,0.0,0.0,0.0,1.0
1463504478654337131,732,1463504478639257897,,4.54498529434,1.4690656662,-176.383209229,0.010098000057,1.0,0.0,0.0,0.0,1.0,0.0,0.0,0.0,1.0,30.8536605835,-2.98780488968,-0.731707334518,1.0,0.0,0.0,0.0,1.0,0.0,0.0,0.0,1.0,-0.665588061523,0.143652099609,-9.96466730957,1.0,0.0,0.0,0.0,1.0,0.0,0.0,0.0,1.0
1463504478654626996,733,1463504478648866097,,4.82437610626,1.46597015858,-176.386535645,0.0101020000875,1.0,0.0,0.0,0.0,1.0,0.0,0.0,0.0,1.0,31.9512214661,-2.25609779358,-0.304878056049,1.0,0.0,0.0,0.0,1.0,0.0,0.0,0.0,1.0,-0.598550451572,-0.0143652099609,-10.2136642822,1.0,0.0,0.0,0.0,1.0,0.0,0.0,0.0,1.0
1463504478700460364,734,1463504478659266869,,5.11530208588,1.44707500935,-176.386444092,0.0101450001821,1.0,0.0,0.0,0.0,1.0,0.0,0.0,0.0,1.0,32.9268302917,-2.80487799644,0.0609756112099,1.0,0.0,0.0,0.0,1.0,0.0,0.0,0.0,1.0,-0.751779321289,-0.067037651051,-9.86889924316,1.0,0.0,0.0,0.0,1.0,0.0,0.0,0.0,1.0
1463504478700736221,735,1463504478668796639,,5.41287279129,1.4358445406,-176.388244629,0.0100579997525,1.0,0.0,0.0,0.0,1.0,0.0,0.0,0.0,1.0,34.0853691101,-2.37804889679,-0.18292683363,1.0,0.0,0.0,0.0,1.0,0.0,0.0,0.0,1.0,-0.713472094727,-0.076614453125,-10.0317049561,1.0,0.0,0.0,0.0,1.0,0.0,0.0,0.0,1.0
1463504478701013431,736,1463504478679225898,,5.71827697754,1.42119002342,-176.389480591,0.0101250000298,1.0,0.0,0.0,0.0,1.0,0.0,0.0,0.0,1.0,35.3048782349,-2.5,-0.12195122242,1.0,0.0,0.0,0.0,1.0,0.0,0.0,0.0,1.0,-0.751779321289,-0.0143652099609,-10.0269165527,1.0,0.0,0.0,0.0,1.0,0.0,0.0,0.0,1.0
1463504478701313191,737,1463504478689076259,,6.03370857239,1.40146481991,-176.386978149,0.0100830001757,1.0,0.0,0.0,0.0,1.0,0.0,0.0,0.0,1.0,36.4024391174,-2.68292689323,0.243902444839,1.0,0.0,0.0,0.0,1.0,0.0,0.0,0.0,1.0,-0.818816967773,-0.0718260498047,-10.1897222656,1.0,0.0,0.0,0.0,1.0,0.0,0.0,0.0,1.0
1463504478735049613,738,1463504478699524109,,6.37067222595,1.38499855995,-176.379333496,0.0101009998471,1.0,0.0,0.0,0.0,1.0,0.0,0.0,0.0,1.0,38.1707305908,-3.35365867615,0.792682945728,1.0,0.0,0.0,0.0,1.0,0.0,0.0,0.0,1.0,-0.627280834961,-0.181959326172,-10.1274730225,1.0,0.0,0.0,0.0,1.0,0.0,0.0,0.0,1.0
1463504478735303596,739,1463504478710226099,,6.7281255722,1.35793399811,-176.374237061,0.0101640000939,1.0,0.0,0.0,0.0,1.0,0.0,0.0,0.0,1.0,39.5731735229,-3.17073178291,0.487804889679,1.0,0.0,0.0,0.0,1.0,0.0,0.0,0.0,1.0,-0.857124194336,-0.316034619141,-10.1562034424,1.0,0.0,0.0,0.0,1.0,0.0,0.0,0.0,1.0
1463504478735534770,740,1463504478719677962,,7.08818387985,1.32295024395,-176.356658936,0.0100929997861,1.0,0.0,0.0,0.0,1.0,0.0,0.0,0.0,1.0,40.1829299927,-3.65853667259,1.76829278469,1.0,0.0,0.0,0.0,1.0,0.0,0.0,0.0,1.0,-0.866701000977,-0.344765039063,-9.86411083984,1.0,0.0,0.0,0.0,1.0,0.0,0.0,0.0,1.0
1463504478735769432,741,1463504478729982910,,7.45630598068,1.28390371799,-176.329727173,0.0100640002638,1.0,0.0,0.0,0.0,1.0,0.0,0.0,0.0,1.0,41.6463432312,-4.02439022064,2.74390244484,1.0,0.0,0.0,0.0,1.0,0.0,0.0,0.0,1.0,-0.871489404297,-0.31124621582,-10.0269165527,1.0,0.0,0.0,0.0,1.0,0.0,0.0,0.0,1.0
1463504478778501827,742,1463504478741047362,,7.88315296173,1.2585413456,-176.32661438,0.0100849997252,1.0,0.0,0.0,0.0,1.0,0.0,0.0,0.0,1.0,44.7560997009,-3.23170733452,0.18292683363,1.0,0.0,0.0,0.0,1.0,0.0,0.0,0.0,1.0,-0.837970581055,-0.861912597656,-10.0748005859,1.0,0.0,0.0,0.0,1.0,0.0,0.0,0.0,1.0
1463504478778763570,743,1463504478750358822,,8.34816837311,1.23727595806,-176.354019165,0.0103940004483,1.0,0.0,0.0,0.0,1.0,0.0,0.0,0.0,1.0,47.0121994019,-3.65853667259,-2.74390244484,1.0,0.0,0.0,0.0,1.0,0.0,0.0,0.0,1.0,-0.751779321289,-0.972045874023,-10.0077629395,1.0,0.0,0.0,0.0,1.0,0.0,0.0,0.0,1.0
1463504478778993702,744,1463504478760583884,,8.79848861694,1.2122604847,-176.380966187,0.00981300044805,1.0,0.0,0.0,0.0,1.0,0.0,0.0,0.0,1.0,47.8048782349,-3.41463422775,-2.92682933807,1.0,0.0,0.0,0.0,1.0,0.0,0.0,0.0,1.0,-0.900219824219,-1.12048637695,-10.0221281494,1.0,0.0,0.0,0.0,1.0,0.0,0.0,0.0,1.0
1463504478779235604,745,1463504478769829674,,9.26305580139,1.18401479721,-176.404815674,0.0100769996643,1.0,0.0,0.0,0.0,1.0,0.0,0.0,0.0,1.0,47.8048782349,-3.53658556938,-2.56097555161,1.0,0.0,0.0,0.0,1.0,0.0,0.0,0.0,1.0,-0.928950244141,-1.24498486328,-10.0843773926,1.0,0.0,0.0,0.0,1.0,0.0,0.0,0.0,1.0
1463504478831871375,746,1463504478780341788,,9.72709465027,1.15579068661,-176.429840088,0.0101610003039,1.0,0.0,0.0,0.0,1.0,0.0,0.0,0.0,1.0,47.5609779358,-3.53658556938,-2.68292689323,1.0,0.0,0.0,0.0,1.0,0.0,0.0,0.0,1.0,-0.9193734375,-1.26892687988,-9.88805285645,1.0,0.0,0.0,0.0,1.0,0.0,0.0,0.0,1.0
1463504478832153689,747,1463504478790058570,,10.1890382767,1.11703026295,-176.452102661,0.0100360000506,1.0,0.0,0.0,0.0,1.0,0.0,0.0,0.0,1.0,47.0731697083,-3.7804877758,-2.43902444839,1.0,0.0,0.0,0.0,1.0,0.0,0.0,0.0,1.0,-1.06302561017,-1.4844050293,-9.77791958008,1.0,0.0,0.0,0.0,1.0,0.0,0.0,0.0,1.0
1463504478832419547,748,1463504478800469758,,10.6398963928,1.0793569088,-176.451248169,0.0101399999112,1.0,0.0,0.0,0.0,1.0,0.0,0.0,0.0,1.0,44.8780479431,-3.96341490746,-0.12195122242,1.0,0.0,0.0,0.0,1.0,0.0,0.0,0.0,1.0,-0.938527050781,-1.66157595215,-9.73003554687,1.0,0.0,0.0,0.0,1.0,0.0,0.0,0.0,1.0
1463504478832717588,749,1463504478810649824,,11.1179704666,1.00144279003,-176.428451538,0.0100659998134,1.0,0.0,0.0,0.0,1.0,0.0,0.0,0.0,1.0,44.6951217651,-4.2682929039,2.07317066193,1.0,0.0,0.0,0.0,1.0,0.0,0.0,0.0,1.0,-1.55144267578,-2.30801040039,-9.69651672363,1.0,0.0,0.0,0.0,1.0,0.0,0.0,0.0,1.0
1463504478856627969,750,1463504478821115381,,11.5678472519,0.983382165432,-176.419891357,0.0101279998198,1.0,0.0,0.0,0.0,1.0,0.0,0.0,0.0,1.0,44.1463432312,-2.86585378647,0.365853667259,1.0,0.0,0.0,0.0,1.0,0.0,0.0,0.0,1.0,-0.814028564453,-1.99676418457,-9.98382092285,1.0,0.0,0.0,0.0,1.0,0.0,0.0,0.0,1.0
1463504478856883931,751,1463504478831515372,,12.0561971664,0.952613651752,-176.450317383,0.0101020000875,1.0,0.0,0.0,0.0,1.0,0.0,0.0,0.0,1.0,45.6097564697,-4.14634132385,-3.35365867615,1.0,0.0,0.0,0.0,1.0,0.0,0.0,0.0,1.0,-0.967257470703,-2.54743056641,-9.97424411621,1.0,0.0,0.0,0.0,1.0,0.0,0.0,0.0,1.0
1463504478858400489,752,1463504478841049829,,12.5182037354,0.933235943317,-176.48387146,0.0101269995794,1.0,0.0,0.0,0.0,1.0,0.0,0.0,0.0,1.0,42.8048782349,-3.17073178291,-3.90243911743,1.0,0.0,0.0,0.0,1.0,0.0,0.0,0.0,1.0,-0.962469067383,-2.63841022949,-9.91199487305,1.0,0.0,0.0,0.0,1.0,0.0,0.0,0.0,1.0
1463504478858787063,753,1463504478851231093,,12.959485054,0.921885251999,-176.519226074,0.0100870002061,1.0,0.0,0.0,0.0,1.0,0.0,0.0,0.0,1.0,39.7560997009,-4.02439022064,-3.96341490746,1.0,0.0,0.0,0.0,1.0,0.0,0.0,0.0,1.0,-0.679953271484,-2.93529123535,-9.87368764648,1.0,0.0,0.0,0.0,1.0,0.0,0.0,0.0,1.0
1463504478900567527,754,1463504478861105723,,13.3617753983,0.912797570229,-176.534408569,0.010095000267,1.0,0.0,0.0,0.0,1.0,0.0,0.0,0.0,1.0,36.8292694092,-3.17073178291,-2.13414645195,1.0,0.0,0.0,0.0,1.0,0.0,0.0,0.0,1.0,-0.713472094727,-2.8060043457,-9.79707319336,1.0,0.0,0.0,0.0,1.0,0.0,0.0,0.0,1.0
1463504478900838749,755,1463504478871162417,,13.7048654556,0.886361122131,-176.540878296,0.0100760003552,1.0,0.0,0.0,0.0,1.0,0.0,0.0,0.0,1.0,32.5609779358,-3.04878044128,-1.2804877758,1.0,0.0,0.0,0.0,1.0,0.0,0.0,0.0,1.0,-1.00556469727,-2.58094938965,-9.75397756348,1.0,0.0,0.0,0.0,1.0,0.0,0.0,0.0,1.0
1463504478901250007,756,1463504478881345972,,14.0269842148,0.876212239265,-176.547454834,0.0101690003648,1.0,0.0,0.0,0.0,1.0,0.0,0.0,0.0,1.0,30.1829280853,-2.68292689323,-1.40243899822,1.0,0.0,0.0,0.0,1.0,0.0,0.0,0.0,1.0,-0.785298144531,-2.63362182617,-9.71567033691,1.0,0.0,0.0,0.0,1.0,0.0,0.0,0.0,1.0
1463504478901613771,757,1463504478891659983,,14.3245277405,0.860131680965,-176.55569458,0.0100560002029,1.0,0.0,0.0,0.0,1.0,0.0,0.0,0.0,1.0,28.2926845551,-2.5,-1.64634156227,1.0,0.0,0.0,0.0,1.0,0.0,0.0,0.0,1.0,-0.962469067383,-2.72460148926,-9.96466730957,1.0,0.0,0.0,0.0,1.0,0.0,0.0,0.0,1.0
1463504478936672500,758,1463504478901711573,,14.6037893295,0.839989900589,-176.554260254,0.0101009998471,1.0,0.0,0.0,0.0,1.0,0.0,0.0,0.0,1.0,26.0365848541,-2.80487799644,-0.609756112099,1.0,0.0,0.0,0.0,1.0,0.0,0.0,0.0,1.0,-0.938527050781,-2.83473476562,-9.95509050293,1.0,0.0,0.0,0.0,1.0,0.0,0.0,0.0,1.0
1463504478936961011,759,1463504478911393723,,14.8775672913,0.819370925426,-176.539749146,0.0101070003584,1.0,0.0,0.0,0.0,1.0,0.0,0.0,0.0,1.0,22.9878044128,-2.37804889679,0.548780500889,1.0,0.0,0.0,0.0,1.0,0.0,0.0,0.0,1.0,-0.981622680664,-3.3470939209,-9.89762966309,1.0,0.0,0.0,0.0,1.0,0.0,0.0,0.0,1.0
1463504478937704058,760,1463504478921366728,,15.1039981842,0.794912993908,-176.521850586,0.0100819999352,1.0,0.0,0.0,0.0,1.0,0.0,0.0,0.0,1.0,18.2317085266,-2.74390244484,0.975609779358,1.0,0.0,0.0,0.0,1.0,0.0,0.0,0.0,1.0,-0.972045874023,-3.42370837402,-9.89762966309,1.0,0.0,0.0,0.0,1.0,0.0,0.0,0.0,1.0
1463504478938400286,761,1463504478931969301,,15.2954874039,0.770776391029,-176.496734619,0.0101920003071,1.0,0.0,0.0,0.0,1.0,0.0,0.0,0.0,1.0,13.5365858078,-2.25609779358,1.52439022064,1.0,0.0,0.0,0.0,1.0,0.0,0.0,0.0,1.0,-1.02950671387,-3.6535517334,-9.8545340332,1.0,0.0,0.0,0.0,1.0,0.0,0.0,0.0,1.0
1463504478962127874,762,1463504478942110934,,15.450009346,0.750619828701,-176.460296631,0.0102380001917,1.0,0.0,0.0,0.0,1.0,0.0,0.0,0.0,1.0,9.39024448395,-1.76829278469,2.5,1.0,0.0,0.0,0.0,1.0,0.0,0.0,0.0,1.0,-0.991199487305,-3.73974299316,-9.75397756348,1.0,0.0,0.0,0.0,1.0,0.0,0.0,0.0,1.0
1463504478962519030,763,1463504478952046339,,15.5537672043,0.72599875927,-176.416046143,0.00989000033587,1.0,0.0,0.0,0.0,1.0,0.0,0.0,0.0,1.0,4.39024400711,-1.2804877758,3.29268312454,1.0,0.0,0.0,0.0,1.0,0.0,0.0,0.0,1.0,-1.13963999023,-3.83551105957,-9.72045874023,1.0,0.0,0.0,0.0,1.0,0.0,0.0,0.0,1.0
1463504478996119737,764,1463504478963111207,,15.599814415,0.712835371494,-176.37336731,0.0102430004627,1.0,0.0,0.0,0.0,1.0,0.0,0.0,0.0,1.0,-0.487804889679,-0.426829278469,2.74390244484,1.0,0.0,0.0,0.0,1.0,0.0,0.0,0.0,1.0,-1.10133276367,-3.66791694336,-9.81143840332,1.0,0.0,0.0,0.0,1.0,0.0,0.0,0.0,1.0
1463504478996414133,765,1463504478972343405,,15.6120090485,0.697896420956,-176.33732605,0.00998200010508,1.0,0.0,0.0,0.0,1.0,0.0,0.0,0.0,1.0,-4.02439022064,-0.975609779358,2.31707310677,1.0,0.0,0.0,0.0,1.0,0.0,0.0,0.0,1.0,-1.06781401349,-3.73016618652,-9.81143840332,1.0,0.0,0.0,0.0,1.0,0.0,0.0,0.0,1.0
1463504478996828933,766,1463504478984408740,,15.5689792633,0.699070096016,-176.302642822,0.0107770003378,1.0,0.0,0.0,0.0,1.0,0.0,0.0,0.0,1.0,-8.65853691101,0.0,1.64634156227,1.0,0.0,0.0,0.0,1.0,0.0,0.0,0.0,1.0,-0.943315454102,-3.49553442383,-9.48103915874,1.0,0.0,0.0,0.0,1.0,0.0,0.0,0.0,1.0
1463504478997139733,767,1463504478992418307,,15.5044689178,0.695670843124,-176.271820068,0.00946700014174,1.0,0.0,0.0,0.0,1.0,0.0,0.0,0.0,1.0,-12.1341466904,0.12195122242,1.64634156227,1.0,0.0,0.0,0.0,1.0,0.0,0.0,0.0,1.0,-1.09175595703,-3.74453139648,-9.82580361328,1.0,0.0,0.0,0.0,1.0,0.0,0.0,0.0,1.0
1463504479055933845,768,1463504479004247677,,15.3756437302,0.700718164444,-176.233566284,0.011253000237,1.0,0.0,0.0,0.0,1.0,0.0,0.0,0.0,1.0,-16.5243911743,0.914634168148,1.58536589146,1.0,0.0,0.0,0.0,1.0,0.0,0.0,0.0,1.0,-1.07739082014,-3.6535517334,-9.74918916016,1.0,0.0,0.0,0.0,1.0,0.0,0.0,0.0,1.0
1463504479056184339,769,1463504479013558096,,15.2302350998,0.700346589088,-176.205978394,0.00898899976164,1.0,0.0,0.0,0.0,1.0,0.0,0.0,0.0,1.0,-20.9146347046,0.853658556938,1.2804877758,1.0,0.0,0.0,0.0,1.0,0.0,0.0,0.0,1.0,-1.16837033709,-3.55778366699,-9.7348239502,1.0,0.0,0.0,0.0,1.0,0.0,0.0,0.0,1.0
1463504479056700273,770,1463504479022526671,,15.0078163147,0.719647705555,-176.162796021,0.0100229997188,1.0,0.0,0.0,0.0,1.0,0.0,0.0,0.0,1.0,-25.4878044128,1.8902438879,2.31707310677,1.0,0.0,0.0,0.0,1.0,0.0,0.0,0.0,1.0,-0.943315454102,-3.28963308105,-9.86889924316,1.0,0.0,0.0,0.0,1.0,0.0,0.0,0.0,1.0
1463504479057396085,771,1463504479043954755,,14.7282876968,0.733016610146,-176.114517212,0.0101439999416,1.0,0.0,0.0,0.0,1.0,0.0,0.0,0.0,1.0,-30.3048782349,1.70731711388,2.86585378647,1.0,0.0,0.0,0.0,1.0,0.0,0.0,0.0,1.0,-1.00077629395,-3.16513459473,-9.95030209961,1.0,0.0,0.0,0.0,1.0,0.0,0.0,0.0,1.0
1463504479057816925,772,1463504479054558939,,14.1224775314,0.767488956451,-176.025634766,0.0172269996256,1.0,0.0,0.0,0.0,1.0,0.0,0.0,0.0,1.0,-37.0121955872,2.56097555161,3.10975623131,1.0,0.0,0.0,0.0,1.0,0.0,0.0,0.0,1.0,-1.00556469727,-2.91134921875,-9.86889924316,1.0,0.0,0.0,0.0,1.0,0.0,0.0,0.0,1.0
1463504479093617802,773,1463504479059946959,,13.7600955963,0.787427186966,-175.971343994,0.00968900043517,1.0,0.0,0.0,0.0,1.0,0.0,0.0,0.0,1.0,-39.817073822,2.25609779358,3.71951246262,1.0,0.0,0.0,0.0,1.0,0.0,0.0,0.0,1.0,-0.91458503418,-2.90177241211,-9.86411083984,1.0,0.0,0.0,0.0,1.0,0.0,0.0,0.0,1.0
1463504479093660922,774,1463504479067108801,,13.5544967651,0.797701716423,-175.940444946,0.00518900016323,1.0,0.0,0.0,0.0,1.0,0.0,0.0,0.0,1.0,-42.0121955872,2.92682933807,3.96341490746,1.0,0.0,0.0,0.0,1.0,0.0,0.0,0.0,1.0,-1.02950671387,-2.8060043457,-9.78749638672,1.0,0.0,0.0,0.0,1.0,0.0,0.0,0.0,1.0
1463504479093698783,775,1463504479073307360,,13.2171869278,0.813791871071,-175.890487671,0.00820999965072,1.0,0.0,0.0,0.0,1.0,0.0,0.0,0.0,1.0,-44.3292694092,3.04878044128,4.08536577225,1.0,0.0,0.0,0.0,1.0,0.0,0.0,0.0,1.0,-1.04387185076,-2.89219560547,-9.66778688823,1.0,0.0,0.0,0.0,1.0,0.0,0.0,0.0,1.0
1463504479093734821,776,1463504479083799264,,12.7553033829,0.837668418884,-175.81791687,0.0101239997894,1.0,0.0,0.0,0.0,1.0,0.0,0.0,0.0,1.0,-48.4146347046,3.35365867615,5.18292713165,1.0,0.0,0.0,0.0,1.0,0.0,0.0,0.0,1.0,-1.00556469727,-2.81079274902,-9.91199487305,1.0,0.0,0.0,0.0,1.0,0.0,0.0,0.0,1.0
1463504479118558168,777,1463504479093259194,,12.269402504,0.861734092236,-175.747039795,0.0100880004466,1.0,0.0,0.0,0.0,1.0,0.0,0.0,0.0,1.0,-52.0121955872,3.23170733452,5.12195110321,1.0,0.0,0.0,0.0,1.0,0.0,0.0,0.0,1.0,-0.981622680664,-2.89698400879,-9.82101520996,1.0,0.0,0.0,0.0,1.0,0.0,0.0,0.0,1.0
1463504479118616599,778,1463504479104003727,,11.7340888977,0.897501587868,-175.670776367,0.0100710000843,1.0,0.0,0.0,0.0,1.0,0.0,0.0,0.0,1.0,-55.9756126404,4.2682929039,5.54878091812,1.0,0.0,0.0,0.0,1.0,0.0,0.0,0.0,1.0,-0.943315454102,-2.62883342285,-9.88805285645,1.0,0.0,0.0,0.0,1.0,0.0,0.0,0.0,1.0
1463504479176061630,779,1463504479114321223,,11.1519641876,0.93259114027,-175.599365234,0.0104229999706,1.0,0.0,0.0,0.0,1.0,0.0,0.0,0.0,1.0,-59.7560997009,4.02439022064,4.93902444839,1.0,0.0,0.0,0.0,1.0,0.0,0.0,0.0,1.0,-0.928950244141,-2.62883342285,-9.50498117534,1.0,0.0,0.0,0.0,1.0,0.0,0.0,0.0,1.0
1463504479176332486,780,1463504479123537586,,10.5439453125,0.979751527309,-175.52784729,0.00977599993348,1.0,0.0,0.0,0.0,1.0,0.0,0.0,0.0,1.0,-63.5975646973,4.69512224197,5.42682933807,1.0,0.0,0.0,0.0,1.0,0.0,0.0,0.0,1.0,-0.775721337891,-2.09732050817,-9.61032604839,1.0,0.0,0.0,0.0,1.0,0.0,0.0,0.0,1.0
1463504479176375763,781,1463504479134333624,,9.89046764374,1.01369845867,-175.454849243,0.010108999908,1.0,0.0,0.0,0.0,1.0,0.0,0.0,0.0,1.0,-66.8902435303,4.32926845551,5.48780488968,1.0,0.0,0.0,0.0,1.0,0.0,0.0,0.0,1.0,-0.981622680664,-2.15478164027,-9.67736311035,1.0,0.0,0.0,0.0,1.0,0.0,0.0,0.0,1.0
1463504479176825038,782,1463504479144127269,,9.18786430359,1.06116735935,-175.380096436,0.0102030001581,1.0,0.0,0.0,0.0,1.0,0.0,0.0,0.0,1.0,-69.7560958862,4.39024400711,5.73170757294,1.0,0.0,0.0,0.0,1.0,0.0,0.0,0.0,1.0,-0.77093293457,-1.82438166504,-9.83538041992,1.0,0.0,0.0,0.0,1.0,0.0,0.0,0.0,1.0
1463504479176867325,783,1463504479156051416,,8.40212249756,1.1173722744,-175.298721313,0.0108749996871,1.0,0.0,0.0,0.0,1.0,0.0,0.0,0.0,1.0,-72.6829223633,5.85365867615,5.79268312454,1.0,0.0,0.0,0.0,1.0,0.0,0.0,0.0,1.0,-0.92416184082,-1.58496149902,-9.65821008159,1.0,0.0,0.0,0.0,1.0,0.0,0.0,0.0,1.0
1463504479177166981,784,1463504479165400577,,7.70833730698,1.15987098217,-175.236541748,0.00930500030518,1.0,0.0,0.0,0.0,1.0,0.0,0.0,0.0,1.0,-74.8780441284,4.75609779358,5.30487823486,1.0,0.0,0.0,0.0,1.0,0.0,0.0,0.0,1.0,-0.876277807617,-1.46525141602,-9.89762966309,1.0,0.0,0.0,0.0,1.0,0.0,0.0,0.0,1.0
1463504479177440650,785,1463504479174063718,,6.93708992004,1.20500421524,-175.16758728,0.0100530004129,1.0,0.0,0.0,0.0,1.0,0.0,0.0,0.0,1.0,-75.8536605835,5.42682933807,5.54878091812,1.0,0.0,0.0,0.0,1.0,0.0,0.0,0.0,1.0,-0.991199487305,-1.11090957031,-9.7348239502,1.0,0.0,0.0,0.0,1.0,0.0,0.0,0.0,1.0
1463504479218497113,786,1463504479184089109,,6.15647745132,1.24516737461,-175.098831177,0.0100699998438,1.0,0.0,0.0,0.0,1.0,0.0,0.0,0.0,1.0,-77.2561035156,4.81707286835,5.73170757294,1.0,0.0,0.0,0.0,1.0,0.0,0.0,0.0,1.0,-0.981622680664,-1.08696755371,-9.7827079834,1.0,0.0,0.0,0.0,1.0,0.0,0.0,0.0,1.0
1463504479218538046,787,1463504479194821977,,5.35399055481,1.28741490841,-175.038925171,0.0101150004193,1.0,0.0,0.0,0.0,1.0,0.0,0.0,0.0,1.0,-78.7195129395,5.24390268326,4.93902444839,1.0,0.0,0.0,0.0,1.0,0.0,0.0,0.0,1.0,-1.04387185076,-0.890643017578,-9.77313117676,1.0,0.0,0.0,0.0,1.0,0.0,0.0,0.0,1.0
1463504479218759064,788,1463504479204531932,,4.5276966095,1.33790051937,-174.981903076,0.0100959995762,1.0,0.0,0.0,0.0,1.0,0.0,0.0,0.0,1.0,-79.8780517578,5.12195110321,4.87804889679,1.0,0.0,0.0,0.0,1.0,0.0,0.0,0.0,1.0,-0.890643017578,-0.521935925381,-9.85932243652,1.0,0.0,0.0,0.0,1.0,0.0,0.0,0.0,1.0
1463504479255404955,789,1463504479215815523,,3.69519233704,1.38709723949,-174.938659668,0.0101079996675,1.0,0.0,0.0,0.0,1.0,0.0,0.0,0.0,1.0,-80.3048858643,5.36585378647,3.65853667259,1.0,0.0,0.0,0.0,1.0,0.0,0.0,0.0,1.0,-0.981622680664,-0.368707055664,-9.90241806641,1.0,0.0,0.0,0.0,1.0,0.0,0.0,0.0,1.0
1463504479256189506,790,1463504479224551937,,2.86088967323,1.44500422478,-174.90977478,0.0101720001549,1.0,0.0,0.0,0.0,1.0,0.0,0.0,0.0,1.0,-80.5487823486,5.60975599289,2.37804889679,1.0,0.0,0.0,0.0,1.0,0.0,0.0,0.0,1.0,-0.900219824219,-0.335188232422,-9.98382092285,1.0,0.0,0.0,0.0,1.0,0.0,0.0,0.0,1.0
1463504479256337043,791,1463504479236217414,,1.90747117996,1.51388084888,-174.888519287,0.0114209996536,1.0,0.0,0.0,0.0,1.0,0.0,0.0,0.0,1.0,-80.1219482422,5.48780488968,1.64634156227,1.0,0.0,0.0,0.0,1.0,0.0,0.0,0.0,1.0,-0.804451757813,0.138863696289,-9.77313117676,1.0,0.0,0.0,0.0,1.0,0.0,0.0,0.0,1.0
1463504479256477601,792,1463504479245940129,,1.16812610626,1.56230390072,-174.883056641,0.00884400028735,1.0,0.0,0.0,0.0,1.0,0.0,0.0,0.0,1.0,-79.3292694092,5.91463422775,0.609756112099,1.0,0.0,0.0,0.0,1.0,0.0,0.0,0.0,1.0,-0.981622680664,0.45968671875,-9.84016882324,1.0,0.0,0.0,0.0,1.0,0.0,0.0,0.0,1.0
1463504479293688900,793,1463504479254721694,,0.357291221619,1.61435294151,-174.907272339,0.00995299965143,1.0,0.0,0.0,0.0,1.0,0.0,0.0,0.0,1.0,-77.134147644,6.15853643417,-2.25609779358,1.0,0.0,0.0,0.0,1.0,0.0,0.0,0.0,1.0,-1.06781401349,0.584185168546,-9.8305920166,1.0,0.0,0.0,0.0,1.0,0.0,0.0,0.0,1.0
1463504479295338724,794,1463504479273382155,,-0.501683592796,1.67583560944,-174.980392456,0.0107749998569,1.0,0.0,0.0,0.0,1.0,0.0,0.0,0.0,1.0,-73.5365905762,6.15853643417,-6.34146356583,1.0,0.0,0.0,0.0,1.0,0.0,0.0,0.0,1.0,-0.981622680664,1.03908344744,-9.94072529297,1.0,0.0,0.0,0.0,1.0,0.0,0.0,0.0,1.0
1463504479295396531,795,1463504479275235500,,-1.23853766918,1.7324565649,-175.063537598,0.0098069999367,1.0,0.0,0.0,0.0,1.0,0.0,0.0,0.0,1.0,-72.3780517578,6.34146356583,-7.92682981491,1.0,0.0,0.0,0.0,1.0,0.0,0.0,0.0,1.0,-0.981622680664,0.579396801758,-10.1131078125,1.0,0.0,0.0,0.0,1.0,0.0,0.0,0.0,1.0
1463504479312468151,796,1463504479286832807,,-1.99703514576,1.77541649342,-175.17817688,0.0103420000523,1.0,0.0,0.0,0.0,1.0,0.0,0.0,0.0,1.0,-70.2439041138,5.60975599289,-10.3658542633,1.0,0.0,0.0,0.0,1.0,0.0,0.0,0.0,1.0,-1.10133276367,0.756567724609,-10.1083194092,1.0,0.0,0.0,0.0,1.0,0.0,0.0,0.0,1.0
1463504479484602327,797,1463504479311248906,,-3.57333779335,1.85697162151,-175.418075562,0.0205990001559,1.0,0.0,0.0,0.0,1.0,0.0,0.0,0.0,1.0,-73.2317123413,5.54878091812,-10.7317075729,1.0,0.0,0.0,0.0,1.0,0.0,0.0,0.0,1.0,-1.01035310059,0.866701000977,-9.48582756206,1.0,0.0,0.0,0.0,1.0,0.0,0.0,0.0,1.0
1463504479484651385,798,1463504479320885745,,-4.61892080307,1.92401194572,-175.553787231,0.0131069999188,1.0,0.0,0.0,0.0,1.0,0.0,0.0,0.0,1.0,-75.7926864624,5.79268312454,-9.08536529541,1.0,0.0,0.0,0.0,1.0,0.0,0.0,0.0,1.0,-0.828393774414,1.26892687988,-9.60074924175,1.0,0.0,0.0,0.0,1.0,0.0,0.0,0.0,1.0
1463504479484881360,799,1463504479327948378,,-5.19990491867,1.95475924015,-175.630310059,0.00750500010327,1.0,0.0,0.0,0.0,1.0,0.0,0.0,0.0,1.0,-73.7195129395,4.57317066193,-8.84146404266,1.0,0.0,0.0,0.0,1.0,0.0,0.0,0.0,1.0,-0.775721337891,1.42215578613,-9.77313117676,1.0,0.0,0.0,0.0,1.0,0.0,0.0,0.0,1.0
1463504479486164140,800,1463504479338773736,,-6.01968431473,1.99836969376,-175.73727417,0.0106669999659,1.0,0.0,0.0,0.0,1.0,0.0,0.0,0.0,1.0,-74.8780441284,4.75609779358,-8.59756088257,1.0,0.0,0.0,0.0,1.0,0.0,0.0,0.0,1.0,-0.76614453125,1.19231249982,-9.54807680523,1.0,0.0,0.0,0.0,1.0,0.0,0.0,0.0,1.0
1463504479491216936,801,1463504479346828868,,-6.76739120483,2.0440788269,-175.824768066,0.00929499976337,1.0,0.0,0.0,0.0,1.0,0.0,0.0,0.0,1.0,-77.3780517578,5.18292713165,-7.74390268326,1.0,0.0,0.0,0.0,1.0,0.0,0.0,0.0,1.0,-0.703895288086,1.56580788574,-9.81622680664,1.0,0.0,0.0,0.0,1.0,0.0,0.0,0.0,1.0
1463504479491302968,802,1463504479356745052,,-7.59666824341,2.08626174927,-175.915603638,0.0100760003552,1.0,0.0,0.0,0.0,1.0,0.0,0.0,0.0,1.0,-78.4756164551,3.96341490746,-7.31707334518,1.0,0.0,0.0,0.0,1.0,0.0,0.0,0.0,1.0,-0.598550451572,1.82917006836,-9.77791958008,1.0,0.0,0.0,0.0,1.0,0.0,0.0,0.0,1.0
1463504479492282239,803,1463504479368152796,,-8.45695590973,2.13249206543,-176.005935669,0.010440999642,1.0,0.0,0.0,0.0,1.0,0.0,0.0,0.0,1.0,-76.2195129395,4.51219558716,-6.64634132385,1.0,0.0,0.0,0.0,1.0,0.0,0.0,0.0,1.0,-0.627280834961,2.33195227086,-9.47146118306,1.0,0.0,0.0,0.0,1.0,0.0,0.0,0.0,1.0
1463504479492368063,804,1463504479376995449,,-9.21801376343,2.15982365608,-176.113037109,0.0097409998998,1.0,0.0,0.0,0.0,1.0,0.0,0.0,0.0,1.0,-73.2317123413,3.71951246262,-9.02439117432,1.0,0.0,0.0,0.0,1.0,0.0,0.0,0.0,1.0,-0.684741674805,2.26012636719,-9.56244201519,1.0,0.0,0.0,0.0,1.0,0.0,0.0,0.0,1.0
1463504479492687769,805,1463504479387082135,,-9.98321437836,2.17566895485,-176.270278931,0.0101070003584,1.0,0.0,0.0,0.0,1.0,0.0,0.0,0.0,1.0,-70.1219482422,4.87804889679,-13.2926826477,1.0,0.0,0.0,0.0,1.0,0.0,0.0,0.0,1.0,-0.952892260742,2.48996972656,-9.56244201519,1.0,0.0,0.0,0.0,1.0,0.0,0.0,0.0,1.0
1463504479493974819,806,1463504479397222150,,-10.7260465622,2.1904668808,-176.464096069,0.0100919995457,1.0,0.0,0.0,0.0,1.0,0.0,0.0,0.0,1.0,-67.6829299927,3.90243911743,-17.0121955872,1.0,0.0,0.0,0.0,1.0,0.0,0.0,0.0,1.0,-0.646434448242,2.65756384277,-9.55286520855,1.0,0.0,0.0,0.0,1.0,0.0,0.0,0.0,1.0
1463504479495402636,807,1463504479407946217,,-11.4365081787,2.20547699928,-176.648956299,0.0101100001484,1.0,0.0,0.0,0.0,1.0,0.0,0.0,0.0,1.0,-66.2804946899,4.32926845551,-15.975610733,1.0,0.0,0.0,0.0,1.0,0.0,0.0,0.0,1.0,-0.699106884766,2.43250888672,-9.50019277202,1.0,0.0,0.0,0.0,1.0,0.0,0.0,0.0,1.0
1463504479495458151,808,1463504479417493377,,-12.1483545303,2.20213699341,-176.836334229,0.0101020000875,1.0,0.0,0.0,0.0,1.0,0.0,0.0,0.0,1.0,-65.7926864624,2.98780488968,-16.4024391174,1.0,0.0,0.0,0.0,1.0,0.0,0.0,0.0,1.0,-0.737414111328,2.69108266602,-9.53849999858,1.0,0.0,0.0,0.0,1.0,0.0,0.0,0.0,1.0
1463504479497978039,809,1463504479428286291,,-12.8290252686,2.1947247982,-177.053833008,0.0101009998471,1.0,0.0,0.0,0.0,1.0,0.0,0.0,0.0,1.0,-63.4756088257,3.29268312454,-19.3292694092,1.0,0.0,0.0,0.0,1.0,0.0,0.0,0.0,1.0,-0.703895288086,2.63841022949,-9.46188437642,1.0,0.0,0.0,0.0,1.0,0.0,0.0,0.0,1.0
1463504479498148854,810,1463504479437510934,,-13.5055885315,2.18127441406,-177.276260376,0.0100910002366,1.0,0.0,0.0,0.0,1.0,0.0,0.0,0.0,1.0,-64.2073135376,2.80487799644,-19.9390239716,1.0,0.0,0.0,0.0,1.0,0.0,0.0,0.0,1.0,-0.646434448242,2.5234885498,-9.31344387349,1.0,0.0,0.0,0.0,1.0,0.0,0.0,0.0,1.0
1463504479498876641,811,1463504479448013045,,-14.2070951462,2.17064499855,-177.481826782,0.0101030003279,1.0,0.0,0.0,0.0,1.0,0.0,0.0,0.0,1.0,-64.2073135376,2.31707310677,-18.1707305908,1.0,0.0,0.0,0.0,1.0,0.0,0.0,0.0,1.0,-0.555454785156,3.07894333496,-9.28950185688,1.0,0.0,0.0,0.0,1.0,0.0,0.0,0.0,1.0
1463504479498935125,812,1463504479458243154,,-14.8828992844,2.13044476509,-177.696990967,0.0101110003889,1.0,0.0,0.0,0.0,1.0,0.0,0.0,0.0,1.0,-60.8536643982,0.548780500889,-19.5121955872,1.0,0.0,0.0,0.0,1.0,0.0,0.0,0.0,1.0,-0.689530078125,3.42370837402,-9.5193463853,1.0,0.0,0.0,0.0,1.0,0.0,0.0,0.0,1.0
1463504479498979755,813,1463504479468174649,,-15.4854793549,2.06886291504,-177.963684082,0.0101039996371,1.0,0.0,0.0,0.0,1.0,0.0,0.0,0.0,1.0,-54.9390258789,1.2195122242,-24.6341457367,1.0,0.0,0.0,0.0,1.0,0.0,0.0,0.0,1.0,-0.92416184082,3.34230551758,-9.71567033691,1.0,0.0,0.0,0.0,1.0,0.0,0.0,0.0,1.0
1463504481080288165,814,1463504479478105415,,-16.0608329773,1.98866307735,-178.293838501,0.0101039996371,1.0,0.0,0.0,0.0,1.0,0.0,0.0,0.0,1.0,-49.6951217651,0.731707334518,-31.158536911,1.0,0.0,0.0,0.0,1.0,0.0,0.0,0.0,1.0,-0.794874951172,3.75889660645,-9.30865547017,1.0,0.0,0.0,0.0,1.0,0.0,0.0,0.0,1.0
1463504481080419870,815,1463504479488641377,,-16.5953865051,1.85842347145,-178.684051514,0.0101190004498,1.0,0.0,0.0,0.0,1.0,0.0,0.0,0.0,1.0,-44.817073822,-0.914634168148,-37.7439041138,1.0,0.0,0.0,0.0,1.0,0.0,0.0,0.0,1.0,-1.01992990723,3.94564433594,-9.19852277832,1.0,0.0,0.0,0.0,1.0,0.0,0.0,0.0,1.0
1463504481080506683,816,1463504479498651405,,-17.1170215607,1.7037756443,-179.133056641,0.0101990001276,1.0,0.0,0.0,0.0,1.0,0.0,0.0,0.0,1.0,-40.7317085266,-0.12195122242,-43.1707305908,1.0,0.0,0.0,0.0,1.0,0.0,0.0,0.0,1.0,-1.29286889648,4.57771357422,-9.31823227681,1.0,0.0,0.0,0.0,1.0,0.0,0.0,0.0,1.0
1463504481080613911,817,1463504479508594825,,-17.644159317,1.61806607246,-179.552337646,0.00997900031507,1.0,0.0,0.0,0.0,1.0,0.0,0.0,0.0,1.0,-38.6585388184,1.2195122242,-40.6097564697,1.0,0.0,0.0,0.0,1.0,0.0,0.0,0.0,1.0,-0.407014282227,5.24330163574,-8.84896933594,1.0,0.0,0.0,0.0,1.0,0.0,0.0,0.0,1.0
1463504481080844616,818,1463504479518963618,,-18.1024684906,1.46945261955,-179.890060425,0.0100769996643,1.0,0.0,0.0,0.0,1.0,0.0,0.0,0.0,1.0,-34.0243911743,-5.24390268326,-33.9634132385,1.0,0.0,0.0,0.0,1.0,0.0,0.0,0.0,1.0,-0.742202514648,5.02303508301,-9.1697923584,1.0,0.0,0.0,0.0,1.0,0.0,0.0,0.0,1.0
1463504481080999703,819,1463504479529489580,,-18.5948143005,1.34114575386,179.809417725,0.0101509997621,1.0,0.0,0.0,0.0,1.0,0.0,0.0,0.0,1.0,-33.9634132385,-4.08536577225,-29.5121974945,1.0,0.0,0.0,0.0,1.0,0.0,0.0,0.0,1.0,-0.809240161133,5.72693037109,-8.96867941895,1.0,0.0,0.0,0.0,1.0,0.0,0.0,0.0,1.0
1463504481081545999,820,1463504479538857229,,-19.054233551,1.20479214191,179.546661377,0.0100729996338,1.0,0.0,0.0,0.0,1.0,0.0,0.0,0.0,1.0,-31.158536911,-4.45121955872,-26.0365848541,1.0,0.0,0.0,0.0,1.0,0.0,0.0,0.0,1.0,-1.1540052002,6.07169541016,-9.2942902602,1.0,0.0,0.0,0.0,1.0,0.0,0.0,0.0,1.0
1463504481081669059,821,1463504479549971775,,-19.4721088409,1.11980390549,179.341201782,0.0101070003584,1.0,0.0,0.0,0.0,1.0,0.0,0.0,0.0,1.0,-27.1341457367,-3.41463422775,-19.6951236725,1.0,0.0,0.0,0.0,1.0,0.0,0.0,0.0,1.0,-0.76135612793,6.35421120605,-9.60074924175,1.0,0.0,0.0,0.0,1.0,0.0,0.0,0.0,1.0
1463504481081819042,822,1463504479559353953,,-19.8618087769,1.05919849873,179.191986084,0.0101330000907,1.0,0.0,0.0,0.0,1.0,0.0,0.0,0.0,1.0,-25.3658542633,-3.23170733452,-13.7804880142,1.0,0.0,0.0,0.0,1.0,0.0,0.0,0.0,1.0,-0.694318481445,6.24407792969,-9.65821008159,1.0,0.0,0.0,0.0,1.0,0.0,0.0,0.0,1.0
1463504481081956319,823,1463504479569538755,,-20.2205657959,1.01482474804,179.102737427,0.0100589999929,1.0,0.0,0.0,0.0,1.0,0.0,0.0,0.0,1.0,-22.9268302917,-3.41463422775,-7.68292665482,1.0,0.0,0.0,0.0,1.0,0.0,0.0,0.0,1.0,-0.756567724609,6.24886633301,-9.61032604839,1.0,0.0,0.0,0.0,1.0,0.0,0.0,0.0,1.0
1463504481082027406,824,1463504479579759490,,-20.5413036346,1.00915062428,179.059951782,0.0101150004193,1.0,0.0,0.0,0.0,1.0,0.0,0.0,0.0,1.0,-18.5975627899,-2.07317066193,-2.25609779358,1.0,0.0,0.0,0.0,1.0,0.0,0.0,0.0,1.0,-0.632069238281,6.58405456543,-9.81143840332,1.0,0.0,0.0,0.0,1.0,0.0,0.0,0.0,1.0
1463504481082080525,825,1463504479589242074,,-20.7982902527,1.0179156065,179.043151855,0.0100840004161,1.0,0.0,0.0,0.0,1.0,0.0,0.0,0.0,1.0,-14.0243902206,-2.31707310677,0.365853667259,1.0,0.0,0.0,0.0,1.0,0.0,0.0,0.0,1.0,-0.46447512207,6.21534750977,-9.75397756348,1.0,0.0,0.0,0.0,1.0,0.0,0.0,0.0,1.0
1463504481082170567,826,1463504479599891149,,-20.9781017303,0.981036424637,178.997894287,0.0101079996675,1.0,0.0,0.0,0.0,1.0,0.0,0.0,0.0,1.0,-5.60975599289,-3.35365867615,-2.98780488968,1.0,0.0,0.0,0.0,1.0,0.0,0.0,0.0,1.0,-0.952892260742,6.43082565918,-9.72045874023,1.0,0.0,0.0,0.0,1.0,0.0,0.0,0.0,1.0
1463504481082228790,827,1463504479609618915,,-21.0559272766,0.901297807693,178.91015625,0.0100919995457,1.0,0.0,0.0,0.0,1.0,0.0,0.0,0.0,1.0,4.63414621353,-3.41463422775,-7.50000047684,1.0,0.0,0.0,0.0,1.0,0.0,0.0,0.0,1.0,-1.49877023926,6.49307490234,-9.68693991699,1.0,0.0,0.0,0.0,1.0,0.0,0.0,0.0,1.0
1463504481082325759,828,1463504479620212475,,-20.9638195038,0.828606367111,178.766036987,0.0101220002398,1.0,0.0,0.0,0.0,1.0,0.0,0.0,0.0,1.0,14.9390249252,-1.70731711388,-12.8658542633,1.0,0.0,0.0,0.0,1.0,0.0,0.0,0.0,1.0,-1.19231249982,4.91769020996,-9.61511445171,1.0,0.0,0.0,0.0,1.0,0.0,0.0,0.0,1.0
1463504481082397366,829,1463504479629693914,,-20.8852481842,0.748157501221,178.603424072,0.0100919995457,1.0,0.0,0.0,0.0,1.0,0.0,0.0,0.0,1.0,15.6097564697,-1.64634156227,-14.8170728683,1.0,0.0,0.0,0.0,1.0,0.0,0.0,0.0,1.0,-1.16837033709,4.93684382324,-8.89685336914,1.0,0.0,0.0,0.0,1.0,0.0,0.0,0.0,1.0
1463504481082482253,830,1463504479640410533,,-20.7845745087,0.696806490421,178.479431152,0.0101159997284,1.0,0.0,0.0,0.0,1.0,0.0,0.0,0.0,1.0,17.7439022064,0.243902444839,-10.0,1.0,0.0,0.0,0.0,1.0,0.0,0.0,0.0,1.0,-1.32638771973,5.05176550293,-9.11711992188,1.0,0.0,0.0,0.0,1.0,0.0,0.0,0.0,1.0
1463504481082533237,831,1463504479650010866,,-20.6749248505,0.717770278454,178.446929932,0.010169999674,1.0,0.0,0.0,0.0,1.0,0.0,0.0,0.0,1.0,16.6463413239,1.15853655338,-0.0609756112099,1.0,0.0,0.0,0.0,1.0,0.0,0.0,0.0,1.0,-0.885854614258,5.08528432617,-9.97903251953,1.0,0.0,0.0,0.0,1.0,0.0,0.0,0.0,1.0
1463504481082610781,832,1463504479660498760,,-20.591293335,0.754601597786,178.468704224,0.010053999722,1.0,0.0,0.0,0.0,1.0,0.0,0.0,0.0,1.0,15.6707315445,0.426829278469,5.36585378647,1.0,0.0,0.0,0.0,1.0,0.0,0.0,0.0,1.0,-0.785298144531,5.18105239258,-9.55286520855,1.0,0.0,0.0,0.0,1.0,0.0,0.0,0.0,1.0
1463504481082695355,833,1463504479669985041,,-20.4601554871,0.745977818966,178.478805542,0.010045000352,1.0,0.0,0.0,0.0,1.0,0.0,0.0,0.0,1.0,19.0243911743,0.18292683363,4.02439022064,1.0,0.0,0.0,0.0,1.0,0.0,0.0,0.0,1.0,-1.51792385254,4.91769020996,-9.64863327495,1.0,0.0,0.0,0.0,1.0,0.0,0.0,0.0,1.0
1463504481082769305,834,1463504479680879403,,-20.247543335,0.762178659439,178.467254639,0.0101380003616,1.0,0.0,0.0,0.0,1.0,0.0,0.0,0.0,1.0,25.0609760284,1.52439022064,2.19512200356,1.0,0.0,0.0,0.0,1.0,0.0,0.0,0.0,1.0,-1.09654436035,4.31435168386,-9.2942902602,1.0,0.0,0.0,0.0,1.0,0.0,0.0,0.0,1.0
1463504481082832892,835,1463504479690765538,,-19.9581375122,0.729991137981,178.420944214,0.0100720003247,1.0,0.0,0.0,0.0,1.0,0.0,0.0,0.0,1.0,29.1463413239,-0.243902444839,-2.19512200356,1.0,0.0,0.0,0.0,1.0,0.0,0.0,0.0,1.0,-1.36469494629,3.57693728027,-9.36611631001,1.0,0.0,0.0,0.0,1.0,0.0,0.0,0.0,1.0
1463504481082897312,836,1463504479701040850,,-19.6525840759,0.733008563519,178.375991821,0.010111999698,1.0,0.0,0.0,0.0,1.0,0.0,0.0,0.0,1.0,31.0365867615,0.914634168148,-1.64634156227,1.0,0.0,0.0,0.0,1.0,0.0,0.0,0.0,1.0,-0.967257470703,3.57214887695,-9.2942902602,1.0,0.0,0.0,0.0,1.0,0.0,0.0,0.0,1.0
1463504481083129423,837,1463504479710585928,,-19.352306366,0.736776590347,178.332199097,0.010158999823,1.0,0.0,0.0,0.0,1.0,0.0,0.0,0.0,1.0,30.4268321991,0.792682945728,-1.58536589146,1.0,0.0,0.0,0.0,1.0,0.0,0.0,0.0,1.0,-0.976834277344,3.66791694336,-9.67257470703,1.0,0.0,0.0,0.0,1.0,0.0,0.0,0.0,1.0
1463504481083241182,838,1463504479721039867,,-19.0585708618,0.721436202526,178.277206421,0.0100459996611,1.0,0.0,0.0,0.0,1.0,0.0,0.0,0.0,1.0,31.7073192596,0.487804889679,-2.92682933807,1.0,0.0,0.0,0.0,1.0,0.0,0.0,0.0,1.0,-1.23540805664,4.01268198242,-9.89284125977,1.0,0.0,0.0,0.0,1.0,0.0,0.0,0.0,1.0
1463504481083328204,839,1463504479730818253,,-18.761888504,0.723281979561,178.229751587,0.0101030003279,1.0,0.0,0.0,0.0,1.0,0.0,0.0,0.0,1.0,33.9024391174,0.792682945728,-2.01219511032,1.0,0.0,0.0,0.0,1.0,0.0,0.0,0.0,1.0,-1.03429511719,4.34787021484,-9.81622680664,1.0,0.0,0.0,0.0,1.0,0.0,0.0,0.0,1.0
1463504481083420850,840,1463504479741484774,,-18.4371547699,0.732491672039,178.190078735,0.0101140001789,1.0,0.0,0.0,0.0,1.0,0.0,0.0,0.0,1.0,36.5853652954,0.670731723309,-1.2804877758,1.0,0.0,0.0,0.0,1.0,0.0,0.0,0.0,1.0,-0.890643017578,4.14196887207,-9.50976957866,1.0,0.0,0.0,0.0,1.0,0.0,0.0,0.0,1.0
1463504481083477094,841,1463504479750937466,,-18.0850334167,0.745317280293,178.153671265,0.0100710000843,1.0,0.0,0.0,0.0,1.0,0.0,0.0,0.0,1.0,37.9268302917,1.52439022064,-0.731707334518,1.0,0.0,0.0,0.0,1.0,0.0,0.0,0.0,1.0,-0.981622680664,3.73016618652,-9.38526992329,1.0,0.0,0.0,0.0,1.0,0.0,0.0,0.0,1.0
1463504481083529067,842,1463504479760854691,,-17.7103118896,0.742100954056,178.122436523,0.0100999996066,1.0,0.0,0.0,0.0,1.0,0.0,0.0,0.0,1.0,38.4146347046,0.792682945728,-0.487804889679,1.0,0.0,0.0,0.0,1.0,0.0,0.0,0.0,1.0,-1.16837033709,3.42370837402,-9.58638403179,1.0,0.0,0.0,0.0,1.0,0.0,0.0,0.0,1.0
1463504481088003744,843,1463504479771799412,,-17.3171424866,0.751805782318,178.093948364,0.0100999996066,1.0,0.0,0.0,0.0,1.0,0.0,0.0,0.0,1.0,39.2682914734,1.8292683363,0.0609756112099,1.0,0.0,0.0,0.0,1.0,0.0,0.0,0.0,1.0,-1.14921679688,3.19386501465,-9.66299848491,1.0,0.0,0.0,0.0,1.0,0.0,0.0,0.0,1.0
1463504481088572485,844,1463504479781872975,,-16.9117279053,0.746832191944,178.065170288,0.0103979995474,1.0,0.0,0.0,0.0,1.0,0.0,0.0,0.0,1.0,39.4512214661,1.03658533096,-0.18292683363,1.0,0.0,0.0,0.0,1.0,0.0,0.0,0.0,1.0,-1.26413847656,3.15076938477,-9.68693991699,1.0,0.0,0.0,0.0,1.0,0.0,0.0,0.0,1.0
1463504481088812511,845,1463504479791452320,,-16.5356960297,0.750786364079,178.034423828,0.00980599969625,1.0,0.0,0.0,0.0,1.0,0.0,0.0,0.0,1.0,38.2926864624,1.09756100178,-0.609756112099,1.0,0.0,0.0,0.0,1.0,0.0,0.0,0.0,1.0,-1.06781401349,2.91613762207,-9.49061596538,1.0,0.0,0.0,0.0,1.0,0.0,0.0,0.0,1.0
1463504481089013636,846,1463504479801915893,,-16.1726913452,0.759642064571,178.020584106,0.0101929996163,1.0,0.0,0.0,0.0,1.0,0.0,0.0,0.0,1.0,37.4390220642,1.34146344662,1.2804877758,1.0,0.0,0.0,0.0,1.0,0.0,0.0,0.0,1.0,-1.16837033709,3.2992098877,-9.7827079834,1.0,0.0,0.0,0.0,1.0,0.0,0.0,0.0,1.0
1463504481089167994,847,1463504479811900247,,-15.8163614273,0.770715355873,178.006362915,0.0100130001083,1.0,0.0,0.0,0.0,1.0,0.0,0.0,0.0,1.0,37.1951255798,1.34146344662,1.15853655338,1.0,0.0,0.0,0.0,1.0,0.0,0.0,0.0,1.0,-1.09654436035,3.1364041748,-9.62469125835,1.0,0.0,0.0,0.0,1.0,0.0,0.0,0.0,1.0
1463504481089280742,848,1463504479822257738,,-15.4632797241,0.786180377007,178.013626099,0.010111999698,1.0,0.0,0.0,0.0,1.0,0.0,0.0,0.0,1.0,36.7073173523,1.03658533096,3.23170733452,1.0,0.0,0.0,0.0,1.0,0.0,0.0,0.0,1.0,-1.06781401349,3.1124621582,-9.63426806499,1.0,0.0,0.0,0.0,1.0,0.0,0.0,0.0,1.0
1463504481089382086,849,1463504479831643614,,-15.1070146561,0.81056624651,178.019790649,0.0101770004258,1.0,0.0,0.0,0.0,1.0,0.0,0.0,0.0,1.0,38.1097564697,1.58536589146,3.23170733452,1.0,0.0,0.0,0.0,1.0,0.0,0.0,0.0,1.0,-1.00556469727,3.28484467773,-9.60553764507,1.0,0.0,0.0,0.0,1.0,0.0,0.0,0.0,1.0
1463504481089453068,850,1463504479842649995,,-14.7083778381,0.802548289299,178.009689331,0.0100159998983,1.0,0.0,0.0,0.0,1.0,0.0,0.0,0.0,1.0,41.1585350037,0.548780500889,1.2195122242,1.0,0.0,0.0,0.0,1.0,0.0,0.0,0.0,1.0,-1.28329208984,2.86825358887,-9.5432884019,1.0,0.0,0.0,0.0,1.0,0.0,0.0,0.0,1.0
1463504481089514467,851,1463504479852173616,,-14.2788944244,0.816441237926,177.968994141,0.0101190004498,1.0,0.0,0.0,0.0,1.0,0.0,0.0,0.0,1.0,41.7073173523,2.01219511032,-1.58536589146,1.0,0.0,0.0,0.0,1.0,0.0,0.0,0.0,1.0,-1.01992990723,2.4277204834,-9.62947966167,1.0,0.0,0.0,0.0,1.0,0.0,0.0,0.0,1.0
1463504481089619352,852,1463504479862819254,,-13.8923406601,0.852379381657,177.976470947,0.0103669995442,1.0,0.0,0.0,0.0,1.0,0.0,0.0,0.0,1.0,40.4878044128,0.914634168148,2.98780488968,1.0,0.0,0.0,0.0,1.0,0.0,0.0,0.0,1.0,-0.708683691406,3.25611425781,-10.1562034424,1.0,0.0,0.0,0.0,1.0,0.0,0.0,0.0,1.0
1463504481089710957,853,1463504479872441719,,-13.4847545624,0.885329186916,177.983383179,0.00986399967223,1.0,0.0,0.0,0.0,1.0,0.0,0.0,0.0,1.0,43.5975608826,1.76829278469,3.10975623131,1.0,0.0,0.0,0.0,1.0,0.0,0.0,0.0,1.0,-0.866701000977,2.94965644531,-9.98860932617,1.0,0.0,0.0,0.0,1.0,0.0,0.0,0.0,1.0
1463504481089759337,854,1463504479882311450,,-13.050570488,0.879579126835,177.977050781,0.0100419996306,1.0,0.0,0.0,0.0,1.0,0.0,0.0,0.0,1.0,45.9756088257,0.487804889679,1.40243899822,1.0,0.0,0.0,0.0,1.0,0.0,0.0,0.0,1.0,-1.28329208984,2.95444484863,-9.97424411621,1.0,0.0,0.0,0.0,1.0,0.0,0.0,0.0,1.0
1463504481089933172,855,1463504479892645818,,-12.5860319138,0.919135510921,177.937683105,0.0101260002702,1.0,0.0,0.0,0.0,1.0,0.0,0.0,0.0,1.0,49.0853652954,1.46341466904,-1.76829278469,1.0,0.0,0.0,0.0,1.0,0.0,0.0,0.0,1.0,-0.478840332031,2.8299463623,-9.57201882183,1.0,0.0,0.0,0.0,1.0,0.0,0.0,0.0,1.0
1463504481089989156,856,1463504479902615799,,-12.0997133255,0.923342168331,177.880645752,0.0100889997557,1.0,0.0,0.0,0.0,1.0,0.0,0.0,0.0,1.0,51.0365867615,0.731707334518,-3.7804877758,1.0,0.0,0.0,0.0,1.0,0.0,0.0,0.0,1.0,-0.92416184082,2.77727392578,-9.95030209961,1.0,0.0,0.0,0.0,1.0,0.0,0.0,0.0,1.0
1463504481090056753,857,1463504479913573643,,-11.60135746,0.944925427437,177.823501587,0.0100880004466,1.0,0.0,0.0,0.0,1.0,0.0,0.0,0.0,1.0,51.7073173523,1.40243899822,-3.71951246262,1.0,0.0,0.0,0.0,1.0,0.0,0.0,0.0,1.0,-0.727837304687,2.56179577637,-9.85932243652,1.0,0.0,0.0,0.0,1.0,0.0,0.0,0.0,1.0
1463504481090124194,858,1463504479922592683,,-11.13468647,0.999435424805,177.797012329,0.0101049998775,1.0,0.0,0.0,0.0,1.0,0.0,0.0,0.0,1.0,49.7560997009,2.07317066193,-0.548780500889,1.0,0.0,0.0,0.0,1.0,0.0,0.0,0.0,1.0,-0.373495458984,2.68150585937,-9.73961235352,1.0,0.0,0.0,0.0,1.0,0.0,0.0,0.0,1.0
1463504481090159502,859,1463504479932716345,,-10.6705989838,1.02773237228,177.800216675,0.0100999996066,1.0,0.0,0.0,0.0,1.0,0.0,0.0,0.0,1.0,48.2926864624,1.58536589146,2.25609779358,1.0,0.0,0.0,0.0,1.0,0.0,0.0,0.0,1.0,-0.861912597656,2.45645090332,-10.0508585693,1.0,0.0,0.0,0.0,1.0,0.0,0.0,0.0,1.0
1463504481090223298,860,1463504479942692053,,-10.2183570862,1.05868494511,177.823699951,0.0101229995489,1.0,0.0,0.0,0.0,1.0,0.0,0.0,0.0,1.0,47.5,1.8292683363,4.2682929039,1.0,0.0,0.0,0.0,1.0,0.0,0.0,0.0,1.0,-0.909796630859,2.43729729004,-9.92636008301,1.0,0.0,0.0,0.0,1.0,0.0,0.0,0.0,1.0
1463504481090306674,861,1463504479953643023,,-9.73851394653,1.1038274765,177.845153809,0.0102829998359,1.0,0.0,0.0,0.0,1.0,0.0,0.0,0.0,1.0,47.3780517578,1.76829278469,3.90243911743,1.0,0.0,0.0,0.0,1.0,0.0,0.0,0.0,1.0,-0.627280834961,1.95845695801,-9.89762966309,1.0,0.0,0.0,0.0,1.0,0.0,0.0,0.0,1.0
1463504481090355940,862,1463504479963975152,,-9.30162620544,1.14291357994,177.897171021,0.0099419998005,1.0,0.0,0.0,0.0,1.0,0.0,0.0,0.0,1.0,46.2804908752,1.2804877758,6.95121955872,1.0,0.0,0.0,0.0,1.0,0.0,0.0,0.0,1.0,-0.713472094727,2.20266552734,-10.0029745361,1.0,0.0,0.0,0.0,1.0,0.0,0.0,0.0,1.0
1463504481090503788,863,1463504479974059808,,-8.84623336792,1.19775426388,177.963409424,0.0102350004017,1.0,0.0,0.0,0.0,1.0,0.0,0.0,0.0,1.0,46.1585388184,2.01219511032,8.23170757294,1.0,0.0,0.0,0.0,1.0,0.0,0.0,0.0,1.0,-0.612915625,2.03028300781,-10.1370498291,1.0,0.0,0.0,0.0,1.0,0.0,0.0,0.0,1.0
1463504481090569250,864,1463504479983701178,,-8.40438461304,1.24278175831,178.04019165,0.00997100025415,1.0,0.0,0.0,0.0,1.0,0.0,0.0,0.0,1.0,46.7682952881,1.09756100178,9.26829242706,1.0,0.0,0.0,0.0,1.0,0.0,0.0,0.0,1.0,-0.584185168546,2.00155258789,-9.66299848491,1.0,0.0,0.0,0.0,1.0,0.0,0.0,0.0,1.0
1463504481090610287,865,1463504479994243024,,-7.93356561661,1.30043113232,178.10496521,0.0100609995425,1.0,0.0,0.0,0.0,1.0,0.0,0.0,0.0,1.0,47.0731697083,2.25609779358,8.04878044128,1.0,0.0,0.0,0.0,1.0,0.0,0.0,0.0,1.0,-0.531512805087,1.57538469238,-9.91678327637,1.0,0.0,0.0,0.0,1.0,0.0,0.0,0.0,1.0
1463504481090676843,866,1463504480004198319,,-7.47139692307,1.34690546989,178.180450439,0.0100959995762,1.0,0.0,0.0,0.0,1.0,0.0,0.0,0.0,1.0,47.1951255798,1.2804877758,8.90243911743,1.0,0.0,0.0,0.0,1.0,0.0,0.0,0.0,1.0,-0.555454785156,1.68072956543,-9.79228479004,1.0,0.0,0.0,0.0,1.0,0.0,0.0,0.0,1.0
1463504481090731212,867,1463504480013734282,,-6.97418928146,1.39858412743,178.257263184,0.0101169999689,1.0,0.0,0.0,0.0,1.0,0.0,0.0,0.0,1.0,47.1951255798,2.5,9.02439117432,1.0,0.0,0.0,0.0,1.0,0.0,0.0,0.0,1.0,-0.665588061523,1.01992990723,-9.92157167969,1.0,0.0,0.0,0.0,1.0,0.0,0.0,0.0,1.0
1463504481090774749,868,1463504480023670511,,-6.48103380203,1.42424285412,178.333374023,0.0100779999048,1.0,0.0,0.0,0.0,1.0,0.0,0.0,0.0,1.0,47.4390258789,0.914634168148,8.71951198578,1.0,0.0,0.0,0.0,1.0,0.0,0.0,0.0,1.0,-0.804451757813,1.00077629395,-9.79707319336,1.0,0.0,0.0,0.0,1.0,0.0,0.0,0.0,1.0
1463504481090830524,869,1463504480034389835,,-6.00175857544,1.45903360844,178.398910522,0.0101439999416,1.0,0.0,0.0,0.0,1.0,0.0,0.0,0.0,1.0,46.8902435303,1.8292683363,7.68292665482,1.0,0.0,0.0,0.0,1.0,0.0,0.0,0.0,1.0,-0.780509741211,1.12048637695,-9.88326445312,1.0,0.0,0.0,0.0,1.0,0.0,0.0,0.0,1.0
1463504481090870311,870,1463504480044532501,,-5.51203393936,1.47568070889,178.450546265,0.0101380003616,1.0,0.0,0.0,0.0,1.0,0.0,0.0,0.0,1.0,48.5975608826,0.853658556938,6.15853643417,1.0,0.0,0.0,0.0,1.0,0.0,0.0,0.0,1.0,-0.885854614258,1.14921679688,-9.91678327637,1.0,0.0,0.0,0.0,1.0,0.0,0.0,0.0,1.0
1463504481090944626,871,1463504480054485188,,-5.02224349976,1.51020789146,178.489089966,0.0100699998438,1.0,0.0,0.0,0.0,1.0,0.0,0.0,0.0,1.0,50.0609779358,1.8292683363,4.93902444839,1.0,0.0,0.0,0.0,1.0,0.0,0.0,0.0,1.0,-0.708683691406,1.25456166992,-9.88805285645,1.0,0.0,0.0,0.0,1.0,0.0,0.0,0.0,1.0
1463504481091012067,872,1463504480064887774,,-4.5183672905,1.53401565552,178.51071167,0.0101319998503,1.0,0.0,0.0,0.0,1.0,0.0,0.0,0.0,1.0,52.4390258789,0.670731723309,3.10975623131,1.0,0.0,0.0,0.0,1.0,0.0,0.0,0.0,1.0,-0.675164868164,1.42694418945,-10.1609918457,1.0,0.0,0.0,0.0,1.0,0.0,0.0,0.0,1.0
1463504481091109348,873,1463504480074833170,,-4.00225019455,1.55269992352,178.522125244,0.0100689996034,1.0,0.0,0.0,0.0,1.0,0.0,0.0,0.0,1.0,53.6585388184,1.09756100178,2.07317066193,1.0,0.0,0.0,0.0,1.0,0.0,0.0,0.0,1.0,-0.794874951172,1.23540805664,-9.84495722656,1.0,0.0,0.0,0.0,1.0,0.0,0.0,0.0,1.0
1463504481091143303,874,1463504480085121394,,-3.48560380936,1.57896316051,178.556060791,0.0100760003552,1.0,0.0,0.0,0.0,1.0,0.0,0.0,0.0,1.0,53.9024391174,0.731707334518,4.20731735229,1.0,0.0,0.0,0.0,1.0,0.0,0.0,0.0,1.0,-0.622492431641,1.20667770978,-9.94072529297,1.0,0.0,0.0,0.0,1.0,0.0,0.0,0.0,1.0
1463504481091243032,875,1463504480095104962,,-2.96168875694,1.60087740421,178.602249146,0.010098000057,1.0,0.0,0.0,0.0,1.0,0.0,0.0,0.0,1.0,52.3780517578,1.09756100178,5.30487823486,1.0,0.0,0.0,0.0,1.0,0.0,0.0,0.0,1.0,-0.77093293457,0.751779321289,-10.0556469727,1.0,0.0,0.0,0.0,1.0,0.0,0.0,0.0,1.0
1463504481091293339,876,1463504480105183677,,-2.41658306122,1.61906421185,178.658279419,0.0103519996628,1.0,0.0,0.0,0.0,1.0,0.0,0.0,0.0,1.0,51.0365867615,0.487804889679,5.97560977936,1.0,0.0,0.0,0.0,1.0,0.0,0.0,0.0,1.0,-0.708683691406,0.277727392578,-9.77313117676,1.0,0.0,0.0,0.0,1.0,0.0,0.0,0.0,1.0
1463504481091369112,877,1463504480115560902,,-1.90624248981,1.64543294907,178.730255127,0.0101899998263,1.0,0.0,0.0,0.0,1.0,0.0,0.0,0.0,1.0,47.8658561707,1.2804877758,7.56097555161,1.0,0.0,0.0,0.0,1.0,0.0,0.0,0.0,1.0,-0.708683691406,0.0909796630859,-9.89762966309,1.0,0.0,0.0,0.0,1.0,0.0,0.0,0.0,1.0
1463504481091427023,878,1463504480125904328,,-1.4224357605,1.65573430061,178.815719604,0.0100720003247,1.0,0.0,0.0,0.0,1.0,0.0,0.0,0.0,1.0,44.5731735229,0.365853667259,8.84146404266,1.0,0.0,0.0,0.0,1.0,0.0,0.0,0.0,1.0,-0.823605371094,-0.210689746094,-10.0029745361,1.0,0.0,0.0,0.0,1.0,0.0,0.0,0.0,1.0
1463504481091468008,879,1463504480135463255,,-0.966986238956,1.67858052254,178.915298462,0.0101190004498,1.0,0.0,0.0,0.0,1.0,0.0,0.0,0.0,1.0,40.8536605835,1.09756100178,10.1219511032,1.0,0.0,0.0,0.0,1.0,0.0,0.0,0.0,1.0,-0.718260498047,-0.407014282227,-9.90720646973,1.0,0.0,0.0,0.0,1.0,0.0,0.0,0.0,1.0
1463504481091590911,880,1463504480145731897,,-0.584651529789,1.69141292572,179.034667969,0.00978500023484,1.0,0.0,0.0,0.0,1.0,0.0,0.0,0.0,1.0,36.3414611816,0.609756112099,12.4390249252,1.0,0.0,0.0,0.0,1.0,0.0,0.0,0.0,1.0,-0.794874951172,-0.225054956055,-10.0029745361,1.0,0.0,0.0,0.0,1.0,0.0,0.0,0.0,1.0
1463504481091719491,881,1463504480155662659,,-0.215275615454,1.7150683403,179.181930542,0.0100840004161,1.0,0.0,0.0,0.0,1.0,0.0,0.0,0.0,1.0,33.1707305908,0.792682945728,14.7560987473,1.0,0.0,0.0,0.0,1.0,0.0,0.0,0.0,1.0,-0.622492431641,-0.402225878906,-9.8784760498,1.0,0.0,0.0,0.0,1.0,0.0,0.0,0.0,1.0
1463504481091763757,882,1463504480165824646,,0.109181657434,1.72641348839,179.342773438,0.0101439999416,1.0,0.0,0.0,0.0,1.0,0.0,0.0,0.0,1.0,29.2073173523,0.426829278469,15.975610733,1.0,0.0,0.0,0.0,1.0,0.0,0.0,0.0,1.0,-0.76614453125,-0.344765039063,-10.0364933594,1.0,0.0,0.0,0.0,1.0,0.0,0.0,0.0,1.0
1463504481091861351,883,1463504480175420496,,0.40715098381,1.73703444004,179.510009766,0.0101680001244,1.0,0.0,0.0,0.0,1.0,0.0,0.0,0.0,1.0,26.5853652954,0.365853667259,16.5243911743,1.0,0.0,0.0,0.0,1.0,0.0,0.0,0.0,1.0,-0.742202514648,-0.383072265625,-9.91678327637,1.0,0.0,0.0,0.0,1.0,0.0,0.0,0.0,1.0
1463504481091996024,884,1463504480188944520,,0.688994586468,1.74289059639,179.670013428,0.0100440001115,1.0,0.0,0.0,0.0,1.0,0.0,0.0,0.0,1.0,25.2439041138,-0.243902444839,15.975610733,1.0,0.0,0.0,0.0,1.0,0.0,0.0,0.0,1.0,-0.694318481445,-0.450109912109,-9.82101520996,1.0,0.0,0.0,0.0,1.0,0.0,0.0,0.0,1.0
1463504481092080755,885,1463504480198037767,,0.956652343273,1.75249040127,179.828338623,0.0102490000427,1.0,0.0,0.0,0.0,1.0,0.0,0.0,0.0,1.0,24.3292694092,0.487804889679,15.4878053665,1.0,0.0,0.0,0.0,1.0,0.0,0.0,0.0,1.0,-0.756567724609,-0.325611425781,-9.95509050293,1.0,0.0,0.0,0.0,1.0,0.0,0.0,0.0,1.0
1463504481092176838,886,1463504480206648514,,1.20095932484,1.75060617924,179.990158081,0.0100360000506,1.0,0.0,0.0,0.0,1.0,0.0,0.0,0.0,1.0,22.7439041138,-0.975609779358,16.158536911,1.0,0.0,0.0,0.0,1.0,0.0,0.0,0.0,1.0,-0.689530078125,-0.339976635742,-10.0939541992,1.0,0.0,0.0,0.0,1.0,0.0,0.0,0.0,1.0
1463504481092237665,887,1463504480216684473,,1.43446528912,1.76032185555,-179.828170776,0.010329999961,1.0,0.0,0.0,0.0,1.0,0.0,0.0,0.0,1.0,20.9146347046,0.243902444839,17.5609760284,1.0,0.0,0.0,0.0,1.0,0.0,0.0,0.0,1.0,-0.699106884766,-0.397437475586,-10.2567599121,1.0,0.0,0.0,0.0,1.0,0.0,0.0,0.0,1.0
1463504481092279431,888,1463504480229424882,,1.73346793652,1.73580467701,-179.618927002,0.0132689997554,1.0,0.0,0.0,0.0,1.0,0.0,0.0,0.0,1.0,19.5731716156,-1.2804877758,15.7317075729,1.0,0.0,0.0,0.0,1.0,0.0,0.0,0.0,1.0,-0.928950244141,-0.684741674805,-10.299855542,1.0,0.0,0.0,0.0,1.0,0.0,0.0,0.0,1.0
1463504481092357600,889,1463504480236249882,,1.87223112583,1.72800779343,-179.519744873,0.00660899979994,1.0,0.0,0.0,0.0,1.0,0.0,0.0,0.0,1.0,18.7804889679,-0.365853667259,14.9390249252,1.0,0.0,0.0,0.0,1.0,0.0,0.0,0.0,1.0,-0.957680664062,-0.598550451572,-10.1466266357,1.0,0.0,0.0,0.0,1.0,0.0,0.0,0.0,1.0
1463504481092413531,890,1463504480246858436,,2.08541464806,1.70029437542,-179.386489868,0.0100419996306,1.0,0.0,0.0,0.0,1.0,0.0,0.0,0.0,1.0,17.9878044128,-2.25609779358,13.2317075729,1.0,0.0,0.0,0.0,1.0,0.0,0.0,0.0,1.0,-0.881066210937,-0.794874951172,-9.84495722656,1.0,0.0,0.0,0.0,1.0,0.0,0.0,0.0,1.0
