%time,field.header.seq,field.header.stamp,field.header.frame_id,field.orientation.x,field.orientation.y,field.orientation.z,field.orientation.w,field.orientation_covariance0,field.orientation_covariance1,field.orientation_covariance2,field.orientation_covariance3,field.orientation_covariance4,field.orientation_covariance5,field.orientation_covariance6,field.orientation_covariance7,field.orientation_covariance8,field.angular_velocity.x,field.angular_velocity.y,field.angular_velocity.z,field.angular_velocity_covariance0,field.angular_velocity_covariance1,field.angular_velocity_covariance2,field.angular_velocity_covariance3,field.angular_velocity_covariance4,field.angular_velocity_covariance5,field.angular_velocity_covariance6,field.angular_velocity_covariance7,field.angular_velocity_covariance8,field.linear_acceleration.x,field.linear_acceleration.y,field.linear_acceleration.z,field.linear_acceleration_covariance0,field.linear_acceleration_covariance1,field.linear_acceleration_covariance2,field.linear_acceleration_covariance3,field.linear_acceleration_covariance4,field.linear_acceleration_covariance5,field.linear_acceleration_covariance6,field.linear_acceleration_covariance7,field.linear_acceleration_covariance8
1463751270158665305,173,1463751270087210923,,-13.8621940613,-25.3949623108,85.1551437378,0.0199790000916,1.0,0.0,0.0,0.0,1.0,0.0,0.0,0.0,1.0,2.07317066193,-0.426829278469,-0.18292683363,1.0,0.0,0.0,0.0,1.0,0.0,0.0,0.0,1.0,-0.780509741211,0.205901342773,-10.3190091553,1.0,0.0,0.0,0.0,1.0,0.0,0.0,0.0,1.0
1463751270158754628,174,1463751270109363745,,-13.5213603973,-24.9310626984,85.0202102661,0.0213970001787,1.0,0.0,0.0,0.0,1.0,0.0,0.0,0.0,1.0,2.13414645195,-0.243902444839,-0.0,1.0,0.0,0.0,0.0,1.0,0.0,0.0,0.0,1.0,-0.794874951172,0.162805712891,-10.2376062988,1.0,0.0,0.0,0.0,1.0,0.0,0.0,0.0,1.0
1463751270158806555,175,1463751270127147211,,-13.245308876,-24.5413665771,84.9130859375,0.0186000000685,1.0,0.0,0.0,0.0,1.0,0.0,0.0,0.0,1.0,2.13414645195,-0.670731723309,-0.12195122242,1.0,0.0,0.0,0.0,1.0,0.0,0.0,0.0,1.0,-0.785298144531,0.277727392578,-10.2328178955,1.0,0.0,0.0,0.0,1.0,0.0,0.0,0.0,1.0
1463751270158870721,176,1463751270147248583,,-12.9541568756,-24.117805481,84.801109314,0.0200139991939,1.0,0.0,0.0,0.0,1.0,0.0,0.0,0.0,1.0,2.07317066193,-0.304878056049,-0.0609756112099,1.0,0.0,0.0,0.0,1.0,0.0,0.0,0.0,1.0,-0.742202514648,0.258573779297,-10.1322614258,1.0,0.0,0.0,0.0,1.0,0.0,0.0,0.0,1.0
1463751270168582919,177,1463751270167096050,,-12.6531000137,-23.7062702179,84.6853866577,0.0199720002711,1.0,0.0,0.0,0.0,1.0,0.0,0.0,0.0,1.0,2.19512200356,-0.487804889679,-0.243902444839,1.0,0.0,0.0,0.0,1.0,0.0,0.0,0.0,1.0,-0.737414111328,0.143652099609,-10.2615483154,1.0,0.0,0.0,0.0,1.0,0.0,0.0,0.0,1.0
1463751270188630177,178,1463751270187214246,,-12.3767290115,-23.2999916077,84.5832672119,0.0199950002134,1.0,0.0,0.0,0.0,1.0,0.0,0.0,0.0,1.0,2.07317066193,-0.365853667259,-0.0609756112099,1.0,0.0,0.0,0.0,1.0,0.0,0.0,0.0,1.0,-0.756567724609,0.258573779297,-10.1466266357,1.0,0.0,0.0,0.0,1.0,0.0,0.0,0.0,1.0
1463751270208400145,179,1463751270207059057,,-12.1059818268,-22.9016399384,84.4868850708,0.0200180001557,1.0,0.0,0.0,0.0,1.0,0.0,0.0,0.0,1.0,2.19512200356,-0.304878056049,-0.0,1.0,0.0,0.0,0.0,1.0,0.0,0.0,0.0,1.0,-0.794874951172,0.272938989258,-10.2759135254,1.0,0.0,0.0,0.0,1.0,0.0,0.0,0.0,1.0
1463751270228492090,180,1463751270227148137,,-11.8384275436,-22.5158462524,84.3932113647,0.0199970006943,1.0,0.0,0.0,0.0,1.0,0.0,0.0,0.0,1.0,2.01219511032,-0.365853667259,0.0609756112099,1.0,0.0,0.0,0.0,1.0,0.0,0.0,0.0,1.0,-0.814028564453,0.201112939453,-10.0891657959,1.0,0.0,0.0,0.0,1.0,0.0,0.0,0.0,1.0
1463751270248502004,181,1463751270247151958,,-11.5786914825,-22.1294879913,84.301109314,0.0200020000339,1.0,0.0,0.0,0.0,1.0,0.0,0.0,0.0,1.0,2.07317066193,-0.304878056049,-0.12195122242,1.0,0.0,0.0,0.0,1.0,0.0,0.0,0.0,1.0,-0.756567724609,0.239420166016,-10.1370498291,1.0,0.0,0.0,0.0,1.0,0.0,0.0,0.0,1.0
1463751270268554731,182,1463751270267122654,,-11.3246135712,-21.7582435608,84.2083511353,0.0199960004538,1.0,0.0,0.0,0.0,1.0,0.0,0.0,0.0,1.0,1.8902438879,-0.426829278469,-0.304878056049,1.0,0.0,0.0,0.0,1.0,0.0,0.0,0.0,1.0,-0.809240161133,0.215478149414,-10.2136642822,1.0,0.0,0.0,0.0,1.0,0.0,0.0,0.0,1.0
1463751270288587406,183,1463751270287183402,,-11.0813064575,-21.3941078186,84.1270523071,0.0200020000339,1.0,0.0,0.0,0.0,1.0,0.0,0.0,0.0,1.0,1.8902438879,-0.548780500889,-0.0,1.0,0.0,0.0,0.0,1.0,0.0,0.0,0.0,1.0,-0.804451757813,0.234631762695,-10.2040874756,1.0,0.0,0.0,0.0,1.0,0.0,0.0,0.0,1.0
1463751270308369613,184,1463751270307012588,,-10.8419542313,-21.0297718048,84.045249939,0.0200009997934,1.0,0.0,0.0,0.0,1.0,0.0,0.0,0.0,1.0,2.13414645195,-0.365853667259,-0.243902444839,1.0,0.0,0.0,0.0,1.0,0.0,0.0,0.0,1.0,-0.775721337891,0.282515795898,-10.2902787354,1.0,0.0,0.0,0.0,1.0,0.0,0.0,0.0,1.0
1463751270331181495,185,1463751270327115783,,-10.5941438675,-20.6701068878,83.9615097046,0.019985999912,1.0,0.0,0.0,0.0,1.0,0.0,0.0,0.0,1.0,2.01219511032,-0.243902444839,-0.18292683363,1.0,0.0,0.0,0.0,1.0,0.0,0.0,0.0,1.0,-0.76135612793,0.134075302102,-10.1705686523,1.0,0.0,0.0,0.0,1.0,0.0,0.0,0.0,1.0
1463751270348680795,186,1463751270347028875,,-10.3588228226,-20.3129959106,83.8857803345,0.020021000877,1.0,0.0,0.0,0.0,1.0,0.0,0.0,0.0,1.0,2.13414645195,-0.304878056049,-0.12195122242,1.0,0.0,0.0,0.0,1.0,0.0,0.0,0.0,1.0,-0.723048901367,0.210689746094,-10.1274730225,1.0,0.0,0.0,0.0,1.0,0.0,0.0,0.0,1.0
1463751270370331275,187,1463751270367187747,,-10.1305446625,-19.9703273773,83.8141555786,0.0199769996107,1.0,0.0,0.0,0.0,1.0,0.0,0.0,0.0,1.0,2.13414645195,-0.426829278469,-0.12195122242,1.0,0.0,0.0,0.0,1.0,0.0,0.0,0.0,1.0,-0.775721337891,0.220266552734,-10.2136642822,1.0,0.0,0.0,0.0,1.0,0.0,0.0,0.0,1.0
1463751270390542230,188,1463751270386969590,,-9.91244983673,-19.6373672485,83.7492980957,0.0200159996748,1.0,0.0,0.0,0.0,1.0,0.0,0.0,0.0,1.0,2.43902444839,-0.426829278469,-0.12195122242,1.0,0.0,0.0,0.0,1.0,0.0,0.0,0.0,1.0,-0.814028564453,0.316034619141,-10.1418382324,1.0,0.0,0.0,0.0,1.0,0.0,0.0,0.0,1.0
1463751270409879960,189,1463751270406989660,,-9.69991779327,-19.3076534271,83.6862411499,0.0199939999729,1.0,0.0,0.0,0.0,1.0,0.0,0.0,0.0,1.0,2.19512200356,-0.243902444839,-0.0609756112099,1.0,0.0,0.0,0.0,1.0,0.0,0.0,0.0,1.0,-0.823605371094,0.277727392578,-10.2136642822,1.0,0.0,0.0,0.0,1.0,0.0,0.0,0.0,1.0
1463751270430194665,190,1463751270427196553,,-9.47970199585,-18.9810085297,83.6148910522,0.0200040005147,1.0,0.0,0.0,0.0,1.0,0.0,0.0,0.0,1.0,2.13414645195,-0.365853667259,-0.426829278469,1.0,0.0,0.0,0.0,1.0,0.0,0.0,0.0,1.0,-0.76135612793,0.181959326172,-10.2567599121,1.0,0.0,0.0,0.0,1.0,0.0,0.0,0.0,1.0
1463751270450473016,191,1463751270447485372,,-9.26550865173,-18.6675243378,83.5532073975,0.0200490001589,1.0,0.0,0.0,0.0,1.0,0.0,0.0,0.0,1.0,2.07317066193,-0.426829278469,-0.0609756112099,1.0,0.0,0.0,0.0,1.0,0.0,0.0,0.0,1.0,-0.818816967773,0.15801730957,-10.0748005859,1.0,0.0,0.0,0.0,1.0,0.0,0.0,0.0,1.0
1463751270469872933,192,1463751270467592995,,-9.06997299194,-18.3551177979,83.4948654175,0.0200020000339,1.0,0.0,0.0,0.0,1.0,0.0,0.0,0.0,1.0,1.76829278469,-0.243902444839,-0.12195122242,1.0,0.0,0.0,0.0,1.0,0.0,0.0,0.0,1.0,-0.818816967773,0.229843359375,-10.2567599121,1.0,0.0,0.0,0.0,1.0,0.0,0.0,0.0,1.0
1463751270490680865,193,1463751270487493378,,-8.87561225891,-18.0581436157,83.4410400391,0.0200030002743,1.0,0.0,0.0,0.0,1.0,0.0,0.0,0.0,1.0,1.95121955872,-0.548780500889,-0.0609756112099,1.0,0.0,0.0,0.0,1.0,0.0,0.0,0.0,1.0,-0.847547387695,0.225054956055,-10.1753570557,1.0,0.0,0.0,0.0,1.0,0.0,0.0,0.0,1.0
1463751270509757398,194,1463751270507503970,,-8.68380355835,-17.7553138733,83.3843841553,0.019991999492,1.0,0.0,0.0,0.0,1.0,0.0,0.0,0.0,1.0,1.8292683363,-0.426829278469,-0.243902444839,1.0,0.0,0.0,0.0,1.0,0.0,0.0,0.0,1.0,-0.76135612793,0.201112939453,-10.2423947021,1.0,0.0,0.0,0.0,1.0,0.0,0.0,0.0,1.0
1463751270529861843,195,1463751270527288573,,-8.49055480957,-17.459526062,83.3286437988,0.0199549999088,1.0,0.0,0.0,0.0,1.0,0.0,0.0,0.0,1.0,2.19512200356,-0.609756112099,-0.365853667259,1.0,0.0,0.0,0.0,1.0,0.0,0.0,0.0,1.0,-0.727837304687,0.215478149414,-10.1753570557,1.0,0.0,0.0,0.0,1.0,0.0,0.0,0.0,1.0
1463751270550143944,196,1463751270547165155,,-8.30044937134,-17.1650218964,83.2777023315,0.0199970006943,1.0,0.0,0.0,0.0,1.0,0.0,0.0,0.0,1.0,2.07317066193,-0.304878056049,-0.12195122242,1.0,0.0,0.0,0.0,1.0,0.0,0.0,0.0,1.0,-0.756567724609,0.177170922852,-10.1897222656,1.0,0.0,0.0,0.0,1.0,0.0,0.0,0.0,1.0
1463751270569849745,197,1463751270567440172,,-8.11696624756,-16.8841495514,83.2286605835,0.0200510006398,1.0,0.0,0.0,0.0,1.0,0.0,0.0,0.0,1.0,2.19512200356,-0.548780500889,-0.243902444839,1.0,0.0,0.0,0.0,1.0,0.0,0.0,0.0,1.0,-0.799663354492,0.229843359375,-10.2711251221,1.0,0.0,0.0,0.0,1.0,0.0,0.0,0.0,1.0
1463751270589712994,198,1463751270587040870,,-7.94094657898,-16.6059246063,83.1816558838,0.0199330002069,1.0,0.0,0.0,0.0,1.0,0.0,0.0,0.0,1.0,2.07317066193,-0.487804889679,-0.243902444839,1.0,0.0,0.0,0.0,1.0,0.0,0.0,0.0,1.0,-0.77093293457,0.229843359375,-10.2711251221,1.0,0.0,0.0,0.0,1.0,0.0,0.0,0.0,1.0
1463751270609168171,199,1463751270607049899,,-7.76915836334,-16.3334159851,83.1376266479,0.0200040005147,1.0,0.0,0.0,0.0,1.0,0.0,0.0,0.0,1.0,2.07317066193,-0.426829278469,-0.18292683363,1.0,0.0,0.0,0.0,1.0,0.0,0.0,0.0,1.0,-0.794874951172,0.234631762695,-10.2376062988,1.0,0.0,0.0,0.0,1.0,0.0,0.0,0.0,1.0
1463751270629459386,200,1463751270627020803,,-7.60448169708,-16.0684528351,83.0998153687,0.0200200006366,1.0,0.0,0.0,0.0,1.0,0.0,0.0,0.0,1.0,2.25609779358,-0.487804889679,-0.0609756112099,1.0,0.0,0.0,0.0,1.0,0.0,0.0,0.0,1.0,-0.804451757813,0.287304199219,-10.1370498291,1.0,0.0,0.0,0.0,1.0,0.0,0.0,0.0,1.0
1463751270649758258,201,1463751270647013842,,-7.43562793732,-15.7983818054,83.0641937256,0.019980000332,1.0,0.0,0.0,0.0,1.0,0.0,0.0,0.0,1.0,2.07317066193,-0.12195122242,0.18292683363,1.0,0.0,0.0,0.0,1.0,0.0,0.0,0.0,1.0,-0.780509741211,0.177170922852,-10.2040874756,1.0,0.0,0.0,0.0,1.0,0.0,0.0,0.0,1.0
1463751270669879578,202,1463751270667110892,,-7.27792596817,-15.5371303558,83.0271148682,0.019999999553,1.0,0.0,0.0,0.0,1.0,0.0,0.0,0.0,1.0,2.07317066193,-0.365853667259,-0.12195122242,1.0,0.0,0.0,0.0,1.0,0.0,0.0,0.0,1.0,-0.756567724609,0.253785375977,-10.0652237793,1.0,0.0,0.0,0.0,1.0,0.0,0.0,0.0,1.0
1463751270689988606,203,1463751270687072838,,-7.11783218384,-15.2840023041,82.9886627197,0.0200309995562,1.0,0.0,0.0,0.0,1.0,0.0,0.0,0.0,1.0,2.25609779358,-0.365853667259,-0.243902444839,1.0,0.0,0.0,0.0,1.0,0.0,0.0,0.0,1.0,-0.790086547852,0.244208569336,-10.1178962158,1.0,0.0,0.0,0.0,1.0,0.0,0.0,0.0,1.0
1463751270709521544,204,1463751270707194158,,-6.97887849808,-15.0507287979,82.953666687,0.0199720002711,1.0,0.0,0.0,0.0,1.0,0.0,0.0,0.0,1.0,1.8902438879,-0.548780500889,-0.304878056049,1.0,0.0,0.0,0.0,1.0,0.0,0.0,0.0,1.0,-0.885854614258,0.330399829102,-10.0843773926,1.0,0.0,0.0,0.0,1.0,0.0,0.0,0.0,1.0
1463751270729534427,205,1463751270727033917,,-6.82094430923,-14.8091449738,82.9177474976,0.020021000877,1.0,0.0,0.0,0.0,1.0,0.0,0.0,0.0,1.0,2.13414645195,-0.487804889679,-0.18292683363,1.0,0.0,0.0,0.0,1.0,0.0,0.0,0.0,1.0,-0.790086547852,0.181959326172,-10.1562034424,1.0,0.0,0.0,0.0,1.0,0.0,0.0,0.0,1.0
1463751270749542883,206,1463751270747077217,,-6.66889333725,-14.5687360764,82.8865127563,0.0199960004538,1.0,0.0,0.0,0.0,1.0,0.0,0.0,0.0,1.0,2.13414645195,-0.609756112099,-0.0609756112099,1.0,0.0,0.0,0.0,1.0,0.0,0.0,0.0,1.0,-0.737414111328,0.196324536133,-10.165780249,1.0,0.0,0.0,0.0,1.0,0.0,0.0,0.0,1.0
1463751270769687380,207,1463751270767051037,,-6.51469135284,-14.3250761032,82.8571777344,0.0200100000948,1.0,0.0,0.0,0.0,1.0,0.0,0.0,0.0,1.0,2.37804889679,-0.365853667259,-0.0,1.0,0.0,0.0,0.0,1.0,0.0,0.0,0.0,1.0,-0.713472094727,0.191536132812,-10.180145459,1.0,0.0,0.0,0.0,1.0,0.0,0.0,0.0,1.0
1463751270789514171,208,1463751270787057775,,-6.37274885178,-14.0900583267,82.8320617676,0.0199660006911,1.0,0.0,0.0,0.0,1.0,0.0,0.0,0.0,1.0,2.01219511032,-0.426829278469,0.12195122242,1.0,0.0,0.0,0.0,1.0,0.0,0.0,0.0,1.0,-0.732625708008,0.196324536133,-10.1274730225,1.0,0.0,0.0,0.0,1.0,0.0,0.0,0.0,1.0
1463751270809265961,209,1463751270807004408,,-6.23186016083,-13.8631725311,82.801399231,0.0200219992548,1.0,0.0,0.0,0.0,1.0,0.0,0.0,0.0,1.0,2.13414645195,-0.487804889679,-0.243902444839,1.0,0.0,0.0,0.0,1.0,0.0,0.0,0.0,1.0,-0.756567724609,0.220266552734,-10.165780249,1.0,0.0,0.0,0.0,1.0,0.0,0.0,0.0,1.0
1463751270829903373,210,1463751270827331613,,-6.10008859634,-13.638168335,82.7731018066,0.0199820008129,1.0,0.0,0.0,0.0,1.0,0.0,0.0,0.0,1.0,2.07317066193,-0.487804889679,-0.243902444839,1.0,0.0,0.0,0.0,1.0,0.0,0.0,0.0,1.0,-0.737414111328,0.263362164351,-10.2567599121,1.0,0.0,0.0,0.0,1.0,0.0,0.0,0.0,1.0
1463751270849787090,211,1463751270847028352,,-5.97020196915,-13.427529335,82.7490615845,0.0200009997934,1.0,0.0,0.0,0.0,1.0,0.0,0.0,0.0,1.0,2.07317066193,-0.426829278469,-0.0609756112099,1.0,0.0,0.0,0.0,1.0,0.0,0.0,0.0,1.0,-0.833182177734,0.244208569336,-10.1035310059,1.0,0.0,0.0,0.0,1.0,0.0,0.0,0.0,1.0
1463751270869905337,212,1463751270867068839,,-5.83713626862,-13.2143411636,82.7226715088,0.019999999553,1.0,0.0,0.0,0.0,1.0,0.0,0.0,0.0,1.0,2.31707310677,-0.609756112099,-0.243902444839,1.0,0.0,0.0,0.0,1.0,0.0,0.0,0.0,1.0,-0.742202514648,0.244208569336,-10.180145459,1.0,0.0,0.0,0.0,1.0,0.0,0.0,0.0,1.0
1463751270890535770,213,1463751270887073024,,-5.70180034637,-13.0028448105,82.6896820068,0.0200120005757,1.0,0.0,0.0,0.0,1.0,0.0,0.0,0.0,1.0,2.01219511032,-0.426829278469,-0.487804889679,1.0,0.0,0.0,0.0,1.0,0.0,0.0,0.0,1.0,-0.751779321289,0.15801730957,-10.2280294922,1.0,0.0,0.0,0.0,1.0,0.0,0.0,0.0,1.0
1463751270909473658,214,1463751270907223094,,-5.57756280899,-12.793507576,82.6705932617,0.0200100000948,1.0,0.0,0.0,0.0,1.0,0.0,0.0,0.0,1.0,2.13414645195,-0.304878056049,0.0609756112099,1.0,0.0,0.0,0.0,1.0,0.0,0.0,0.0,1.0,-0.76614453125,0.229843359375,-10.2088758789,1.0,0.0,0.0,0.0,1.0,0.0,0.0,0.0,1.0
1463751270929610551,215,1463751270927048478,,-5.44946098328,-12.5832967758,82.6479110718,0.0199880003929,1.0,0.0,0.0,0.0,1.0,0.0,0.0,0.0,1.0,2.25609779358,-0.243902444839,-0.12195122242,1.0,0.0,0.0,0.0,1.0,0.0,0.0,0.0,1.0,-0.727837304687,0.201112939453,-10.2328178955,1.0,0.0,0.0,0.0,1.0,0.0,0.0,0.0,1.0
1463751270948787344,216,1463751270947056310,,-5.33180475235,-12.385424614,82.6262893677,0.0200120005757,1.0,0.0,0.0,0.0,1.0,0.0,0.0,0.0,1.0,2.37804889679,-0.365853667259,-0.243902444839,1.0,0.0,0.0,0.0,1.0,0.0,0.0,0.0,1.0,-0.77093293457,0.292092584273,-10.0795889893,1.0,0.0,0.0,0.0,1.0,0.0,0.0,0.0,1.0
1463751270968655800,217,1463751270966989141,,-5.21173906326,-12.1920719147,82.6066513062,0.019974000752,1.0,0.0,0.0,0.0,1.0,0.0,0.0,0.0,1.0,2.01219511032,-0.487804889679,-0.0609756112099,1.0,0.0,0.0,0.0,1.0,0.0,0.0,0.0,1.0,-0.756567724609,0.177170922852,-10.1274730225,1.0,0.0,0.0,0.0,1.0,0.0,0.0,0.0,1.0
1463751270989237535,218,1463751270987113169,,-5.09666204453,-11.9970750809,82.5857620239,0.0200159996748,1.0,0.0,0.0,0.0,1.0,0.0,0.0,0.0,1.0,2.31707310677,-0.243902444839,-0.243902444839,1.0,0.0,0.0,0.0,1.0,0.0,0.0,0.0,1.0,-0.756567724609,0.263362164351,-10.165780249,1.0,0.0,0.0,0.0,1.0,0.0,0.0,0.0,1.0
1463751271009327085,219,1463751271007061105,,-4.99024629593,-11.8091993332,82.5703430176,0.0199989993125,1.0,0.0,0.0,0.0,1.0,0.0,0.0,0.0,1.0,2.19512200356,-0.426829278469,-0.0609756112099,1.0,0.0,0.0,0.0,1.0,0.0,0.0,0.0,1.0,-0.751779321289,0.287304199219,-10.1178962158,1.0,0.0,0.0,0.0,1.0,0.0,0.0,0.0,1.0
1463751271028807158,220,1463751271027070967,,-4.87531471252,-11.6378164291,82.5471191406,0.0199979990721,1.0,0.0,0.0,0.0,1.0,0.0,0.0,0.0,1.0,2.13414645195,-0.365853667259,-0.365853667259,1.0,0.0,0.0,0.0,1.0,0.0,0.0,0.0,1.0,-0.866701000977,0.191536132812,-10.0508585693,1.0,0.0,0.0,0.0,1.0,0.0,0.0,0.0,1.0
1463751271048614261,221,1463751271046991195,,-4.76699590683,-11.4568500519,82.5274887085,0.0199829991907,1.0,0.0,0.0,0.0,1.0,0.0,0.0,0.0,1.0,2.07317066193,-0.243902444839,-0.243902444839,1.0,0.0,0.0,0.0,1.0,0.0,0.0,0.0,1.0,-0.780509741211,0.215478149414,-10.1418382324,1.0,0.0,0.0,0.0,1.0,0.0,0.0,0.0,1.0
1463751271068830528,222,1463751271067067671,,-4.65811157227,-11.2856264114,82.5103607178,0.0200169999152,1.0,0.0,0.0,0.0,1.0,0.0,0.0,0.0,1.0,2.25609779358,-0.487804889679,-0.18292683363,1.0,0.0,0.0,0.0,1.0,0.0,0.0,0.0,1.0,-0.809240161133,0.225054956055,-10.299855542,1.0,0.0,0.0,0.0,1.0,0.0,0.0,0.0,1.0
1463751271088716121,223,1463751271087076075,,-4.54129076004,-11.1280288696,82.4916305542,0.0200030002743,1.0,0.0,0.0,0.0,1.0,0.0,0.0,0.0,1.0,2.13414645195,-0.609756112099,-0.18292683363,1.0,0.0,0.0,0.0,1.0,0.0,0.0,0.0,1.0,-0.876277807617,0.110133276367,-10.2711251221,1.0,0.0,0.0,0.0,1.0,0.0,0.0,0.0,1.0
1463751271108717650,224,1463751271107057292,,-4.43362188339,-10.9601068497,82.4755859375,0.0199979990721,1.0,0.0,0.0,0.0,1.0,0.0,0.0,0.0,1.0,2.13414645195,-0.243902444839,-0.12195122242,1.0,0.0,0.0,0.0,1.0,0.0,0.0,0.0,1.0,-0.814028564453,0.167594116211,-10.180145459,1.0,0.0,0.0,0.0,1.0,0.0,0.0,0.0,1.0
1463751271128751314,225,1463751271127064550,,-4.33634567261,-10.7970180511,82.4647521973,0.0199950002134,1.0,0.0,0.0,0.0,1.0,0.0,0.0,0.0,1.0,2.25609779358,-0.304878056049,-0.0,1.0,0.0,0.0,0.0,1.0,0.0,0.0,0.0,1.0,-0.809240161133,0.253785375977,-10.0556469727,1.0,0.0,0.0,0.0,1.0,0.0,0.0,0.0,1.0
1463751271148837999,226,1463751271147064152,,-4.25411128998,-10.6487426758,82.4517822266,0.0200050007552,1.0,0.0,0.0,0.0,1.0,0.0,0.0,0.0,1.0,1.76829278469,-0.487804889679,-0.18292683363,1.0,0.0,0.0,0.0,1.0,0.0,0.0,0.0,1.0,-0.890643017578,0.292092584273,-10.180145459,1.0,0.0,0.0,0.0,1.0,0.0,0.0,0.0,1.0
1463751271169061037,227,1463751271167047921,,-4.15034389496,-10.4867744446,82.4328994751,0.0199989993125,1.0,0.0,0.0,0.0,1.0,0.0,0.0,0.0,1.0,2.25609779358,-0.243902444839,-0.365853667259,1.0,0.0,0.0,0.0,1.0,0.0,0.0,0.0,1.0,-0.77093293457,0.177170922852,-10.0700121826,1.0,0.0,0.0,0.0,1.0,0.0,0.0,0.0,1.0
1463751271188810172,228,1463751271187080335,,-4.05298042297,-10.3266572952,82.4197387695,0.0200009997934,1.0,0.0,0.0,0.0,1.0,0.0,0.0,0.0,1.0,2.07317066193,-0.365853667259,-0.12195122242,1.0,0.0,0.0,0.0,1.0,0.0,0.0,0.0,1.0,-0.751779321289,0.177170922852,-10.2184526855,1.0,0.0,0.0,0.0,1.0,0.0,0.0,0.0,1.0
1463751271208619410,229,1463751271207015250,,-3.96553516388,-10.1745100021,82.4104537964,0.0199929997325,1.0,0.0,0.0,0.0,1.0,0.0,0.0,0.0,1.0,1.8902438879,-0.487804889679,-0.0,1.0,0.0,0.0,0.0,1.0,0.0,0.0,0.0,1.0,-0.775721337891,0.210689746094,-10.2280294922,1.0,0.0,0.0,0.0,1.0,0.0,0.0,0.0,1.0
1463751271228772136,230,1463751271227055842,,-3.88774037361,-10.0182094574,82.4003372192,0.0200229994953,1.0,0.0,0.0,0.0,1.0,0.0,0.0,0.0,1.0,1.8292683363,-0.365853667259,-0.12195122242,1.0,0.0,0.0,0.0,1.0,0.0,0.0,0.0,1.0,-0.727837304687,0.272938989258,-10.1466266357,1.0,0.0,0.0,0.0,1.0,0.0,0.0,0.0,1.0
1463751271248798561,231,1463751271247052891,,-3.79554462433,-9.87491321564,82.3894805908,0.019985999912,1.0,0.0,0.0,0.0,1.0,0.0,0.0,0.0,1.0,2.31707310677,-0.304878056049,-0.12195122242,1.0,0.0,0.0,0.0,1.0,0.0,0.0,0.0,1.0,-0.823605371094,0.215478149414,-10.1226846191,1.0,0.0,0.0,0.0,1.0,0.0,0.0,0.0,1.0
1463751271271308777,232,1463751271267420773,,-3.70094490051,-9.73460102081,82.3818130493,0.0199890006334,1.0,0.0,0.0,0.0,1.0,0.0,0.0,0.0,1.0,2.19512200356,-0.487804889679,0.0609756112099,1.0,0.0,0.0,0.0,1.0,0.0,0.0,0.0,1.0,-0.809240161133,0.15322890625,-10.314220752,1.0,0.0,0.0,0.0,1.0,0.0,0.0,0.0,1.0
1463751271289578543,233,1463751271287296990,,-3.61772179604,-9.58767795563,82.3739547729,0.0202149990946,1.0,0.0,0.0,0.0,1.0,0.0,0.0,0.0,1.0,2.19512200356,-0.487804889679,-0.0609756112099,1.0,0.0,0.0,0.0,1.0,0.0,0.0,0.0,1.0,-0.732625708008,0.248996972656,-10.2471831055,1.0,0.0,0.0,0.0,1.0,0.0,0.0,0.0,1.0
1463751271309481843,234,1463751271307049354,,-3.53873348236,-9.4495306015,82.3635025024,0.0197960007936,1.0,0.0,0.0,0.0,1.0,0.0,0.0,0.0,1.0,2.31707310677,-0.365853667259,-0.243902444839,1.0,0.0,0.0,0.0,1.0,0.0,0.0,0.0,1.0,-0.775721337891,0.282515795898,-10.1992990723,1.0,0.0,0.0,0.0,1.0,0.0,0.0,0.0,1.0
1463751271329266342,235,1463751271327069633,,-3.46185445786,-9.3170747757,82.3530883789,0.0199960004538,1.0,0.0,0.0,0.0,1.0,0.0,0.0,0.0,1.0,2.19512200356,-0.304878056049,-0.243902444839,1.0,0.0,0.0,0.0,1.0,0.0,0.0,0.0,1.0,-0.814028564453,0.268150604204,-10.0508585693,1.0,0.0,0.0,0.0,1.0,0.0,0.0,0.0,1.0
1463751271349204746,236,1463751271347067933,,-3.37987828255,-9.18150997162,82.3435821533,0.019999999553,1.0,0.0,0.0,0.0,1.0,0.0,0.0,0.0,1.0,2.31707310677,-0.304878056049,-0.18292683363,1.0,0.0,0.0,0.0,1.0,0.0,0.0,0.0,1.0,-0.780509741211,0.234631762695,-10.2711251221,1.0,0.0,0.0,0.0,1.0,0.0,0.0,0.0,1.0
1463751271369587941,237,1463751271367087795,,-3.30116891861,-9.04706382751,82.3350296021,0.0200009997934,1.0,0.0,0.0,0.0,1.0,0.0,0.0,0.0,1.0,2.37804889679,-0.365853667259,-0.18292683363,1.0,0.0,0.0,0.0,1.0,0.0,0.0,0.0,1.0,-0.751779321289,0.258573779297,-10.2232410889,1.0,0.0,0.0,0.0,1.0,0.0,0.0,0.0,1.0
1463751271388981191,238,1463751271387329636,,-3.22767329216,-8.92388057709,82.3255844116,0.0199929997325,1.0,0.0,0.0,0.0,1.0,0.0,0.0,0.0,1.0,2.07317066193,-0.670731723309,-0.243902444839,1.0,0.0,0.0,0.0,1.0,0.0,0.0,0.0,1.0,-0.780509741211,0.239420166016,-10.314220752,1.0,0.0,0.0,0.0,1.0,0.0,0.0,0.0,1.0
1463751271410013445,239,1463751271407028510,,-3.16013216972,-8.80500507355,82.3188400269,0.0200009997934,1.0,0.0,0.0,0.0,1.0,0.0,0.0,0.0,1.0,1.8902438879,-0.487804889679,-0.12195122242,1.0,0.0,0.0,0.0,1.0,0.0,0.0,0.0,1.0,-0.818816967773,0.239420166016,-10.1418382324,1.0,0.0,0.0,0.0,1.0,0.0,0.0,0.0,1.0
1463751271429226904,240,1463751271427000091,,-3.09191417694,-8.68409442902,82.3138504028,0.0199970006943,1.0,0.0,0.0,0.0,1.0,0.0,0.0,0.0,1.0,2.07317066193,-0.487804889679,-0.0609756112099,1.0,0.0,0.0,0.0,1.0,0.0,0.0,0.0,1.0,-0.785298144531,0.253785375977,-10.2136642822,1.0,0.0,0.0,0.0,1.0,0.0,0.0,0.0,1.0
1463751271450020045,241,1463751271447026464,,-3.02439427376,-8.56346321106,82.309677124,0.0200130008161,1.0,0.0,0.0,0.0,1.0,0.0,0.0,0.0,1.0,1.95121955872,-0.243902444839,-0.0,1.0,0.0,0.0,0.0,1.0,0.0,0.0,0.0,1.0,-0.794874951172,0.220266552734,-10.0077629395,1.0,0.0,0.0,0.0,1.0,0.0,0.0,0.0,1.0
1463751271469795689,242,1463751271467049555,,-2.96374678612,-8.44884490967,82.3008575439,0.0199929997325,1.0,0.0,0.0,0.0,1.0,0.0,0.0,0.0,1.0,1.95121955872,-0.487804889679,-0.304878056049,1.0,0.0,0.0,0.0,1.0,0.0,0.0,0.0,1.0,-0.799663354492,0.282515795898,-10.2519715088,1.0,0.0,0.0,0.0,1.0,0.0,0.0,0.0,1.0
1463751271488971076,243,1463751271487030980,,-2.89258551598,-8.3226480484,82.2954025269,0.0199929997325,1.0,0.0,0.0,0.0,1.0,0.0,0.0,0.0,1.0,2.01219511032,-0.304878056049,-0.0609756112099,1.0,0.0,0.0,0.0,1.0,0.0,0.0,0.0,1.0,-0.708683691406,0.181959326172,-10.2567599121,1.0,0.0,0.0,0.0,1.0,0.0,0.0,0.0,1.0
1463751271509528436,244,1463751271507002249,,-2.82822704315,-8.20004463196,82.2941970825,0.019999999553,1.0,0.0,0.0,0.0,1.0,0.0,0.0,0.0,1.0,2.25609779358,-0.304878056049,0.0609756112099,1.0,0.0,0.0,0.0,1.0,0.0,0.0,0.0,1.0,-0.713472094727,0.268150604204,-10.1562034424,1.0,0.0,0.0,0.0,1.0,0.0,0.0,0.0,1.0
1463751271529003821,245,1463751271527011017,,-2.76428151131,-8.09112644196,82.2822341919,0.019999999553,1.0,0.0,0.0,0.0,1.0,0.0,0.0,0.0,1.0,1.8292683363,-0.304878056049,-0.426829278469,1.0,0.0,0.0,0.0,1.0,0.0,0.0,0.0,1.0,-0.809240161133,0.196324536133,-10.1418382324,1.0,0.0,0.0,0.0,1.0,0.0,0.0,0.0,1.0
1463751271549048475,246,1463751271547043953,,-2.69915819168,-7.98137521744,82.276260376,0.0200110003352,1.0,0.0,0.0,0.0,1.0,0.0,0.0,0.0,1.0,2.19512200356,-0.487804889679,-0.18292683363,1.0,0.0,0.0,0.0,1.0,0.0,0.0,0.0,1.0,-0.756567724609,0.234631762695,-10.1992990723,1.0,0.0,0.0,0.0,1.0,0.0,0.0,0.0,1.0
1463751271569389274,247,1463751271566958190,,-2.63741803169,-7.86744403839,82.2715454102,0.0199900008738,1.0,0.0,0.0,0.0,1.0,0.0,0.0,0.0,1.0,2.13414645195,-0.12195122242,-0.12195122242,1.0,0.0,0.0,0.0,1.0,0.0,0.0,0.0,1.0,-0.76135612793,0.239420166016,-10.1562034424,1.0,0.0,0.0,0.0,1.0,0.0,0.0,0.0,1.0
1463751271589023565,248,1463751271587283572,,-2.5756983757,-7.76308202744,82.2655029297,0.0201949998736,1.0,0.0,0.0,0.0,1.0,0.0,0.0,0.0,1.0,1.95121955872,-0.426829278469,-0.18292683363,1.0,0.0,0.0,0.0,1.0,0.0,0.0,0.0,1.0,-0.775721337891,0.201112939453,-10.0843773926,1.0,0.0,0.0,0.0,1.0,0.0,0.0,0.0,1.0
1463751271608610564,249,1463751271607023748,,-2.52007770538,-7.66037893295,82.2617645264,0.0198069997132,1.0,0.0,0.0,0.0,1.0,0.0,0.0,0.0,1.0,2.07317066193,-0.304878056049,-0.12195122242,1.0,0.0,0.0,0.0,1.0,0.0,0.0,0.0,1.0,-0.790086547852,0.258573779297,-10.2567599121,1.0,0.0,0.0,0.0,1.0,0.0,0.0,0.0,1.0
1463751271628917821,250,1463751271627123871,,-2.47167181969,-7.55729007721,82.255531311,0.0200050007552,1.0,0.0,0.0,0.0,1.0,0.0,0.0,0.0,1.0,2.13414645195,-0.18292683363,-0.304878056049,1.0,0.0,0.0,0.0,1.0,0.0,0.0,0.0,1.0,-0.790086547852,0.330399829102,-10.1514150391,1.0,0.0,0.0,0.0,1.0,0.0,0.0,0.0,1.0
1463751271648769611,251,1463751271646949671,,-2.42175126076,-7.46475362778,82.2493896484,0.0199929997325,1.0,0.0,0.0,0.0,1.0,0.0,0.0,0.0,1.0,2.01219511032,-0.853658556938,-0.304878056049,1.0,0.0,0.0,0.0,1.0,0.0,0.0,0.0,1.0,-0.737414111328,0.282515795898,-10.046070166,1.0,0.0,0.0,0.0,1.0,0.0,0.0,0.0,1.0
1463751271669179837,252,1463751271667075106,,-2.36892318726,-7.36737394333,82.2485580444,0.019999999553,1.0,0.0,0.0,0.0,1.0,0.0,0.0,0.0,1.0,2.01219511032,-0.365853667259,-0.0,1.0,0.0,0.0,0.0,1.0,0.0,0.0,0.0,1.0,-0.775721337891,0.244208569336,-10.1562034424,1.0,0.0,0.0,0.0,1.0,0.0,0.0,0.0,1.0
1463751271688833034,253,1463751271687081166,,-2.30853247643,-7.2652926445,82.2489318848,0.0200020000339,1.0,0.0,0.0,0.0,1.0,0.0,0.0,0.0,1.0,2.31707310677,-0.487804889679,0.0609756112099,1.0,0.0,0.0,0.0,1.0,0.0,0.0,0.0,1.0,-0.694318481445,0.220266552734,-10.1562034424,1.0,0.0,0.0,0.0,1.0,0.0,0.0,0.0,1.0
1463751271709115395,254,1463751271707452381,,-2.25141572952,-7.16651248932,82.247177124,0.0200089998543,1.0,0.0,0.0,0.0,1.0,0.0,0.0,0.0,1.0,2.25609779358,-0.426829278469,-0.0609756112099,1.0,0.0,0.0,0.0,1.0,0.0,0.0,0.0,1.0,-0.713472094727,0.229843359375,-10.1178962158,1.0,0.0,0.0,0.0,1.0,0.0,0.0,0.0,1.0
1463751271728713176,255,1463751271726957558,,-2.20039486885,-7.07288455963,82.2473449707,0.019985999912,1.0,0.0,0.0,0.0,1.0,0.0,0.0,0.0,1.0,2.19512200356,-0.487804889679,-0.0,1.0,0.0,0.0,0.0,1.0,0.0,0.0,0.0,1.0,-0.737414111328,0.263362164351,-10.2088758789,1.0,0.0,0.0,0.0,1.0,0.0,0.0,0.0,1.0
1463751271748647362,256,1463751271746976744,,-2.15166282654,-6.98191261292,82.2433013916,0.0199989993125,1.0,0.0,0.0,0.0,1.0,0.0,0.0,0.0,1.0,2.31707310677,-0.487804889679,-0.243902444839,1.0,0.0,0.0,0.0,1.0,0.0,0.0,0.0,1.0,-0.742202514648,0.301669427446,-10.1897222656,1.0,0.0,0.0,0.0,1.0,0.0,0.0,0.0,1.0
1463751271769283627,257,1463751271767277803,,-2.10390782356,-6.89770317078,82.2423248291,0.0200490001589,1.0,0.0,0.0,0.0,1.0,0.0,0.0,0.0,1.0,2.07317066193,-0.304878056049,-0.0609756112099,1.0,0.0,0.0,0.0,1.0,0.0,0.0,0.0,1.0,-0.818816967773,0.253785375977,-10.1370498291,1.0,0.0,0.0,0.0,1.0,0.0,0.0,0.0,1.0
1463751271788879012,258,1463751271787241519,,-2.0646545887,-6.81053304672,82.2426223755,0.0199759993702,1.0,0.0,0.0,0.0,1.0,0.0,0.0,0.0,1.0,2.19512200356,-0.18292683363,-0.0609756112099,1.0,0.0,0.0,0.0,1.0,0.0,0.0,0.0,1.0,-0.804451757813,0.344765039063,-10.2376062988,1.0,0.0,0.0,0.0,1.0,0.0,0.0,0.0,1.0
1463751271808803719,259,1463751271807186538,,-2.01263737679,-6.7262263298,82.2377319336,0.0199909992516,1.0,0.0,0.0,0.0,1.0,0.0,0.0,0.0,1.0,2.13414645195,-0.304878056049,-0.243902444839,1.0,0.0,0.0,0.0,1.0,0.0,0.0,0.0,1.0,-0.790086547852,0.215478149414,-10.2184526855,1.0,0.0,0.0,0.0,1.0,0.0,0.0,0.0,1.0
1463751271828908998,260,1463751271827256400,,-1.95609259605,-6.64520788193,82.2325668335,0.0200919993222,1.0,0.0,0.0,0.0,1.0,0.0,0.0,0.0,1.0,2.19512200356,-0.365853667259,-0.243902444839,1.0,0.0,0.0,0.0,1.0,0.0,0.0,0.0,1.0,-0.790086547852,0.177170922852,-10.1274730225,1.0,0.0,0.0,0.0,1.0,0.0,0.0,0.0,1.0
1463751271848766777,261,1463751271847097514,,-1.90974843502,-6.56009912491,82.229637146,0.0199040006846,1.0,0.0,0.0,0.0,1.0,0.0,0.0,0.0,1.0,2.07317066193,-0.487804889679,-0.18292683363,1.0,0.0,0.0,0.0,1.0,0.0,0.0,0.0,1.0,-0.723048901367,0.234631762695,-10.3046439453,1.0,0.0,0.0,0.0,1.0,0.0,0.0,0.0,1.0
1463751271870782516,262,1463751271867075709,,-1.86905360222,-6.47991609573,82.2276000977,0.0200120005757,1.0,0.0,0.0,0.0,1.0,0.0,0.0,0.0,1.0,2.13414645195,-0.548780500889,-0.18292683363,1.0,0.0,0.0,0.0,1.0,0.0,0.0,0.0,1.0,-0.737414111328,0.287304199219,-10.1897222656,1.0,0.0,0.0,0.0,1.0,0.0,0.0,0.0,1.0
1463751271889160407,263,1463751271887045364,,-1.82680237293,-6.39917564392,82.2251739502,0.0199989993125,1.0,0.0,0.0,0.0,1.0,0.0,0.0,0.0,1.0,2.13414645195,-0.18292683363,-0.18292683363,1.0,0.0,0.0,0.0,1.0,0.0,0.0,0.0,1.0,-0.775721337891,0.263362164351,-10.0891657959,1.0,0.0,0.0,0.0,1.0,0.0,0.0,0.0,1.0
1463751271908796625,264,1463751271907107882,,-1.78915703297,-6.32372665405,82.220993042,0.0199870001525,1.0,0.0,0.0,0.0,1.0,0.0,0.0,0.0,1.0,2.07317066193,-0.609756112099,-0.304878056049,1.0,0.0,0.0,0.0,1.0,0.0,0.0,0.0,1.0,-0.742202514648,0.292092584273,-10.2376062988,1.0,0.0,0.0,0.0,1.0,0.0,0.0,0.0,1.0
1463751271928825185,265,1463751271927172640,,-1.74277901649,-6.24612045288,82.2209243774,0.0199929997325,1.0,0.0,0.0,0.0,1.0,0.0,0.0,0.0,1.0,2.25609779358,-0.243902444839,-0.0609756112099,1.0,0.0,0.0,0.0,1.0,0.0,0.0,0.0,1.0,-0.775721337891,0.234631762695,-10.2232410889,1.0,0.0,0.0,0.0,1.0,0.0,0.0,0.0,1.0
1463751271948638902,266,1463751271947017920,,-1.69902825356,-6.18615341187,82.2175827026,0.0200139991939,1.0,0.0,0.0,0.0,1.0,0.0,0.0,0.0,1.0,2.19512200356,-0.548780500889,-0.243902444839,1.0,0.0,0.0,0.0,1.0,0.0,0.0,0.0,1.0,-0.871489404297,0.244208569336,-10.285490332,1.0,0.0,0.0,0.0,1.0,0.0,0.0,0.0,1.0
1463751271968961784,267,1463751271967048042,,-1.65762257576,-6.10994195938,82.2156677246,0.0199970006943,1.0,0.0,0.0,0.0,1.0,0.0,0.0,0.0,1.0,2.19512200356,-0.426829278469,-0.18292683363,1.0,0.0,0.0,0.0,1.0,0.0,0.0,0.0,1.0,-0.727837304687,0.253785375977,-10.1945106689,1.0,0.0,0.0,0.0,1.0,0.0,0.0,0.0,1.0
1463751271988778054,268,1463751271987154623,,-1.6117837429,-6.03064823151,82.2153778076,0.0199839994311,1.0,0.0,0.0,0.0,1.0,0.0,0.0,0.0,1.0,2.07317066193,-0.243902444839,-0.0609756112099,1.0,0.0,0.0,0.0,1.0,0.0,0.0,0.0,1.0,-0.718260498047,0.181959326172,-10.180145459,1.0,0.0,0.0,0.0,1.0,0.0,0.0,0.0,1.0
1463751272012243162,269,1463751272007072038,,-1.58434176445,-5.97383642197,82.2159805298,0.0200009997934,1.0,0.0,0.0,0.0,1.0,0.0,0.0,0.0,1.0,2.01219511032,-0.731707334518,-0.12195122242,1.0,0.0,0.0,0.0,1.0,0.0,0.0,0.0,1.0,-0.823605371094,0.330399829102,-10.2280294922,1.0,0.0,0.0,0.0,1.0,0.0,0.0,0.0,1.0
1463751272029104652,270,1463751272027173098,,-1.54034411907,-5.91392612457,82.2175979614,0.019999999553,1.0,0.0,0.0,0.0,1.0,0.0,0.0,0.0,1.0,2.19512200356,-0.548780500889,-0.0,1.0,0.0,0.0,0.0,1.0,0.0,0.0,0.0,1.0,-0.814028564453,0.205901342773,-10.1705686523,1.0,0.0,0.0,0.0,1.0,0.0,0.0,0.0,1.0
1463751272052308407,271,1463751272047088169,,-1.49173986912,-5.84496068954,82.2185974121,0.0200139991939,1.0,0.0,0.0,0.0,1.0,0.0,0.0,0.0,1.0,2.19512200356,-0.243902444839,-0.0,1.0,0.0,0.0,0.0,1.0,0.0,0.0,0.0,1.0,-0.780509741211,0.15801730957,-10.2184526855,1.0,0.0,0.0,0.0,1.0,0.0,0.0,0.0,1.0
1463751272068654743,272,1463751272067105375,,-1.45328950882,-5.78861427307,82.2144088745,0.0200309995562,1.0,0.0,0.0,0.0,1.0,0.0,0.0,0.0,1.0,2.07317066193,-0.365853667259,-0.304878056049,1.0,0.0,0.0,0.0,1.0,0.0,0.0,0.0,1.0,-0.861912597656,0.225054956055,-10.2471831055,1.0,0.0,0.0,0.0,1.0,0.0,0.0,0.0,1.0
1463751272088611116,273,1463751272087067738,,-1.41518187523,-5.72272777557,82.2144393921,0.0199519991875,1.0,0.0,0.0,0.0,1.0,0.0,0.0,0.0,1.0,2.25609779358,-0.609756112099,-0.12195122242,1.0,0.0,0.0,0.0,1.0,0.0,0.0,0.0,1.0,-0.718260498047,0.248996972656,-10.2328178955,1.0,0.0,0.0,0.0,1.0,0.0,0.0,0.0,1.0
1463751272108694728,274,1463751272107151089,,-1.37755060196,-5.66343832016,82.2130126953,0.019999999553,1.0,0.0,0.0,0.0,1.0,0.0,0.0,0.0,1.0,2.19512200356,-0.243902444839,-0.18292683363,1.0,0.0,0.0,0.0,1.0,0.0,0.0,0.0,1.0,-0.823605371094,0.234631762695,-10.1083194092,1.0,0.0,0.0,0.0,1.0,0.0,0.0,0.0,1.0
1463751272128816049,275,1463751272127211160,,-1.34244716167,-5.59533548355,82.2107086182,0.020021000877,1.0,0.0,0.0,0.0,1.0,0.0,0.0,0.0,1.0,2.19512200356,-0.365853667259,-0.243902444839,1.0,0.0,0.0,0.0,1.0,0.0,0.0,0.0,1.0,-0.718260498047,0.253785375977,-10.1897222656,1.0,0.0,0.0,0.0,1.0,0.0,0.0,0.0,1.0
1463751272148596641,276,1463751272147013210,,-1.30462813377,-5.51199579239,82.2079086304,0.0199820008129,1.0,0.0,0.0,0.0,1.0,0.0,0.0,0.0,1.0,2.07317066193,-0.304878056049,-0.243902444839,1.0,0.0,0.0,0.0,1.0,0.0,0.0,0.0,1.0,-0.579396801758,0.201112939453,-10.2136642822,1.0,0.0,0.0,0.0,1.0,0.0,0.0,0.0,1.0
1463751272169055356,277,1463751272167431040,,-1.26681530476,-5.45405340195,82.19921875,0.0200120005757,1.0,0.0,0.0,0.0,1.0,0.0,0.0,0.0,1.0,2.13414645195,-0.426829278469,-0.548780500889,1.0,0.0,0.0,0.0,1.0,0.0,0.0,0.0,1.0,-0.77093293457,0.210689746094,-10.1992990723,1.0,0.0,0.0,0.0,1.0,0.0,0.0,0.0,1.0
1463751272188652616,278,1463751272187039185,,-1.2353938818,-5.39318561554,82.2009963989,0.0199820008129,1.0,0.0,0.0,0.0,1.0,0.0,0.0,0.0,1.0,2.25609779358,-0.18292683363,-0.0609756112099,1.0,0.0,0.0,0.0,1.0,0.0,0.0,0.0,1.0,-0.76135612793,0.268150604204,-9.96466730957,1.0,0.0,0.0,0.0,1.0,0.0,0.0,0.0,1.0
1463751272208688207,279,1463751272207130558,,-1.19722414017,-5.34209728241,82.1969833374,0.0200089998543,1.0,0.0,0.0,0.0,1.0,0.0,0.0,0.0,1.0,2.07317066193,-0.243902444839,-0.304878056049,1.0,0.0,0.0,0.0,1.0,0.0,0.0,0.0,1.0,-0.833182177734,0.177170922852,-10.0508585693,1.0,0.0,0.0,0.0,1.0,0.0,0.0,0.0,1.0
1463751272229069005,280,1463751272227472189,,-1.16212439537,-5.28027009964,82.1949539185,0.0200180001557,1.0,0.0,0.0,0.0,1.0,0.0,0.0,0.0,1.0,2.31707310677,-0.243902444839,-0.243902444839,1.0,0.0,0.0,0.0,1.0,0.0,0.0,0.0,1.0,-0.742202514648,0.244208569336,-10.2328178955,1.0,0.0,0.0,0.0,1.0,0.0,0.0,0.0,1.0
1463751272248661630,281,1463751272247048616,,-1.12620306015,-5.22062397003,82.1985626221,0.0199989993125,1.0,0.0,0.0,0.0,1.0,0.0,0.0,0.0,1.0,2.07317066193,-0.365853667259,0.0609756112099,1.0,0.0,0.0,0.0,1.0,0.0,0.0,0.0,1.0,-0.732625708008,0.181959326172,-10.2807019287,1.0,0.0,0.0,0.0,1.0,0.0,0.0,0.0,1.0
1463751272268752169,282,1463751272267099885,,-1.08089256287,-5.17085647583,82.1966018677,0.0199810005724,1.0,0.0,0.0,0.0,1.0,0.0,0.0,0.0,1.0,2.13414645195,-0.487804889679,-0.18292683363,1.0,0.0,0.0,0.0,1.0,0.0,0.0,0.0,1.0,-0.790086547852,0.105344873047,-10.3046439453,1.0,0.0,0.0,0.0,1.0,0.0,0.0,0.0,1.0
1463751272288689532,283,1463751272287088966,,-1.0463796854,-5.12496376038,82.1943664551,0.0200100000948,1.0,0.0,0.0,0.0,1.0,0.0,0.0,0.0,1.0,2.07317066193,-0.548780500889,-0.243902444839,1.0,0.0,0.0,0.0,1.0,0.0,0.0,0.0,1.0,-0.790086547852,0.181959326172,-10.1035310059,1.0,0.0,0.0,0.0,1.0,0.0,0.0,0.0,1.0
1463751272309536161,284,1463751272307050964,,-1.0262349844,-5.0751543045,82.1957397461,0.0200030002743,1.0,0.0,0.0,0.0,1.0,0.0,0.0,0.0,1.0,2.01219511032,-0.487804889679,-0.12195122242,1.0,0.0,0.0,0.0,1.0,0.0,0.0,0.0,1.0,-0.76135612793,0.292092584273,-10.1466266357,1.0,0.0,0.0,0.0,1.0,0.0,0.0,0.0,1.0
1463751272328984776,285,1463751272327365773,,-0.997027695179,-5.02789115906,82.1943740845,0.0200159996748,1.0,0.0,0.0,0.0,1.0,0.0,0.0,0.0,1.0,2.31707310677,-0.365853667259,-0.243902444839,1.0,0.0,0.0,0.0,1.0,0.0,0.0,0.0,1.0,-0.794874951172,0.263362164351,-10.1178962158,1.0,0.0,0.0,0.0,1.0,0.0,0.0,0.0,1.0
1463751272348734067,286,1463751272347118345,,-0.974783480167,-4.97942399979,82.1944732666,0.0199829991907,1.0,0.0,0.0,0.0,1.0,0.0,0.0,0.0,1.0,2.13414645195,-0.243902444839,-0.18292683363,1.0,0.0,0.0,0.0,1.0,0.0,0.0,0.0,1.0,-0.799663354492,0.287304199219,-10.1514150391,1.0,0.0,0.0,0.0,1.0,0.0,0.0,0.0,1.0
1463751272368713148,287,1463751272367071645,,-0.951445698738,-4.93553972244,82.1928710938,0.0199989993125,1.0,0.0,0.0,0.0,1.0,0.0,0.0,0.0,1.0,1.8292683363,-0.670731723309,-0.243902444839,1.0,0.0,0.0,0.0,1.0,0.0,0.0,0.0,1.0,-0.756567724609,0.220266552734,-10.165780249,1.0,0.0,0.0,0.0,1.0,0.0,0.0,0.0,1.0
1463751272388727594,288,1463751272387118121,,-0.923575043678,-4.8873257637,82.189994812,0.0199979990721,1.0,0.0,0.0,0.0,1.0,0.0,0.0,0.0,1.0,2.07317066193,-0.304878056049,-0.304878056049,1.0,0.0,0.0,0.0,1.0,0.0,0.0,0.0,1.0,-0.775721337891,0.220266552734,-10.1705686523,1.0,0.0,0.0,0.0,1.0,0.0,0.0,0.0,1.0
1463751272409028236,289,1463751272407093661,,-0.903054177761,-4.83942222595,82.1935424805,0.0200040005147,1.0,0.0,0.0,0.0,1.0,0.0,0.0,0.0,1.0,1.8902438879,-0.365853667259,-0.0,1.0,0.0,0.0,0.0,1.0,0.0,0.0,0.0,1.0,-0.76135612793,0.244208569336,-10.1897222656,1.0,0.0,0.0,0.0,1.0,0.0,0.0,0.0,1.0
1463751272428767943,290,1463751272427061492,,-0.875078260899,-4.79550695419,82.1946868896,0.0199870001525,1.0,0.0,0.0,0.0,1.0,0.0,0.0,0.0,1.0,2.25609779358,-0.487804889679,-0.12195122242,1.0,0.0,0.0,0.0,1.0,0.0,0.0,0.0,1.0,-0.76135612793,0.239420166016,-10.1274730225,1.0,0.0,0.0,0.0,1.0,0.0,0.0,0.0,1.0
1463751272448690723,291,1463751272447092136,,-0.852468550205,-4.75611829758,82.1982040405,0.0200130008161,1.0,0.0,0.0,0.0,1.0,0.0,0.0,0.0,1.0,1.95121955872,-0.487804889679,-0.0,1.0,0.0,0.0,0.0,1.0,0.0,0.0,0.0,1.0,-0.790086547852,0.225054956055,-10.0652237793,1.0,0.0,0.0,0.0,1.0,0.0,0.0,0.0,1.0
1463751272468730377,292,1463751272467095540,,-0.827557504177,-4.71629333496,82.1992645264,0.0199929997325,1.0,0.0,0.0,0.0,1.0,0.0,0.0,0.0,1.0,2.07317066193,-0.365853667259,-0.12195122242,1.0,0.0,0.0,0.0,1.0,0.0,0.0,0.0,1.0,-0.804451757813,0.225054956055,-10.1178962158,1.0,0.0,0.0,0.0,1.0,0.0,0.0,0.0,1.0
1463751272488648885,293,1463751272487036757,,-0.806390941143,-4.683822155,82.1984329224,0.0200009997934,1.0,0.0,0.0,0.0,1.0,0.0,0.0,0.0,1.0,2.19512200356,-0.426829278469,-0.243902444839,1.0,0.0,0.0,0.0,1.0,0.0,0.0,0.0,1.0,-0.852335791016,0.277727392578,-10.1178962158,1.0,0.0,0.0,0.0,1.0,0.0,0.0,0.0,1.0
1463751272509001298,294,1463751272507055369,,-0.780814707279,-4.6404967308,82.2021331787,0.020021000877,1.0,0.0,0.0,0.0,1.0,0.0,0.0,0.0,1.0,2.19512200356,-0.426829278469,-0.0,1.0,0.0,0.0,0.0,1.0,0.0,0.0,0.0,1.0,-0.76135612793,0.234631762695,-10.2711251221,1.0,0.0,0.0,0.0,1.0,0.0,0.0,0.0,1.0
1463751272528785120,295,1463751272527091794,,-0.761159956455,-4.59792089462,82.1995620728,0.0199890006334,1.0,0.0,0.0,0.0,1.0,0.0,0.0,0.0,1.0,1.76829278469,-0.548780500889,-0.304878056049,1.0,0.0,0.0,0.0,1.0,0.0,0.0,0.0,1.0,-0.737414111328,0.210689746094,-10.2807019287,1.0,0.0,0.0,0.0,1.0,0.0,0.0,0.0,1.0
1463751272548631754,296,1463751272547023271,,-0.735289514065,-4.55844783783,82.2007751465,0.0199979990721,1.0,0.0,0.0,0.0,1.0,0.0,0.0,0.0,1.0,2.19512200356,-0.365853667259,-0.12195122242,1.0,0.0,0.0,0.0,1.0,0.0,0.0,0.0,1.0,-0.790086547852,0.225054956055,-10.2567599121,1.0,0.0,0.0,0.0,1.0,0.0,0.0,0.0,1.0
1463751272568722137,297,1463751272567092560,,-0.715534389019,-4.52420568466,82.1960296631,0.0199890006334,1.0,0.0,0.0,0.0,1.0,0.0,0.0,0.0,1.0,1.95121955872,-0.426829278469,-0.426829278469,1.0,0.0,0.0,0.0,1.0,0.0,0.0,0.0,1.0,-0.814028564453,0.234631762695,-10.1992990723,1.0,0.0,0.0,0.0,1.0,0.0,0.0,0.0,1.0
1463751272588760541,298,1463751272587131485,,-0.698957264423,-4.47341060638,82.2035980225,0.0200069993734,1.0,0.0,0.0,0.0,1.0,0.0,0.0,0.0,1.0,1.8902438879,-0.304878056049,0.18292683363,1.0,0.0,0.0,0.0,1.0,0.0,0.0,0.0,1.0,-0.679953271484,0.239420166016,-10.1705686523,1.0,0.0,0.0,0.0,1.0,0.0,0.0,0.0,1.0
1463751272609024673,299,1463751272607092285,,-0.660586595535,-4.43999481201,82.1969146729,0.0200030002743,1.0,0.0,0.0,0.0,1.0,0.0,0.0,0.0,1.0,2.43902444839,-0.304878056049,-0.487804889679,1.0,0.0,0.0,0.0,1.0,0.0,0.0,0.0,1.0,-0.823605371094,0.148440512063,-10.1418382324,1.0,0.0,0.0,0.0,1.0,0.0,0.0,0.0,1.0
1463751272628834900,300,1463751272627150012,,-0.639364600182,-4.39397668839,82.202255249,0.0199970006943,1.0,0.0,0.0,0.0,1.0,0.0,0.0,0.0,1.0,2.25609779358,-0.243902444839,0.0609756112099,1.0,0.0,0.0,0.0,1.0,0.0,0.0,0.0,1.0,-0.727837304687,0.258573779297,-10.3046439453,1.0,0.0,0.0,0.0,1.0,0.0,0.0,0.0,1.0
1463751272649028043,301,1463751272647423623,,-0.625766992569,-4.36314344406,82.2004165649,0.0200009997934,1.0,0.0,0.0,0.0,1.0,0.0,0.0,0.0,1.0,1.95121955872,-0.304878056049,-0.304878056049,1.0,0.0,0.0,0.0,1.0,0.0,0.0,0.0,1.0,-0.828393774414,0.268150604204,-10.0843773926,1.0,0.0,0.0,0.0,1.0,0.0,0.0,0.0,1.0
1463751272668673636,302,1463751272667037081,,-0.60139131546,-4.32586622238,82.2004776001,0.0199970006943,1.0,0.0,0.0,0.0,1.0,0.0,0.0,0.0,1.0,2.13414645195,-0.365853667259,-0.18292683363,1.0,0.0,0.0,0.0,1.0,0.0,0.0,0.0,1.0,-0.756567724609,0.201112939453,-10.1131078125,1.0,0.0,0.0,0.0,1.0,0.0,0.0,0.0,1.0
1463751272688660738,303,1463751272687043245,,-0.580608248711,-4.28982019424,82.1995925903,0.0200050007552,1.0,0.0,0.0,0.0,1.0,0.0,0.0,0.0,1.0,2.13414645195,-0.365853667259,-0.243902444839,1.0,0.0,0.0,0.0,1.0,0.0,0.0,0.0,1.0,-0.76135612793,0.229843359375,-10.1178962158,1.0,0.0,0.0,0.0,1.0,0.0,0.0,0.0,1.0
1463751272709036120,304,1463751272707091441,,-0.553442656994,-4.26559591293,82.2003479004,0.0199829991907,1.0,0.0,0.0,0.0,1.0,0.0,0.0,0.0,1.0,1.8902438879,-0.548780500889,-0.12195122242,1.0,0.0,0.0,0.0,1.0,0.0,0.0,0.0,1.0,-0.833182177734,0.124498486328,-10.180145459,1.0,0.0,0.0,0.0,1.0,0.0,0.0,0.0,1.0
1463751272728733328,305,1463751272727084793,,-0.527984857559,-4.22255897522,82.2019042969,0.0200120005757,1.0,0.0,0.0,0.0,1.0,0.0,0.0,0.0,1.0,2.37804889679,-0.18292683363,-0.12195122242,1.0,0.0,0.0,0.0,1.0,0.0,0.0,0.0,1.0,-0.732625708008,0.225054956055,-10.2807019287,1.0,0.0,0.0,0.0,1.0,0.0,0.0,0.0,1.0
1463751272749275896,306,1463751272747110280,,-0.516492187977,-4.20046472549,82.2064361572,0.0200169999152,1.0,0.0,0.0,0.0,1.0,0.0,0.0,0.0,1.0,2.01219511032,-0.426829278469,-0.0,1.0,0.0,0.0,0.0,1.0,0.0,0.0,0.0,1.0,-0.866701000977,0.277727392578,-10.2232410889,1.0,0.0,0.0,0.0,1.0,0.0,0.0,0.0,1.0
1463751272768734927,307,1463751272767007279,,-0.487974733114,-4.17453050613,82.200340271,0.0199730005115,1.0,0.0,0.0,0.0,1.0,0.0,0.0,0.0,1.0,2.25609779358,-0.426829278469,-0.487804889679,1.0,0.0,0.0,0.0,1.0,0.0,0.0,0.0,1.0,-0.828393774414,0.172382519531,-10.2471831055,1.0,0.0,0.0,0.0,1.0,0.0,0.0,0.0,1.0
1463751272789238590,308,1463751272787093182,,-0.478687673807,-4.14618206024,82.2040176392,0.0200149994344,1.0,0.0,0.0,0.0,1.0,0.0,0.0,0.0,1.0,2.13414645195,-0.487804889679,-0.0609756112099,1.0,0.0,0.0,0.0,1.0,0.0,0.0,0.0,1.0,-0.785298144531,0.31124621582,-10.1609918457,1.0,0.0,0.0,0.0,1.0,0.0,0.0,0.0,1.0
1463751272809975272,309,1463751272806969347,,-0.462303638458,-4.11549329758,82.2060012817,0.0199839994311,1.0,0.0,0.0,0.0,1.0,0.0,0.0,0.0,1.0,2.19512200356,-0.304878056049,-0.12195122242,1.0,0.0,0.0,0.0,1.0,0.0,0.0,0.0,1.0,-0.794874951172,0.258573779297,-10.2040874756,1.0,0.0,0.0,0.0,1.0,0.0,0.0,0.0,1.0
1463751272829388939,310,1463751272827145563,,-0.438915371895,-4.08774471283,82.2039260864,0.0199989993125,1.0,0.0,0.0,0.0,1.0,0.0,0.0,0.0,1.0,2.25609779358,-0.365853667259,-0.304878056049,1.0,0.0,0.0,0.0,1.0,0.0,0.0,0.0,1.0,-0.804451757813,0.205901342773,-10.1992990723,1.0,0.0,0.0,0.0,1.0,0.0,0.0,0.0,1.0
1463751272849611248,311,1463751272847113811,,-0.425479918718,-4.0658698082,82.2035064697,0.0200040005147,1.0,0.0,0.0,0.0,1.0,0.0,0.0,0.0,1.0,2.07317066193,-0.304878056049,-0.243902444839,1.0,0.0,0.0,0.0,1.0,0.0,0.0,0.0,1.0,-0.866701000977,0.258573779297,-10.2328178955,1.0,0.0,0.0,0.0,1.0,0.0,0.0,0.0,1.0
1463751272869595642,312,1463751272867442526,,-0.406185150146,-4.02764987946,82.2063446045,0.020046999678,1.0,0.0,0.0,0.0,1.0,0.0,0.0,0.0,1.0,2.07317066193,-0.18292683363,-0.0609756112099,1.0,0.0,0.0,0.0,1.0,0.0,0.0,0.0,1.0,-0.737414111328,0.201112939453,-10.2328178955,1.0,0.0,0.0,0.0,1.0,0.0,0.0,0.0,1.0
1463751272889145142,313,1463751272887033797,,-0.387457579374,-4.0035572052,82.2067871094,0.0199500005692,1.0,0.0,0.0,0.0,1.0,0.0,0.0,0.0,1.0,2.07317066193,-0.365853667259,-0.18292683363,1.0,0.0,0.0,0.0,1.0,0.0,0.0,0.0,1.0,-0.814028564453,0.201112939453,-10.1083194092,1.0,0.0,0.0,0.0,1.0,0.0,0.0,0.0,1.0
1463751272910688852,314,1463751272907734021,,-0.375924348831,-3.96617221832,82.2063293457,0.0200769994408,1.0,0.0,0.0,0.0,1.0,0.0,0.0,0.0,1.0,1.95121955872,-0.18292683363,-0.243902444839,1.0,0.0,0.0,0.0,1.0,0.0,0.0,0.0,1.0,-0.732625708008,0.244208569336,-10.2136642822,1.0,0.0,0.0,0.0,1.0,0.0,0.0,0.0,1.0
1463751272929341272,315,1463751272927195135,,-0.359057575464,-3.95207357407,82.2082138062,0.0199490003288,1.0,0.0,0.0,0.0,1.0,0.0,0.0,0.0,1.0,2.13414645195,-0.487804889679,-0.12195122242,1.0,0.0,0.0,0.0,1.0,0.0,0.0,0.0,1.0,-0.881066210937,0.225054956055,-10.2232410889,1.0,0.0,0.0,0.0,1.0,0.0,0.0,0.0,1.0
1463751272949624935,316,1463751272947316872,,-0.347912877798,-3.92799949646,82.209022522,0.0199779998511,1.0,0.0,0.0,0.0,1.0,0.0,0.0,0.0,1.0,1.95121955872,-0.365853667259,-0.18292683363,1.0,0.0,0.0,0.0,1.0,0.0,0.0,0.0,1.0,-0.818816967773,0.244208569336,-10.3333743652,1.0,0.0,0.0,0.0,1.0,0.0,0.0,0.0,1.0
1463751272969551413,317,1463751272967150329,,-0.324555397034,-3.9016726017,82.2119369507,0.0199989993125,1.0,0.0,0.0,0.0,1.0,0.0,0.0,0.0,1.0,2.31707310677,-0.365853667259,-0.0609756112099,1.0,0.0,0.0,0.0,1.0,0.0,0.0,0.0,1.0,-0.775721337891,0.191536132812,-10.0939541992,1.0,0.0,0.0,0.0,1.0,0.0,0.0,0.0,1.0
1463751272989569660,318,1463751272987197795,,-0.303710848093,-3.87685871124,82.2136611938,0.0200030002743,1.0,0.0,0.0,0.0,1.0,0.0,0.0,0.0,1.0,2.19512200356,-0.609756112099,-0.12195122242,1.0,0.0,0.0,0.0,1.0,0.0,0.0,0.0,1.0,-0.751779321289,0.191536132812,-10.2423947021,1.0,0.0,0.0,0.0,1.0,0.0,0.0,0.0,1.0
1463751273010430092,319,1463751273007081304,,-0.282445997,-3.84356236458,82.2142105103,0.0199979990721,1.0,0.0,0.0,0.0,1.0,0.0,0.0,0.0,1.0,2.25609779358,-0.304878056049,-0.18292683363,1.0,0.0,0.0,0.0,1.0,0.0,0.0,0.0,1.0,-0.727837304687,0.196324536133,-10.2759135254,1.0,0.0,0.0,0.0,1.0,0.0,0.0,0.0,1.0
1463751273029515115,320,1463751273027096896,,-0.262019336224,-3.82364630699,82.2146377563,0.0199979990721,1.0,0.0,0.0,0.0,1.0,0.0,0.0,0.0,1.0,2.13414645195,-0.365853667259,-0.18292683363,1.0,0.0,0.0,0.0,1.0,0.0,0.0,0.0,1.0,-0.828393774414,0.177170922852,-10.2232410889,1.0,0.0,0.0,0.0,1.0,0.0,0.0,0.0,1.0
1463751273050572316,321,1463751273047169727,,-0.260780930519,-3.80191659927,82.2185668945,0.0200009997934,1.0,0.0,0.0,0.0,1.0,0.0,0.0,0.0,1.0,1.95121955872,-0.426829278469,-0.0609756112099,1.0,0.0,0.0,0.0,1.0,0.0,0.0,0.0,1.0,-0.794874951172,0.31124621582,-10.1897222656,1.0,0.0,0.0,0.0,1.0,0.0,0.0,0.0,1.0
1463751273069854265,322,1463751273067376671,,-0.249943599105,-3.77894854546,82.2185287476,0.0200009997934,1.0,0.0,0.0,0.0,1.0,0.0,0.0,0.0,1.0,2.19512200356,-0.487804889679,-0.243902444839,1.0,0.0,0.0,0.0,1.0,0.0,0.0,0.0,1.0,-0.76135612793,0.268150604204,-10.0939541992,1.0,0.0,0.0,0.0,1.0,0.0,0.0,0.0,1.0
1463751273089506733,323,1463751273087359294,,-0.241532847285,-3.76642298698,82.222076416,0.0200100000948,1.0,0.0,0.0,0.0,1.0,0.0,0.0,0.0,1.0,2.01219511032,-0.731707334518,-0.0609756112099,1.0,0.0,0.0,0.0,1.0,0.0,0.0,0.0,1.0,-0.809240161133,0.253785375977,-10.1178962158,1.0,0.0,0.0,0.0,1.0,0.0,0.0,0.0,1.0
1463751273110293207,324,1463751273107281970,,-0.233592554927,-3.74818301201,82.2283096313,0.019991999492,1.0,0.0,0.0,0.0,1.0,0.0,0.0,0.0,1.0,2.19512200356,-0.426829278469,0.0609756112099,1.0,0.0,0.0,0.0,1.0,0.0,0.0,0.0,1.0,-0.809240161133,0.287304199219,-10.1035310059,1.0,0.0,0.0,0.0,1.0,0.0,0.0,0.0,1.0
1463751273129460625,325,1463751273127178655,,-0.224761113524,-3.7270591259,82.2307510376,0.0199950002134,1.0,0.0,0.0,0.0,1.0,0.0,0.0,0.0,1.0,2.13414645195,-0.487804889679,-0.12195122242,1.0,0.0,0.0,0.0,1.0,0.0,0.0,0.0,1.0,-0.76614453125,0.268150604204,-10.0652237793,1.0,0.0,0.0,0.0,1.0,0.0,0.0,0.0,1.0
1463751273149378352,326,1463751273147251069,,-0.217880040407,-3.70351076126,82.2321548462,0.0200009997934,1.0,0.0,0.0,0.0,1.0,0.0,0.0,0.0,1.0,2.19512200356,-0.365853667259,-0.18292683363,1.0,0.0,0.0,0.0,1.0,0.0,0.0,0.0,1.0,-0.76614453125,0.296881024126,-10.1131078125,1.0,0.0,0.0,0.0,1.0,0.0,0.0,0.0,1.0
1463751273168957018,327,1463751273167247963,,-0.208426088095,-3.67632937431,82.2332382202,0.0201040003449,1.0,0.0,0.0,0.0,1.0,0.0,0.0,0.0,1.0,2.07317066193,-0.18292683363,-0.18292683363,1.0,0.0,0.0,0.0,1.0,0.0,0.0,0.0,1.0,-0.77093293457,0.253785375977,-10.2136642822,1.0,0.0,0.0,0.0,1.0,0.0,0.0,0.0,1.0
1463751273188578862,328,1463751273186974545,,-0.194395899773,-3.66216421127,82.2400741577,0.0198989994824,1.0,0.0,0.0,0.0,1.0,0.0,0.0,0.0,1.0,2.07317066193,-0.365853667259,0.12195122242,1.0,0.0,0.0,0.0,1.0,0.0,0.0,0.0,1.0,-0.847547387695,0.205901342773,-10.1945106689,1.0,0.0,0.0,0.0,1.0,0.0,0.0,0.0,1.0
1463751273208700494,329,1463751273206961856,,-0.188231483102,-3.63831996918,82.2438735962,0.0200009997934,1.0,0.0,0.0,0.0,1.0,0.0,0.0,0.0,1.0,2.13414645195,-0.365853667259,-0.0609756112099,1.0,0.0,0.0,0.0,1.0,0.0,0.0,0.0,1.0,-0.756567724609,0.287304199219,-10.1753570557,1.0,0.0,0.0,0.0,1.0,0.0,0.0,0.0,1.0
1463751273228578899,330,1463751273226973593,,-0.172937631607,-3.61080765724,82.2433624268,0.0199979990721,1.0,0.0,0.0,0.0,1.0,0.0,0.0,0.0,1.0,2.07317066193,-0.365853667259,-0.243902444839,1.0,0.0,0.0,0.0,1.0,0.0,0.0,0.0,1.0,-0.723048901367,0.196324536133,-10.2328178955,1.0,0.0,0.0,0.0,1.0,0.0,0.0,0.0,1.0
1463751273248583865,331,1463751273246965435,,-0.158467382193,-3.59122610092,82.2441711426,0.0200020000339,1.0,0.0,0.0,0.0,1.0,0.0,0.0,0.0,1.0,2.13414645195,-0.243902444839,-0.18292683363,1.0,0.0,0.0,0.0,1.0,0.0,0.0,0.0,1.0,-0.809240161133,0.210689746094,-10.1945106689,1.0,0.0,0.0,0.0,1.0,0.0,0.0,0.0,1.0
1463751273268596749,332,1463751273266953110,,-0.147267207503,-3.56707763672,82.2452926636,0.0199979990721,1.0,0.0,0.0,0.0,1.0,0.0,0.0,0.0,1.0,2.19512200356,-0.243902444839,-0.18292683363,1.0,0.0,0.0,0.0,1.0,0.0,0.0,0.0,1.0,-0.76614453125,0.248996972656,-10.2184526855,1.0,0.0,0.0,0.0,1.0,0.0,0.0,0.0,1.0
1463751273288730360,333,1463751273287103701,,-0.134679883718,-3.55282473564,82.2438659668,0.0201440006495,1.0,0.0,0.0,0.0,1.0,0.0,0.0,0.0,1.0,2.19512200356,-0.548780500889,-0.304878056049,1.0,0.0,0.0,0.0,1.0,0.0,0.0,0.0,1.0,-0.790086547852,0.234631762695,-10.1274730225,1.0,0.0,0.0,0.0,1.0,0.0,0.0,0.0,1.0
1463751273308866524,334,1463751273306961897,,-0.124216064811,-3.5286397934,82.2424316406,0.0198570005596,1.0,0.0,0.0,0.0,1.0,0.0,0.0,0.0,1.0,2.07317066193,-0.243902444839,-0.304878056049,1.0,0.0,0.0,0.0,1.0,0.0,0.0,0.0,1.0,-0.756567724609,0.229843359375,-10.2088758789,1.0,0.0,0.0,0.0,1.0,0.0,0.0,0.0,1.0
1463751273328537482,335,1463751273326956759,,-0.108217731118,-3.51252603531,82.2405853271,0.0199979990721,1.0,0.0,0.0,0.0,1.0,0.0,0.0,0.0,1.0,2.01219511032,-0.548780500889,-0.304878056049,1.0,0.0,0.0,0.0,1.0,0.0,0.0,0.0,1.0,-0.77093293457,0.167594116211,-10.1992990723,1.0,0.0,0.0,0.0,1.0,0.0,0.0,0.0,1.0
1463751273348581459,336,1463751273346967143,,-0.0952517613769,-3.49152541161,82.2440948486,0.0200020000339,1.0,0.0,0.0,0.0,1.0,0.0,0.0,0.0,1.0,2.25609779358,-0.304878056049,-0.0609756112099,1.0,0.0,0.0,0.0,1.0,0.0,0.0,0.0,1.0,-0.756567724609,0.229843359375,-10.046070166,1.0,0.0,0.0,0.0,1.0,0.0,0.0,0.0,1.0
1463751273368627675,337,1463751273367008255,,-0.0913729071617,-3.48079657555,82.2394638062,0.0200040005147,1.0,0.0,0.0,0.0,1.0,0.0,0.0,0.0,1.0,2.13414645195,-0.243902444839,-0.487804889679,1.0,0.0,0.0,0.0,1.0,0.0,0.0,0.0,1.0,-0.871489404297,0.296881024126,-10.2376062988,1.0,0.0,0.0,0.0,1.0,0.0,0.0,0.0,1.0
1463751273388782068,338,1463751273386995565,,-0.0885777771473,-3.46453428268,82.2395706177,0.0199960004538,1.0,0.0,0.0,0.0,1.0,0.0,0.0,0.0,1.0,1.95121955872,-0.426829278469,-0.243902444839,1.0,0.0,0.0,0.0,1.0,0.0,0.0,0.0,1.0,-0.780509741211,0.268150604204,-10.165780249,1.0,0.0,0.0,0.0,1.0,0.0,0.0,0.0,1.0
1463751273409480886,339,1463751273406954126,,-0.0812462940812,-3.45064926147,82.2444229126,0.019999999553,1.0,0.0,0.0,0.0,1.0,0.0,0.0,0.0,1.0,2.07317066193,-0.548780500889,-0.0,1.0,0.0,0.0,0.0,1.0,0.0,0.0,0.0,1.0,-0.77093293457,0.244208569336,-10.0843773926,1.0,0.0,0.0,0.0,1.0,0.0,0.0,0.0,1.0
1463751273429248874,340,1463751273426955238,,-0.0709383189678,-3.44118452072,82.2440490723,0.0199979990721,1.0,0.0,0.0,0.0,1.0,0.0,0.0,0.0,1.0,1.95121955872,-0.548780500889,-0.243902444839,1.0,0.0,0.0,0.0,1.0,0.0,0.0,0.0,1.0,-0.823605371094,0.201112939453,-10.2807019287,1.0,0.0,0.0,0.0,1.0,0.0,0.0,0.0,1.0
1463751273449075508,341,1463751273446918382,,-0.0660332590342,-3.42733812332,82.2450942993,0.0200050007552,1.0,0.0,0.0,0.0,1.0,0.0,0.0,0.0,1.0,1.8292683363,-0.548780500889,-0.18292683363,1.0,0.0,0.0,0.0,1.0,0.0,0.0,0.0,1.0,-0.780509741211,0.225054956055,-10.2615483154,1.0,0.0,0.0,0.0,1.0,0.0,0.0,0.0,1.0
1463751273469640941,342,1463751273466907880,,-0.0554485209286,-3.40940356255,82.2509002686,0.019999999553,1.0,0.0,0.0,0.0,1.0,0.0,0.0,0.0,1.0,2.01219511032,-0.365853667259,0.0609756112099,1.0,0.0,0.0,0.0,1.0,0.0,0.0,0.0,1.0,-0.76614453125,0.201112939453,-10.1562034424,1.0,0.0,0.0,0.0,1.0,0.0,0.0,0.0,1.0
1463751273490370540,343,1463751273486910815,,-0.0388023816049,-3.3934803009,82.2518768311,0.0199970006943,1.0,0.0,0.0,0.0,1.0,0.0,0.0,0.0,1.0,2.37804889679,-0.426829278469,-0.18292683363,1.0,0.0,0.0,0.0,1.0,0.0,0.0,0.0,1.0,-0.76135612793,0.210689746094,-10.0412817627,1.0,0.0,0.0,0.0,1.0,0.0,0.0,0.0,1.0
1463751273509339990,344,1463751273506917501,,-0.029972082004,-3.387403965,82.2506027222,0.0200009997934,1.0,0.0,0.0,0.0,1.0,0.0,0.0,0.0,1.0,2.13414645195,-0.609756112099,-0.304878056049,1.0,0.0,0.0,0.0,1.0,0.0,0.0,0.0,1.0,-0.828393774414,0.239420166016,-10.2232410889,1.0,0.0,0.0,0.0,1.0,0.0,0.0,0.0,1.0
1463751273529467248,345,1463751273526962571,,-0.0279365926981,-3.35990595818,82.2518157959,0.0199979990721,1.0,0.0,0.0,0.0,1.0,0.0,0.0,0.0,1.0,1.8292683363,-0.243902444839,-0.18292683363,1.0,0.0,0.0,0.0,1.0,0.0,0.0,0.0,1.0,-0.703895288086,0.244208569336,-10.2902787354,1.0,0.0,0.0,0.0,1.0,0.0,0.0,0.0,1.0
1463751273548492062,346,1463751273546953319,,-0.0197899248451,-3.34425640106,82.2541656494,0.0200020000339,1.0,0.0,0.0,0.0,1.0,0.0,0.0,0.0,1.0,2.07317066193,-0.426829278469,-0.12195122242,1.0,0.0,0.0,0.0,1.0,0.0,0.0,0.0,1.0,-0.76614453125,0.229843359375,-10.1897222656,1.0,0.0,0.0,0.0,1.0,0.0,0.0,0.0,1.0
1463751273569445358,347,1463751273566949536,,-0.0129581298679,-3.33087682724,82.2552261353,0.0199970006943,1.0,0.0,0.0,0.0,1.0,0.0,0.0,0.0,1.0,1.95121955872,-0.365853667259,-0.18292683363,1.0,0.0,0.0,0.0,1.0,0.0,0.0,0.0,1.0,-0.799663354492,0.220266552734,-10.2519715088,1.0,0.0,0.0,0.0,1.0,0.0,0.0,0.0,1.0
1463751273588821057,348,1463751273586958825,,0.00555676221848,-3.3218152523,82.2572402954,0.0200040005147,1.0,0.0,0.0,0.0,1.0,0.0,0.0,0.0,1.0,2.31707310677,-0.365853667259,-0.12195122242,1.0,0.0,0.0,0.0,1.0,0.0,0.0,0.0,1.0,-0.828393774414,0.177170922852,-10.1514150391,1.0,0.0,0.0,0.0,1.0,0.0,0.0,0.0,1.0
1463751273608987585,349,1463751273606955354,,0.0211675409228,-3.31166148186,82.259147644,0.0199979990721,1.0,0.0,0.0,0.0,1.0,0.0,0.0,0.0,1.0,2.07317066193,-0.304878056049,-0.12195122242,1.0,0.0,0.0,0.0,1.0,0.0,0.0,0.0,1.0,-0.837970581055,0.15801730957,-10.2759135254,1.0,0.0,0.0,0.0,1.0,0.0,0.0,0.0,1.0
1463751273628809896,350,1463751273626958133,,0.0232753958553,-3.29282236099,82.2556228638,0.0199970006943,1.0,0.0,0.0,0.0,1.0,0.0,0.0,0.0,1.0,1.95121955872,-0.304878056049,-0.426829278469,1.0,0.0,0.0,0.0,1.0,0.0,0.0,0.0,1.0,-0.742202514648,0.253785375977,-10.0748005859,1.0,0.0,0.0,0.0,1.0,0.0,0.0,0.0,1.0
1463751273649247517,351,1463751273646974923,,0.0243255980313,-3.28086352348,82.2559432983,0.0200009997934,1.0,0.0,0.0,0.0,1.0,0.0,0.0,0.0,1.0,2.07317066193,-0.304878056049,-0.243902444839,1.0,0.0,0.0,0.0,1.0,0.0,0.0,0.0,1.0,-0.799663354492,0.282515795898,-10.0652237793,1.0,0.0,0.0,0.0,1.0,0.0,0.0,0.0,1.0
1463751273669243890,352,1463751273667001972,,0.0238344222307,-3.26823616028,82.2564849854,0.020041000098,1.0,0.0,0.0,0.0,1.0,0.0,0.0,0.0,1.0,2.19512200356,-0.304878056049,-0.243902444839,1.0,0.0,0.0,0.0,1.0,0.0,0.0,0.0,1.0,-0.799663354492,0.320823022461,-10.165780249,1.0,0.0,0.0,0.0,1.0,0.0,0.0,0.0,1.0
1463751273688958806,353,1463751273686964699,,0.0279077664018,-3.24754786491,82.2568283081,0.0199640002102,1.0,0.0,0.0,0.0,1.0,0.0,0.0,0.0,1.0,2.25609779358,-0.304878056049,-0.243902444839,1.0,0.0,0.0,0.0,1.0,0.0,0.0,0.0,1.0,-0.727837304687,0.292092584273,-10.2184526855,1.0,0.0,0.0,0.0,1.0,0.0,0.0,0.0,1.0
1463751273709220229,354,1463751273706909458,,0.0309740304947,-3.23398137093,82.2557907104,0.0199989993125,1.0,0.0,0.0,0.0,1.0,0.0,0.0,0.0,1.0,2.07317066193,-0.243902444839,-0.304878056049,1.0,0.0,0.0,0.0,1.0,0.0,0.0,0.0,1.0,-0.799663354492,0.268150604204,-10.2136642822,1.0,0.0,0.0,0.0,1.0,0.0,0.0,0.0,1.0
1463751273729193113,355,1463751273726902341,,0.0334447845817,-3.22869753838,82.2607879639,0.0199950002134,1.0,0.0,0.0,0.0,1.0,0.0,0.0,0.0,1.0,2.01219511032,-0.426829278469,-0.0,1.0,0.0,0.0,0.0,1.0,0.0,0.0,0.0,1.0,-0.837970581055,0.258573779297,-10.1992990723,1.0,0.0,0.0,0.0,1.0,0.0,0.0,0.0,1.0
1463751273749450474,356,1463751273746926058,,0.0408065728843,-3.2108476162,82.2634429932,0.0200050007552,1.0,0.0,0.0,0.0,1.0,0.0,0.0,0.0,1.0,2.31707310677,-0.426829278469,-0.12195122242,1.0,0.0,0.0,0.0,1.0,0.0,0.0,0.0,1.0,-0.718260498047,0.268150604204,-10.1274730225,1.0,0.0,0.0,0.0,1.0,0.0,0.0,0.0,1.0
1463751273769254452,357,1463751273767081649,,0.0614482089877,-3.19097447395,82.2630462646,0.0200009997934,1.0,0.0,0.0,0.0,1.0,0.0,0.0,0.0,1.0,2.43902444839,-0.365853667259,-0.243902444839,1.0,0.0,0.0,0.0,1.0,0.0,0.0,0.0,1.0,-0.713472094727,0.172382519531,-10.2088758789,1.0,0.0,0.0,0.0,1.0,0.0,0.0,0.0,1.0
1463751273789072909,358,1463751273786913022,,0.067746758461,-3.18227219582,82.2681732178,0.0199989993125,1.0,0.0,0.0,0.0,1.0,0.0,0.0,0.0,1.0,2.31707310677,-0.548780500889,-0.0,1.0,0.0,0.0,0.0,1.0,0.0,0.0,0.0,1.0,-0.775721337891,0.272938989258,-10.180145459,1.0,0.0,0.0,0.0,1.0,0.0,0.0,0.0,1.0
1463751273809003761,359,1463751273806898718,,0.0699420422316,-3.16857194901,82.2644729614,0.0199950002134,1.0,0.0,0.0,0.0,1.0,0.0,0.0,0.0,1.0,1.8292683363,-0.365853667259,-0.426829278469,1.0,0.0,0.0,0.0,1.0,0.0,0.0,0.0,1.0,-0.76135612793,0.225054956055,-10.1705686523,1.0,0.0,0.0,0.0,1.0,0.0,0.0,0.0,1.0
1463751273829069404,360,1463751273826907382,,0.0662534609437,-3.154317379,82.2636566162,0.0200020000339,1.0,0.0,0.0,0.0,1.0,0.0,0.0,0.0,1.0,1.95121955872,-0.304878056049,-0.304878056049,1.0,0.0,0.0,0.0,1.0,0.0,0.0,0.0,1.0,-0.76135612793,0.296881024126,-10.1226846191,1.0,0.0,0.0,0.0,1.0,0.0,0.0,0.0,1.0
1463751273848985934,361,1463751273846898339,,0.0679565444589,-3.15089893341,82.2663879395,0.0199989993125,1.0,0.0,0.0,0.0,1.0,0.0,0.0,0.0,1.0,2.13414645195,-0.548780500889,-0.12195122242,1.0,0.0,0.0,0.0,1.0,0.0,0.0,0.0,1.0,-0.818816967773,0.282515795898,-10.2040874756,1.0,0.0,0.0,0.0,1.0,0.0,0.0,0.0,1.0
1463751273869211733,362,1463751273867076638,,0.0754125788808,-3.14388489723,82.2663650513,0.0200020000339,1.0,0.0,0.0,0.0,1.0,0.0,0.0,0.0,1.0,2.13414645195,-0.304878056049,-0.243902444839,1.0,0.0,0.0,0.0,1.0,0.0,0.0,0.0,1.0,-0.823605371094,0.229843359375,-10.1274730225,1.0,0.0,0.0,0.0,1.0,0.0,0.0,0.0,1.0
1463751273888603733,363,1463751273886963428,,0.0764069184661,-3.13819694519,82.2653961182,0.0200040005147,1.0,0.0,0.0,0.0,1.0,0.0,0.0,0.0,1.0,2.07317066193,-0.365853667259,-0.304878056049,1.0,0.0,0.0,0.0,1.0,0.0,0.0,0.0,1.0,-0.828393774414,0.277727392578,-10.1897222656,1.0,0.0,0.0,0.0,1.0,0.0,0.0,0.0,1.0
1463751273908565835,364,1463751273906962665,,0.0845186039805,-3.12673449516,82.2704925537,0.0199939999729,1.0,0.0,0.0,0.0,1.0,0.0,0.0,0.0,1.0,2.37804889679,-0.304878056049,-0.0,1.0,0.0,0.0,0.0,1.0,0.0,0.0,0.0,1.0,-0.780509741211,0.263362164351,-10.1178962158,1.0,0.0,0.0,0.0,1.0,0.0,0.0,0.0,1.0
1463751273928628614,365,1463751273926952892,,0.0923523083329,-3.12113404274,82.2726287842,0.0199979990721,1.0,0.0,0.0,0.0,1.0,0.0,0.0,0.0,1.0,1.8902438879,-0.365853667259,-0.12195122242,1.0,0.0,0.0,0.0,1.0,0.0,0.0,0.0,1.0,-0.814028564453,0.177170922852,-10.0412817627,1.0,0.0,0.0,0.0,1.0,0.0,0.0,0.0,1.0
1463751273948575039,366,1463751273946953744,,0.0964817926288,-3.11692094803,82.2753601074,0.0200009997934,1.0,0.0,0.0,0.0,1.0,0.0,0.0,0.0,1.0,2.25609779358,-0.365853667259,-0.12195122242,1.0,0.0,0.0,0.0,1.0,0.0,0.0,0.0,1.0,-0.837970581055,0.277727392578,-10.1945106689,1.0,0.0,0.0,0.0,1.0,0.0,0.0,0.0,1.0
1463751273968746203,367,1463751273967127200,,0.0970166027546,-3.10157108307,82.2793731689,0.0200030002743,1.0,0.0,0.0,0.0,1.0,0.0,0.0,0.0,1.0,2.13414645195,-0.609756112099,-0.0609756112099,1.0,0.0,0.0,0.0,1.0,0.0,0.0,0.0,1.0,-0.694318481445,0.287304199219,-10.2232410889,1.0,0.0,0.0,0.0,1.0,0.0,0.0,0.0,1.0
1463751273988839242,368,1463751273986974771,,0.11024876684,-3.0935447216,82.2839813232,0.0199989993125,1.0,0.0,0.0,0.0,1.0,0.0,0.0,0.0,1.0,2.19512200356,-0.243902444839,-0.0,1.0,0.0,0.0,0.0,1.0,0.0,0.0,0.0,1.0,-0.818816967773,0.181959326172,-10.1562034424,1.0,0.0,0.0,0.0,1.0,0.0,0.0,0.0,1.0
1463751274008547231,369,1463751274006951613,,0.10512034595,-3.08838772774,82.2916183472,0.0199979990721,1.0,0.0,0.0,0.0,1.0,0.0,0.0,0.0,1.0,1.8292683363,-0.487804889679,0.12195122242,1.0,0.0,0.0,0.0,1.0,0.0,0.0,0.0,1.0,-0.799663354492,0.277727392578,-10.1609918457,1.0,0.0,0.0,0.0,1.0,0.0,0.0,0.0,1.0
1463751274029036258,370,1463751274026977517,,0.102647446096,-3.07222032547,82.2943725586,0.0200089998543,1.0,0.0,0.0,0.0,1.0,0.0,0.0,0.0,1.0,1.95121955872,-0.304878056049,-0.12195122242,1.0,0.0,0.0,0.0,1.0,0.0,0.0,0.0,1.0,-0.742202514648,0.282515795898,-10.2950671387,1.0,0.0,0.0,0.0,1.0,0.0,0.0,0.0,1.0
1463751274049633774,371,1463751274046988056,,0.114041060209,-3.0650703907,82.2939834595,0.0200030002743,1.0,0.0,0.0,0.0,1.0,0.0,0.0,0.0,1.0,2.01219511032,-0.487804889679,-0.243902444839,1.0,0.0,0.0,0.0,1.0,0.0,0.0,0.0,1.0,-0.780509741211,0.167594116211,-10.1945106689,1.0,0.0,0.0,0.0,1.0,0.0,0.0,0.0,1.0
1463751274071736596,372,1463751274067122293,,0.1238181144,-3.04095649719,82.2974319458,0.0200040005147,1.0,0.0,0.0,0.0,1.0,0.0,0.0,0.0,1.0,2.07317066193,-0.18292683363,-0.0609756112099,1.0,0.0,0.0,0.0,1.0,0.0,0.0,0.0,1.0,-0.689530078125,0.191536132812,-10.3237975586,1.0,0.0,0.0,0.0,1.0,0.0,0.0,0.0,1.0
1463751274092065259,373,1463751274087003041,,0.131839811802,-3.02361631393,82.2960891724,0.0199979990721,1.0,0.0,0.0,0.0,1.0,0.0,0.0,0.0,1.0,2.07317066193,-0.243902444839,-0.304878056049,1.0,0.0,0.0,0.0,1.0,0.0,0.0,0.0,1.0,-0.727837304687,0.205901342773,-10.2088758789,1.0,0.0,0.0,0.0,1.0,0.0,0.0,0.0,1.0
1463751274108650865,374,1463751274106980873,,0.138360396028,-3.00561213493,82.2997589111,0.019985999912,1.0,0.0,0.0,0.0,1.0,0.0,0.0,0.0,1.0,2.13414645195,-0.243902444839,-0.0609756112099,1.0,0.0,0.0,0.0,1.0,0.0,0.0,0.0,1.0,-0.713472094727,0.225054956055,-10.1370498291,1.0,0.0,0.0,0.0,1.0,0.0,0.0,0.0,1.0
1463751274128603020,375,1463751274126940631,,0.137704372406,-3.00264906883,82.3026428223,0.0199570003897,1.0,0.0,0.0,0.0,1.0,0.0,0.0,0.0,1.0,2.19512200356,-0.365853667259,-0.12195122242,1.0,0.0,0.0,0.0,1.0,0.0,0.0,0.0,1.0,-0.828393774414,0.301669427446,-10.1945106689,1.0,0.0,0.0,0.0,1.0,0.0,0.0,0.0,1.0
1463751274148724392,376,1463751274147062472,,0.139017090201,-3.01390099525,82.2979278564,0.0200570002198,1.0,0.0,0.0,0.0,1.0,0.0,0.0,0.0,1.0,2.07317066193,-0.792682945728,-0.487804889679,1.0,0.0,0.0,0.0,1.0,0.0,0.0,0.0,1.0,-0.871489404297,0.263362164351,-10.1035310059,1.0,0.0,0.0,0.0,1.0,0.0,0.0,0.0,1.0
1463751274169412168,377,1463751274167422593,,0.146096333861,-3.01258897781,82.2978210449,0.0200149994344,1.0,0.0,0.0,0.0,1.0,0.0,0.0,0.0,1.0,2.07317066193,-0.609756112099,-0.243902444839,1.0,0.0,0.0,0.0,1.0,0.0,0.0,0.0,1.0,-0.799663354492,0.210689746094,-10.180145459,1.0,0.0,0.0,0.0,1.0,0.0,0.0,0.0,1.0
1463751274189052917,378,1463751274187027562,,0.154284387827,-3.01468896866,82.2964401245,0.0199839994311,1.0,0.0,0.0,0.0,1.0,0.0,0.0,0.0,1.0,2.07317066193,-0.487804889679,-0.304878056049,1.0,0.0,0.0,0.0,1.0,0.0,0.0,0.0,1.0,-0.857124194336,0.201112939453,-10.2376062988,1.0,0.0,0.0,0.0,1.0,0.0,0.0,0.0,1.0
1463751274208930437,379,1463751274206999091,,0.145724833012,-3.01087784767,82.2994995117,0.0199749991298,1.0,0.0,0.0,0.0,1.0,0.0,0.0,0.0,1.0,1.95121955872,-0.670731723309,-0.12195122242,1.0,0.0,0.0,0.0,1.0,0.0,0.0,0.0,1.0,-0.76614453125,0.325611425781,-10.180145459,1.0,0.0,0.0,0.0,1.0,0.0,0.0,0.0,1.0
1463751274228945299,380,1463751274227042338,,0.155382916331,-2.99976444244,82.3018493652,0.0200219992548,1.0,0.0,0.0,0.0,1.0,0.0,0.0,0.0,1.0,2.19512200356,-0.304878056049,-0.12195122242,1.0,0.0,0.0,0.0,1.0,0.0,0.0,0.0,1.0,-0.76135612793,0.205901342773,-10.1226846191,1.0,0.0,0.0,0.0,1.0,0.0,0.0,0.0,1.0
1463751274248889797,381,1463751274247041940,,0.1583340168,-3.00058436394,82.3042678833,0.0200050007552,1.0,0.0,0.0,0.0,1.0,0.0,0.0,0.0,1.0,1.95121955872,-0.670731723309,-0.12195122242,1.0,0.0,0.0,0.0,1.0,0.0,0.0,0.0,1.0,-0.799663354492,0.220266552734,-10.1083194092,1.0,0.0,0.0,0.0,1.0,0.0,0.0,0.0,1.0
1463751274269202210,382,1463751274267015709,,0.155378401279,-2.99432086945,82.3057327271,0.0200030002743,1.0,0.0,0.0,0.0,1.0,0.0,0.0,0.0,1.0,1.8902438879,-0.365853667259,-0.18292683363,1.0,0.0,0.0,0.0,1.0,0.0,0.0,0.0,1.0,-0.809240161133,0.268150604204,-10.3429511719,1.0,0.0,0.0,0.0,1.0,0.0,0.0,0.0,1.0
1463751274289087334,383,1463751274287036092,,0.15178821981,-2.98707699776,82.3074493408,0.0199979990721,1.0,0.0,0.0,0.0,1.0,0.0,0.0,0.0,1.0,2.07317066193,-0.243902444839,-0.18292683363,1.0,0.0,0.0,0.0,1.0,0.0,0.0,0.0,1.0,-0.804451757813,0.301669427446,-10.1274730225,1.0,0.0,0.0,0.0,1.0,0.0,0.0,0.0,1.0
1463751274308942040,384,1463751274307048350,,0.159293591976,-2.9763917923,82.3098297119,0.0200020000339,1.0,0.0,0.0,0.0,1.0,0.0,0.0,0.0,1.0,2.13414645195,-0.243902444839,-0.12195122242,1.0,0.0,0.0,0.0,1.0,0.0,0.0,0.0,1.0,-0.780509741211,0.215478149414,-10.2376062988,1.0,0.0,0.0,0.0,1.0,0.0,0.0,0.0,1.0
1463751274328535029,385,1463751274326969828,,0.160289213061,-2.96496987343,82.3137283325,0.0199539996684,1.0,0.0,0.0,0.0,1.0,0.0,0.0,0.0,1.0,2.07317066193,-0.12195122242,-0.0609756112099,1.0,0.0,0.0,0.0,1.0,0.0,0.0,0.0,1.0,-0.799663354492,0.263362164351,-10.314220752,1.0,0.0,0.0,0.0,1.0,0.0,0.0,0.0,1.0
1463751274349046035,386,1463751274346984794,,0.155153870583,-2.96334266663,82.3141326904,0.0200340002775,1.0,0.0,0.0,0.0,1.0,0.0,0.0,0.0,1.0,1.95121955872,-0.365853667259,-0.243902444839,1.0,0.0,0.0,0.0,1.0,0.0,0.0,0.0,1.0,-0.837970581055,0.296881024126,-10.2519715088,1.0,0.0,0.0,0.0,1.0,0.0,0.0,0.0,1.0
1463751274368832670,387,1463751274367026427,,0.16159106791,-2.96072649956,82.321182251,0.020005999133,1.0,0.0,0.0,0.0,1.0,0.0,0.0,0.0,1.0,1.8902438879,-0.731707334518,0.12195122242,1.0,0.0,0.0,0.0,1.0,0.0,0.0,0.0,1.0,-0.756567724609,0.177170922852,-10.180145459,1.0,0.0,0.0,0.0,1.0,0.0,0.0,0.0,1.0
1463751274388980344,388,1463751274386991707,,0.172407105565,-2.95513248444,82.3245315552,0.0200009997934,1.0,0.0,0.0,0.0,1.0,0.0,0.0,0.0,1.0,2.07317066193,-0.609756112099,-0.0609756112099,1.0,0.0,0.0,0.0,1.0,0.0,0.0,0.0,1.0,-0.756567724609,0.172382519531,-10.2519715088,1.0,0.0,0.0,0.0,1.0,0.0,0.0,0.0,1.0
1463751274408861769,389,1463751274406997611,,0.171447768807,-2.95650839806,82.3259963989,0.0199979990721,1.0,0.0,0.0,0.0,1.0,0.0,0.0,0.0,1.0,2.01219511032,-0.487804889679,-0.18292683363,1.0,0.0,0.0,0.0,1.0,0.0,0.0,0.0,1.0,-0.828393774414,0.263362164351,-10.0939541992,1.0,0.0,0.0,0.0,1.0,0.0,0.0,0.0,1.0
1463751274428626477,390,1463751274426974661,,0.181002259254,-2.94352483749,82.3270568848,0.019985999912,1.0,0.0,0.0,0.0,1.0,0.0,0.0,0.0,1.0,2.13414645195,-0.365853667259,-0.18292683363,1.0,0.0,0.0,0.0,1.0,0.0,0.0,0.0,1.0,-0.723048901367,0.191536132812,-10.1131078125,1.0,0.0,0.0,0.0,1.0,0.0,0.0,0.0,1.0
1463751274448958160,391,1463751274446967440,,0.190007716417,-2.93876051903,82.3292922974,0.0200110003352,1.0,0.0,0.0,0.0,1.0,0.0,0.0,0.0,1.0,2.07317066193,-0.487804889679,-0.12195122242,1.0,0.0,0.0,0.0,1.0,0.0,0.0,0.0,1.0,-0.76614453125,0.181959326172,-10.0269165527,1.0,0.0,0.0,0.0,1.0,0.0,0.0,0.0,1.0
1463751274468658232,392,1463751274466964281,,0.189302206039,-2.92615008354,82.330909729,0.0199870001525,1.0,0.0,0.0,0.0,1.0,0.0,0.0,0.0,1.0,2.13414645195,-0.243902444839,-0.18292683363,1.0,0.0,0.0,0.0,1.0,0.0,0.0,0.0,1.0,-0.751779321289,0.282515795898,-10.2040874756,1.0,0.0,0.0,0.0,1.0,0.0,0.0,0.0,1.0
1463751274488658824,393,1463751274486968727,,0.198764637113,-2.92739868164,82.335975647,0.0200139991939,1.0,0.0,0.0,0.0,1.0,0.0,0.0,0.0,1.0,2.5,-0.792682945728,-0.0,1.0,0.0,0.0,0.0,1.0,0.0,0.0,0.0,1.0,-0.77093293457,0.253785375977,-10.1418382324,1.0,0.0,0.0,0.0,1.0,0.0,0.0,0.0,1.0
1463751274508621707,394,1463751274507041402,,0.208676025271,-2.91200876236,82.3383636475,0.019991999492,1.0,0.0,0.0,0.0,1.0,0.0,0.0,0.0,1.0,2.25609779358,-0.426829278469,-0.12195122242,1.0,0.0,0.0,0.0,1.0,0.0,0.0,0.0,1.0,-0.689530078125,0.205901342773,-10.1753570557,1.0,0.0,0.0,0.0,1.0,0.0,0.0,0.0,1.0
1463751274528572508,395,1463751274526974494,,0.217365011573,-2.91045093536,82.339515686,0.0200020000339,1.0,0.0,0.0,0.0,1.0,0.0,0.0,0.0,1.0,2.19512200356,-0.487804889679,-0.18292683363,1.0,0.0,0.0,0.0,1.0,0.0,0.0,0.0,1.0,-0.804451757813,0.205901342773,-10.2232410889,1.0,0.0,0.0,0.0,1.0,0.0,0.0,0.0,1.0
1463751274549100961,396,1463751274546951648,,0.22104498744,-2.90671086311,82.3397827148,0.0199970006943,1.0,0.0,0.0,0.0,1.0,0.0,0.0,0.0,1.0,2.25609779358,-0.304878056049,-0.243902444839,1.0,0.0,0.0,0.0,1.0,0.0,0.0,0.0,1.0,-0.809240161133,0.258573779297,-10.1178962158,1.0,0.0,0.0,0.0,1.0,0.0,0.0,0.0,1.0
1463751274569173324,397,1463751274566970312,,0.224022254348,-2.89176917076,82.3411483765,0.0200050007552,1.0,0.0,0.0,0.0,1.0,0.0,0.0,0.0,1.0,2.07317066193,-0.18292683363,-0.18292683363,1.0,0.0,0.0,0.0,1.0,0.0,0.0,0.0,1.0,-0.742202514648,0.234631762695,-10.2902787354,1.0,0.0,0.0,0.0,1.0,0.0,0.0,0.0,1.0
1463751274589284435,398,1463751274586962050,,0.233957946301,-2.88892483711,82.3435897827,0.0199989993125,1.0,0.0,0.0,0.0,1.0,0.0,0.0,0.0,1.0,2.31707310677,-0.426829278469,-0.12195122242,1.0,0.0,0.0,0.0,1.0,0.0,0.0,0.0,1.0,-0.790086547852,0.210689746094,-10.0939541992,1.0,0.0,0.0,0.0,1.0,0.0,0.0,0.0,1.0
1463751274608713207,399,1463751274606958266,,0.246681675315,-2.88516569138,82.3494338989,0.0199979990721,1.0,0.0,0.0,0.0,1.0,0.0,0.0,0.0,1.0,2.19512200356,-0.304878056049,0.0609756112099,1.0,0.0,0.0,0.0,1.0,0.0,0.0,0.0,1.0,-0.814028564453,0.162805712891,-10.2328178955,1.0,0.0,0.0,0.0,1.0,0.0,0.0,0.0,1.0
1463751274628802392,400,1463751274627053441,,0.249157443643,-2.88061714172,82.3522338867,0.0200839992613,1.0,0.0,0.0,0.0,1.0,0.0,0.0,0.0,1.0,2.25609779358,-0.243902444839,-0.12195122242,1.0,0.0,0.0,0.0,1.0,0.0,0.0,0.0,1.0,-0.809240161133,0.263362164351,-10.1274730225,1.0,0.0,0.0,0.0,1.0,0.0,0.0,0.0,1.0
1463751274649095898,401,1463751274646961689,,0.254374235868,-2.87716531754,82.3574066162,0.0199139993638,1.0,0.0,0.0,0.0,1.0,0.0,0.0,0.0,1.0,2.37804889679,-0.609756112099,-0.0,1.0,0.0,0.0,0.0,1.0,0.0,0.0,0.0,1.0,-0.751779321289,0.258573779297,-10.1226846191,1.0,0.0,0.0,0.0,1.0,0.0,0.0,0.0,1.0
1463751274668883678,402,1463751274666974207,,0.256979078054,-2.86989808083,82.3663253784,0.0200050007552,1.0,0.0,0.0,0.0,1.0,0.0,0.0,0.0,1.0,2.31707310677,-0.487804889679,0.18292683363,1.0,0.0,0.0,0.0,1.0,0.0,0.0,0.0,1.0,-0.737414111328,0.268150604204,-10.1035310059,1.0,0.0,0.0,0.0,1.0,0.0,0.0,0.0,1.0
1463751274688570573,403,1463751274686965112,,0.252729177475,-2.85989642143,82.3725662231,0.0199989993125,1.0,0.0,0.0,0.0,1.0,0.0,0.0,0.0,1.0,1.70731711388,-0.243902444839,0.0609756112099,1.0,0.0,0.0,0.0,1.0,0.0,0.0,0.0,1.0,-0.785298144531,0.229843359375,-10.5057568848,1.0,0.0,0.0,0.0,1.0,0.0,0.0,0.0,1.0
1463751274708739446,404,1463751274706949974,,0.255470275879,-2.84467339516,82.3730010986,0.0199960004538,1.0,0.0,0.0,0.0,1.0,0.0,0.0,0.0,1.0,2.37804889679,-0.243902444839,-0.243902444839,1.0,0.0,0.0,0.0,1.0,0.0,0.0,0.0,1.0,-0.708683691406,0.282515795898,-10.1274730225,1.0,0.0,0.0,0.0,1.0,0.0,0.0,0.0,1.0
1463751274728740975,405,1463751274727140148,,0.261950165033,-2.84316492081,82.3730545044,0.0200009997934,1.0,0.0,0.0,0.0,1.0,0.0,0.0,0.0,1.0,2.19512200356,-0.548780500889,-0.243902444839,1.0,0.0,0.0,0.0,1.0,0.0,0.0,0.0,1.0,-0.790086547852,0.220266552734,-10.3333743652,1.0,0.0,0.0,0.0,1.0,0.0,0.0,0.0,1.0
1463751274749222241,406,1463751274747062250,,0.260546654463,-2.83005714417,82.3744735718,0.019999999553,1.0,0.0,0.0,0.0,1.0,0.0,0.0,0.0,1.0,1.95121955872,-0.304878056049,-0.18292683363,1.0,0.0,0.0,0.0,1.0,0.0,0.0,0.0,1.0,-0.708683691406,0.239420166016,-10.0556469727,1.0,0.0,0.0,0.0,1.0,0.0,0.0,0.0,1.0
1463751274768941792,407,1463751274766987478,,0.256508439779,-2.81559276581,82.3759307861,0.0200020000339,1.0,0.0,0.0,0.0,1.0,0.0,0.0,0.0,1.0,1.8292683363,-0.243902444839,-0.18292683363,1.0,0.0,0.0,0.0,1.0,0.0,0.0,0.0,1.0,-0.713472094727,0.244208569336,-10.1753570557,1.0,0.0,0.0,0.0,1.0,0.0,0.0,0.0,1.0
1463751274788834832,408,1463751274786931768,,0.259363472462,-2.81149840355,82.3761749268,0.019999999553,1.0,0.0,0.0,0.0,1.0,0.0,0.0,0.0,1.0,2.19512200356,-0.18292683363,-0.243902444839,1.0,0.0,0.0,0.0,1.0,0.0,0.0,0.0,1.0,-0.814028564453,0.248996972656,-10.1562034424,1.0,0.0,0.0,0.0,1.0,0.0,0.0,0.0,1.0
1463751274808758601,409,1463751274806995901,,0.260975897312,-2.81068611145,82.3797988892,0.0199970006943,1.0,0.0,0.0,0.0,1.0,0.0,0.0,0.0,1.0,1.8902438879,-0.426829278469,-0.0609756112099,1.0,0.0,0.0,0.0,1.0,0.0,0.0,0.0,1.0,-0.809240161133,0.205901342773,-10.2902787354,1.0,0.0,0.0,0.0,1.0,0.0,0.0,0.0,1.0
1463751274828729193,410,1463751274826987534,,0.259143769741,-2.80568814278,82.3790283203,0.0200009997934,1.0,0.0,0.0,0.0,1.0,0.0,0.0,0.0,1.0,2.19512200356,-0.365853667259,-0.304878056049,1.0,0.0,0.0,0.0,1.0,0.0,0.0,0.0,1.0,-0.775721337891,0.292092584273,-10.2040874756,1.0,0.0,0.0,0.0,1.0,0.0,0.0,0.0,1.0
1463751274849124522,411,1463751274846958698,,0.266210645437,-2.79647684097,82.3777542114,0.0200009997934,1.0,0.0,0.0,0.0,1.0,0.0,0.0,0.0,1.0,2.13414645195,-0.548780500889,-0.304878056049,1.0,0.0,0.0,0.0,1.0,0.0,0.0,0.0,1.0,-0.703895288086,0.201112939453,-10.2088758789,1.0,0.0,0.0,0.0,1.0,0.0,0.0,0.0,1.0
1463751274868862771,412,1463751274866924707,,0.268882423639,-2.78292179108,82.3804397583,0.0200009997934,1.0,0.0,0.0,0.0,1.0,0.0,0.0,0.0,1.0,2.19512200356,-0.243902444839,-0.12195122242,1.0,0.0,0.0,0.0,1.0,0.0,0.0,0.0,1.0,-0.718260498047,0.248996972656,-10.2136642822,1.0,0.0,0.0,0.0,1.0,0.0,0.0,0.0,1.0
1463751274889110654,413,1463751274886960038,,0.271934211254,-2.77205395699,82.3804626465,0.0200009997934,1.0,0.0,0.0,0.0,1.0,0.0,0.0,0.0,1.0,2.01219511032,-0.18292683363,-0.243902444839,1.0,0.0,0.0,0.0,1.0,0.0,0.0,0.0,1.0,-0.742202514648,0.210689746094,-10.0891657959,1.0,0.0,0.0,0.0,1.0,0.0,0.0,0.0,1.0
1463751274909083589,414,1463751274906911619,,0.268378347158,-2.77034544945,82.3833465576,0.019999999553,1.0,0.0,0.0,0.0,1.0,0.0,0.0,0.0,1.0,2.13414645195,-0.609756112099,-0.12195122242,1.0,0.0,0.0,0.0,1.0,0.0,0.0,0.0,1.0,-0.751779321289,0.292092584273,-10.1705686523,1.0,0.0,0.0,0.0,1.0,0.0,0.0,0.0,1.0
1463751274929107358,415,1463751274927017158,,0.262914419174,-2.76833963394,82.3824234009,0.019999999553,1.0,0.0,0.0,0.0,1.0,0.0,0.0,0.0,1.0,1.8902438879,-0.548780500889,-0.304878056049,1.0,0.0,0.0,0.0,1.0,0.0,0.0,0.0,1.0,-0.76135612793,0.268150604204,-10.1897222656,1.0,0.0,0.0,0.0,1.0,0.0,0.0,0.0,1.0
1463751274949909560,416,1463751274946905198,,0.274479150772,-2.76118278503,82.3806762695,0.0199950002134,1.0,0.0,0.0,0.0,1.0,0.0,0.0,0.0,1.0,1.8902438879,-0.365853667259,-0.304878056049,1.0,0.0,0.0,0.0,1.0,0.0,0.0,0.0,1.0,-0.742202514648,0.114921679688,-10.1178962158,1.0,0.0,0.0,0.0,1.0,0.0,0.0,0.0,1.0
1463751274969778121,417,1463751274966904279,,0.288021922112,-2.75617623329,82.379234314,0.0200069993734,1.0,0.0,0.0,0.0,1.0,0.0,0.0,0.0,1.0,2.31707310677,-0.487804889679,-0.304878056049,1.0,0.0,0.0,0.0,1.0,0.0,0.0,0.0,1.0,-0.742202514648,0.172382519531,-10.1705686523,1.0,0.0,0.0,0.0,1.0,0.0,0.0,0.0,1.0
1463751274989546578,418,1463751274986901954,,0.291095286608,-2.75668501854,82.3793487549,0.0199979990721,1.0,0.0,0.0,0.0,1.0,0.0,0.0,0.0,1.0,2.13414645195,-0.609756112099,-0.243902444839,1.0,0.0,0.0,0.0,1.0,0.0,0.0,0.0,1.0,-0.76614453125,0.229843359375,-10.1322614258,1.0,0.0,0.0,0.0,1.0,0.0,0.0,0.0,1.0
1463751275009231130,419,1463751275006907390,,0.288834393024,-2.75133180618,82.3821411133,0.0200009997934,1.0,0.0,0.0,0.0,1.0,0.0,0.0,0.0,1.0,2.07317066193,-0.365853667259,-0.12195122242,1.0,0.0,0.0,0.0,1.0,0.0,0.0,0.0,1.0,-0.76614453125,0.268150604204,-10.2519715088,1.0,0.0,0.0,0.0,1.0,0.0,0.0,0.0,1.0
1463751275028995889,420,1463751275026902512,,0.279274493456,-2.75945425034,82.3888397217,0.0199970006943,1.0,0.0,0.0,0.0,1.0,0.0,0.0,0.0,1.0,2.01219511032,-0.670731723309,0.0609756112099,1.0,0.0,0.0,0.0,1.0,0.0,0.0,0.0,1.0,-0.828393774414,0.320823022461,-10.2040874756,1.0,0.0,0.0,0.0,1.0,0.0,0.0,0.0,1.0
1463751275049393875,421,1463751275046903000,,0.286423206329,-2.75857329369,82.393661499,0.0199979990721,1.0,0.0,0.0,0.0,1.0,0.0,0.0,0.0,1.0,2.13414645195,-0.243902444839,-0.0,1.0,0.0,0.0,0.0,1.0,0.0,0.0,0.0,1.0,-0.814028564453,0.191536132812,-10.060435376,1.0,0.0,0.0,0.0,1.0,0.0,0.0,0.0,1.0
1463751275069686236,422,1463751275066970674,,0.279772013426,-2.74880957603,82.3903427124,0.0200040005147,1.0,0.0,0.0,0.0,1.0,0.0,0.0,0.0,1.0,1.8902438879,-0.670731723309,-0.426829278469,1.0,0.0,0.0,0.0,1.0,0.0,0.0,0.0,1.0,-0.670376464844,0.277727392578,-10.2376062988,1.0,0.0,0.0,0.0,1.0,0.0,0.0,0.0,1.0
1463751275088566936,423,1463751275086960901,,0.272145092487,-2.74400997162,82.394493103,0.0199989993125,1.0,0.0,0.0,0.0,1.0,0.0,0.0,0.0,1.0,1.95121955872,-0.243902444839,-0.0609756112099,1.0,0.0,0.0,0.0,1.0,0.0,0.0,0.0,1.0,-0.780509741211,0.292092584273,-10.1035310059,1.0,0.0,0.0,0.0,1.0,0.0,0.0,0.0,1.0
1463751275108599090,424,1463751275106964201,,0.279897630215,-2.73903822899,82.3957061768,0.0200009997934,1.0,0.0,0.0,0.0,1.0,0.0,0.0,0.0,1.0,2.25609779358,-0.365853667259,-0.18292683363,1.0,0.0,0.0,0.0,1.0,0.0,0.0,0.0,1.0,-0.77093293457,0.215478149414,-10.299855542,1.0,0.0,0.0,0.0,1.0,0.0,0.0,0.0,1.0
1463751275128557807,425,1463751275126989480,,0.275920748711,-2.739620924,82.3973922729,0.0199960004538,1.0,0.0,0.0,0.0,1.0,0.0,0.0,0.0,1.0,2.13414645195,-0.426829278469,-0.18292683363,1.0,0.0,0.0,0.0,1.0,0.0,0.0,0.0,1.0,-0.804451757813,0.296881024126,-10.2328178955,1.0,0.0,0.0,0.0,1.0,0.0,0.0,0.0,1.0
1463751275148938449,426,1463751275146959760,,0.280811578035,-2.74218630791,82.4011383057,0.019999999553,1.0,0.0,0.0,0.0,1.0,0.0,0.0,0.0,1.0,2.19512200356,-0.426829278469,-0.0609756112099,1.0,0.0,0.0,0.0,1.0,0.0,0.0,0.0,1.0,-0.814028564453,0.225054956055,-10.1274730225,1.0,0.0,0.0,0.0,1.0,0.0,0.0,0.0,1.0
1463751275168709042,427,1463751275167000091,,0.272361636162,-2.74673724174,82.4066390991,0.0200249999762,1.0,0.0,0.0,0.0,1.0,0.0,0.0,0.0,1.0,2.07317066193,-0.548780500889,-0.0,1.0,0.0,0.0,0.0,1.0,0.0,0.0,0.0,1.0,-0.809240161133,0.320823022461,-10.1131078125,1.0,0.0,0.0,0.0,1.0,0.0,0.0,0.0,1.0
1463751275188592082,428,1463751275186971672,,0.277596622705,-2.73676300049,82.411857605,0.0199759993702,1.0,0.0,0.0,0.0,1.0,0.0,0.0,0.0,1.0,2.43902444839,-0.0609756112099,-0.0,1.0,0.0,0.0,0.0,1.0,0.0,0.0,0.0,1.0,-0.775721337891,0.268150604204,-10.2280294922,1.0,0.0,0.0,0.0,1.0,0.0,0.0,0.0,1.0
1463751275208546163,429,1463751275206977784,,0.282197803259,-2.71911907196,82.4169158936,0.0200020000339,1.0,0.0,0.0,0.0,1.0,0.0,0.0,0.0,1.0,2.25609779358,-0.243902444839,-0.0,1.0,0.0,0.0,0.0,1.0,0.0,0.0,0.0,1.0,-0.670376464844,0.239420166016,-10.2136642822,1.0,0.0,0.0,0.0,1.0,0.0,0.0,0.0,1.0
1463751275229332324,430,1463751275227046865,,0.280487149954,-2.71363353729,82.418296814,0.0199970006943,1.0,0.0,0.0,0.0,1.0,0.0,0.0,0.0,1.0,1.95121955872,-0.365853667259,-0.18292683363,1.0,0.0,0.0,0.0,1.0,0.0,0.0,0.0,1.0,-0.76135612793,0.244208569336,-10.2950671387,1.0,0.0,0.0,0.0,1.0,0.0,0.0,0.0,1.0
1463751275249137916,431,1463751275246907926,,0.296756535769,-2.71734380722,82.4143447876,0.0200030002743,1.0,0.0,0.0,0.0,1.0,0.0,0.0,0.0,1.0,2.37804889679,-0.426829278469,-0.426829278469,1.0,0.0,0.0,0.0,1.0,0.0,0.0,0.0,1.0,-0.818816967773,0.15801730957,-10.1131078125,1.0,0.0,0.0,0.0,1.0,0.0,0.0,0.0,1.0
1463751275269131893,432,1463751275266900080,,0.29883480072,-2.71496844292,82.4159088135,0.0200030002743,1.0,0.0,0.0,0.0,1.0,0.0,0.0,0.0,1.0,2.31707310677,-0.243902444839,-0.18292683363,1.0,0.0,0.0,0.0,1.0,0.0,0.0,0.0,1.0,-0.794874951172,0.268150604204,-10.0795889893,1.0,0.0,0.0,0.0,1.0,0.0,0.0,0.0,1.0
1463751275289038215,433,1463751275286899057,,0.303281605244,-2.72287726402,82.4185791016,0.0200020000339,1.0,0.0,0.0,0.0,1.0,0.0,0.0,0.0,1.0,2.31707310677,-0.487804889679,-0.12195122242,1.0,0.0,0.0,0.0,1.0,0.0,0.0,0.0,1.0,-0.852335791016,0.248996972656,-10.1945106689,1.0,0.0,0.0,0.0,1.0,0.0,0.0,0.0,1.0
1463751275308621100,434,1463751275306964232,,0.261069148779,-3.08644175529,82.445602417,0.0199960004538,1.0,0.0,0.0,0.0,1.0,0.0,0.0,0.0,1.0,1.2804877758,-1.95121955872,1.03658533096,1.0,0.0,0.0,0.0,1.0,0.0,0.0,0.0,1.0,-5.54497104492,0.699106884766,-13.962984082,1.0,0.0,0.0,0.0,1.0,0.0,0.0,0.0,1.0
1463751275328610858,435,1463751275326989511,,0.224686458707,-3.50074243546,82.4591217041,0.0199970006943,1.0,0.0,0.0,0.0,1.0,0.0,0.0,0.0,1.0,6.34146356583,-9.87804889679,0.12195122242,1.0,0.0,0.0,0.0,1.0,0.0,0.0,0.0,1.0,-3.85466467285,1.81001645508,-13.0627642578,1.0,0.0,0.0,0.0,1.0,0.0,0.0,0.0,1.0
1463751275348747699,436,1463751275346952342,,0.202852278948,-3.5449411869,82.3982467651,0.0199989993125,1.0,0.0,0.0,0.0,1.0,0.0,0.0,0.0,1.0,3.59756112099,-16.7073173523,-3.41463422775,1.0,0.0,0.0,0.0,1.0,0.0,0.0,0.0,1.0,1.64242233887,0.780509741211,-10.2567599121,1.0,0.0,0.0,0.0,1.0,0.0,0.0,0.0,1.0
1463751275369066362,437,1463751275366966163,,0.474756717682,-3.30602622032,82.467414856,0.0200020000339,1.0,0.0,0.0,0.0,1.0,0.0,0.0,0.0,1.0,4.45121955872,2.37804889679,3.84146332741,1.0,0.0,0.0,0.0,1.0,0.0,0.0,0.0,1.0,0.660799658203,-1.64242233887,-9.15542714844,1.0,0.0,0.0,0.0,1.0,0.0,0.0,0.0,1.0
1463751275389215234,438,1463751275386975035,,0.506900250912,-3.05958342552,82.5820465088,0.019999999553,1.0,0.0,0.0,0.0,1.0,0.0,0.0,0.0,1.0,-6.34146356583,20.6707324982,5.85365867615,1.0,0.0,0.0,0.0,1.0,0.0,0.0,0.0,1.0,-3.31357509766,-2.23139594727,-13.2495119873,1.0,0.0,0.0,0.0,1.0,0.0,0.0,0.0,1.0
1463751275408935098,439,1463751275406955992,,0.222014412284,-2.8125679493,82.3944396973,0.0200009997934,1.0,0.0,0.0,0.0,1.0,0.0,0.0,0.0,1.0,1.15853655338,-3.47560977936,-10.3048782349,1.0,0.0,0.0,0.0,1.0,0.0,0.0,0.0,1.0,1.57538469238,2.1930887207,-7.81946262207,1.0,0.0,0.0,0.0,1.0,0.0,0.0,0.0,1.0
1463751275428900325,440,1463751275426978302,,0.73597162962,-1.8155850172,82.2488327026,0.0199979990721,1.0,0.0,0.0,0.0,1.0,0.0,0.0,0.0,1.0,9.63414573669,7.19512224197,-6.89024400711,1.0,0.0,0.0,0.0,1.0,0.0,0.0,0.0,1.0,6.21055910645,-2.62883342285,-6.12915625,1.0,0.0,0.0,0.0,1.0,0.0,0.0,0.0,1.0
1463751275448612272,441,1463751275446960873,,1.24584078789,-1.82027733326,82.2418060303,0.0200009997934,1.0,0.0,0.0,0.0,1.0,0.0,0.0,0.0,1.0,10.6097564697,-8.96341514587,0.0609756112099,1.0,0.0,0.0,0.0,1.0,0.0,0.0,0.0,1.0,0.593762048251,-1.94888015137,-6.59841977539,1.0,0.0,0.0,0.0,1.0,0.0,0.0,0.0,1.0
1463751275470246294,442,1463751275466948912,,1.69863033295,-2.46048688889,82.3130645752,0.0200009997934,1.0,0.0,0.0,0.0,1.0,0.0,0.0,0.0,1.0,7.74390268326,0.0609756112099,3.96341490746,1.0,0.0,0.0,0.0,1.0,0.0,0.0,0.0,1.0,-7.13472094727,-3.29442148437,-8.27914934082,1.0,0.0,0.0,0.0,1.0,0.0,0.0,0.0,1.0
1463751275489583555,443,1463751275486906327,,1.10441970825,-2.28784656525,82.2351379395,0.0200009997934,1.0,0.0,0.0,0.0,1.0,0.0,0.0,0.0,1.0,-8.84146404266,1.2195122242,-5.0,1.0,0.0,0.0,0.0,1.0,0.0,0.0,0.0,1.0,0.301669427446,1.98239897461,-5.5401826416,1.0,0.0,0.0,0.0,1.0,0.0,0.0,0.0,1.0
1463751275510282060,444,1463751275506909575,,1.02982342243,-2.88953495026,82.168548584,0.0200009997934,1.0,0.0,0.0,0.0,1.0,0.0,0.0,0.0,1.0,0.670731723309,-12.0731716156,-3.47560977936,1.0,0.0,0.0,0.0,1.0,0.0,0.0,0.0,1.0,-3.95522114258,0.555454785156,-9.22246479492,1.0,0.0,0.0,0.0,1.0,0.0,0.0,0.0,1.0
1463751275529576197,445,1463751275526905062,,1.18573915958,-2.44237279892,82.0631637573,0.0199989993125,1.0,0.0,0.0,0.0,1.0,0.0,0.0,0.0,1.0,2.68292689323,7.98780536652,-5.36585378647,1.0,0.0,0.0,0.0,1.0,0.0,0.0,0.0,1.0,1.99197578125,-1.34075292969,-11.8225677979,1.0,0.0,0.0,0.0,1.0,0.0,0.0,0.0,1.0
1463751275549670486,446,1463751275546911852,,0.946153700352,-2.33511281013,82.0553283691,0.0200020000339,1.0,0.0,0.0,0.0,1.0,0.0,0.0,0.0,1.0,-2.80487799644,-5.42682933807,-0.853658556938,1.0,0.0,0.0,0.0,1.0,0.0,0.0,0.0,1.0,1.22104284668,1.4844050293,-10.8696755371,1.0,0.0,0.0,0.0,1.0,0.0,0.0,0.0,1.0
1463751275569751546,447,1463751275566900725,,1.15425229073,-2.18469023705,81.8773269653,0.019999999553,1.0,0.0,0.0,0.0,1.0,0.0,0.0,0.0,1.0,5.73170757294,-10.548781395,-8.71951198578,1.0,0.0,0.0,0.0,1.0,0.0,0.0,0.0,1.0,2.71981308594,-1.13485158691,-10.9893856201,1.0,0.0,0.0,0.0,1.0,0.0,0.0,0.0,1.0
1463751275589100890,448,1463751275586904806,,0.857131779194,-1.74260020256,81.8511047363,0.0200009997934,1.0,0.0,0.0,0.0,1.0,0.0,0.0,0.0,1.0,-7.13414621353,16.2804889679,-2.07317066193,1.0,0.0,0.0,0.0,1.0,0.0,0.0,0.0,1.0,0.3064578125,1.24498486328,-11.2671130127,1.0,0.0,0.0,0.0,1.0,0.0,0.0,0.0,1.0
1463751275609096169,449,1463751275606963366,,0.882809638977,-1.74549639225,81.7362747192,0.0199979990721,1.0,0.0,0.0,0.0,1.0,0.0,0.0,0.0,1.0,0.0,-1.70731711388,-5.85365867615,1.0,0.0,0.0,0.0,1.0,0.0,0.0,0.0,1.0,-0.402225878906,-0.402225878906,-9.57680722515,1.0,0.0,0.0,0.0,1.0,0.0,0.0,0.0,1.0
1463751275628599211,450,1463751275626958124,,0.436495155096,-1.97832238674,81.6839752197,0.0199989993125,1.0,0.0,0.0,0.0,1.0,0.0,0.0,0.0,1.0,-6.64634132385,-9.81707286835,-3.17073178291,1.0,0.0,0.0,0.0,1.0,0.0,0.0,0.0,1.0,-1.10612116699,2.83952316895,-10.6685625977,1.0,0.0,0.0,0.0,1.0,0.0,0.0,0.0,1.0
1463751275649001884,451,1463751275646950955,,0.365602821112,-1.81538212299,81.6391677856,0.0199989993125,1.0,0.0,0.0,0.0,1.0,0.0,0.0,0.0,1.0,4.57317066193,-7.98780536652,-2.62195134163,1.0,0.0,0.0,0.0,1.0,0.0,0.0,0.0,1.0,2.38462499965,1.45088620605,-10.8217915039,1.0,0.0,0.0,0.0,1.0,0.0,0.0,0.0,1.0
1463751275668955236,452,1463751275666961599,,0.620162308216,-2.3664624691,81.5468978882,0.019999999553,1.0,0.0,0.0,0.0,1.0,0.0,0.0,0.0,1.0,3.41463422775,-22.0121955872,-4.2682929039,1.0,0.0,0.0,0.0,1.0,0.0,0.0,0.0,1.0,-1.72861359863,-1.81001645508,-10.0412817627,1.0,0.0,0.0,0.0,1.0,0.0,0.0,0.0,1.0
1463751275688583277,453,1463751275686954586,,0.452606588602,-2.29457306862,81.4730377197,0.019999999553,1.0,0.0,0.0,0.0,1.0,0.0,0.0,0.0,1.0,3.17073178291,-6.21951246262,-4.2682929039,1.0,0.0,0.0,0.0,1.0,0.0,0.0,0.0,1.0,0.790086547852,1.57538469238,-8.15943925781,1.0,0.0,0.0,0.0,1.0,0.0,0.0,0.0,1.0
1463751275708547306,454,1463751275706953563,,0.588208079338,-2.78563308716,81.4111022949,0.019999999553,1.0,0.0,0.0,0.0,1.0,0.0,0.0,0.0,1.0,-0.792682945728,-6.89024400711,-2.86585378647,1.0,0.0,0.0,0.0,1.0,0.0,0.0,0.0,1.0,-5.12837995605,-1.93451494141,-12.0763531738,1.0,0.0,0.0,0.0,1.0,0.0,0.0,0.0,1.0
1463751275728570242,455,1463751275726958321,,0.572277486324,-2.99073839188,81.3574523926,0.0200020000339,1.0,0.0,0.0,0.0,1.0,0.0,0.0,0.0,1.0,4.20731735229,-10.1219511032,-2.98780488968,1.0,0.0,0.0,0.0,1.0,0.0,0.0,0.0,1.0,-0.780509741211,0.641646044922,-8.71489404297,1.0,0.0,0.0,0.0,1.0,0.0,0.0,0.0,1.0
1463751275749428225,456,1463751275746958548,,-0.0644490942359,-2.83481240273,81.4132080078,0.0199970006943,1.0,0.0,0.0,0.0,1.0,0.0,0.0,0.0,1.0,1.8292683363,3.65853667259,0.853658556938,1.0,0.0,0.0,0.0,1.0,0.0,0.0,0.0,1.0,-0.0718260498047,5.92804331055,-8.39885883931,1.0,0.0,0.0,0.0,1.0,0.0,0.0,0.0,1.0
1463751275769718034,457,1463751275766956640,,0.178622573614,-2.4405400753,81.3541412354,0.019999999553,1.0,0.0,0.0,0.0,1.0,0.0,0.0,0.0,1.0,6.82926845551,6.28048801422,-2.86585378647,1.0,0.0,0.0,0.0,1.0,0.0,0.0,0.0,1.0,2.48039291992,-1.60890351563,-16.1512855685,1.0,0.0,0.0,0.0,1.0,0.0,0.0,0.0,1.0
1463751275789894563,458,1463751275786933430,,0.216287046671,-1.4964479208,81.3933868408,0.0200020000339,1.0,0.0,0.0,0.0,1.0,0.0,0.0,0.0,1.0,3.59756112099,20.6707324982,1.64634156227,1.0,0.0,0.0,0.0,1.0,0.0,0.0,0.0,1.0,5.66946953125,0.272938989258,-13.2973960205,1.0,0.0,0.0,0.0,1.0,0.0,0.0,0.0,1.0
1463751275808996773,459,1463751275806958500,,-0.255982786417,-0.778237164021,81.4188537598,0.0199970006943,1.0,0.0,0.0,0.0,1.0,0.0,0.0,0.0,1.0,-0.365853667259,8.71951198578,0.609756112099,1.0,0.0,0.0,0.0,1.0,0.0,0.0,0.0,1.0,5.36301171875,5.08528432617,-10.3477395752,1.0,0.0,0.0,0.0,1.0,0.0,0.0,0.0,1.0
1463751275828532210,460,1463751275826978363,,0.00412856927142,-0.884847462177,81.3620529175,0.0200040005147,1.0,0.0,0.0,0.0,1.0,0.0,0.0,0.0,1.0,2.74390244484,5.91463422775,-2.80487799644,1.0,0.0,0.0,0.0,1.0,0.0,0.0,0.0,1.0,-2.11647412145,-1.56101948242,-8.09719001465,1.0,0.0,0.0,0.0,1.0,0.0,0.0,0.0,1.0
1463751275849526600,461,1463751275846958538,,-0.220355346799,-0.531742811203,81.2640609741,0.0199970006943,1.0,0.0,0.0,0.0,1.0,0.0,0.0,0.0,1.0,-0.487804889679,-4.63414621353,-5.18292713165,1.0,0.0,0.0,0.0,1.0,0.0,0.0,0.0,1.0,3.05500131836,1.63763393555,-8.24563051758,1.0,0.0,0.0,0.0,1.0,0.0,0.0,0.0,1.0
1463751275868896360,462,1463751275866955848,,-0.100834995508,-0.295674264431,81.2075424194,0.0200009997934,1.0,0.0,0.0,0.0,1.0,0.0,0.0,0.0,1.0,3.65853667259,9.63414573669,-2.92682933807,1.0,0.0,0.0,0.0,1.0,0.0,0.0,0.0,1.0,-0.119710083008,-0.646434448242,-14.6764561768,1.0,0.0,0.0,0.0,1.0,0.0,0.0,0.0,1.0
1463751275897298270,463,1463751275886960033,,0.307418465614,-0.747250378132,81.0569381714,0.0200040005147,1.0,0.0,0.0,0.0,1.0,0.0,0.0,0.0,1.0,0.243902444839,-7.86585378647,-7.50000047684,1.0,0.0,0.0,0.0,1.0,0.0,0.0,0.0,1.0,-3.28484467773,-3.92170231934,-9.61511445171,1.0,0.0,0.0,0.0,1.0,0.0,0.0,0.0,1.0
1463751275908741294,464,1463751275906977083,,0.466038972139,-0.635420799255,80.8563461304,0.019999999553,1.0,0.0,0.0,0.0,1.0,0.0,0.0,0.0,1.0,4.93902444839,-16.4024391174,-10.0609760284,1.0,0.0,0.0,0.0,1.0,0.0,0.0,0.0,1.0,4.09408483887,-0.76614453125,-11.4011883057,1.0,0.0,0.0,0.0,1.0,0.0,0.0,0.0,1.0
1463751275928825635,465,1463751275926952779,,0.625397622585,-0.236001685262,80.7354507446,0.019991999492,1.0,0.0,0.0,0.0,1.0,0.0,0.0,0.0,1.0,-2.5,4.2682929039,-6.15853643417,1.0,0.0,0.0,0.0,1.0,0.0,0.0,0.0,1.0,2.50433493652,-2.18351191406,-10.4626612549,1.0,0.0,0.0,0.0,1.0,0.0,0.0,0.0,1.0
1463751275949646276,466,1463751275946932329,,1.23699617386,-1.07777476311,80.5840835571,0.019999999553,1.0,0.0,0.0,0.0,1.0,0.0,0.0,0.0,1.0,7.19512224197,-9.14634132385,-7.31707334518,1.0,0.0,0.0,0.0,1.0,0.0,0.0,0.0,1.0,-10.6685625977,-7.2831614502,-11.2192289795,1.0,0.0,0.0,0.0,1.0,0.0,0.0,0.0,1.0
1463751275969037391,467,1463751275966929848,,1.01533412933,-0.339596629143,80.2061920166,0.020005999133,1.0,0.0,0.0,0.0,1.0,0.0,0.0,0.0,1.0,1.64634156227,-1.03658533096,-19.2073173523,1.0,0.0,0.0,0.0,1.0,0.0,0.0,0.0,1.0,5.04218869629,1.69030637207,-6.30153876953,1.0,0.0,0.0,0.0,1.0,0.0,0.0,0.0,1.0
1463751275989701052,468,1463751275986921064,,0.210616722703,-0.939443230629,79.9908905029,0.0199970006943,1.0,0.0,0.0,0.0,1.0,0.0,0.0,0.0,1.0,7.80487823486,-2.43902444839,-11.4024391174,1.0,0.0,0.0,0.0,1.0,0.0,0.0,0.0,1.0,-1.66157595215,2.65277543945,-0.383072265625,1.0,0.0,0.0,0.0,1.0,0.0,0.0,0.0,1.0
1463751276009108417,469,1463751276006931708,,0.0866220444441,-0.102867297828,79.7913742065,0.019999999553,1.0,0.0,0.0,0.0,1.0,0.0,0.0,0.0,1.0,4.08536577225,15.2439022064,-10.3048782349,1.0,0.0,0.0,0.0,1.0,0.0,0.0,0.0,1.0,4.44363828125,1.838746875,-9.52413478862,1.0,0.0,0.0,0.0,1.0,0.0,0.0,0.0,1.0
1463751276029461403,470,1463751276026922351,,0.0199534446001,-0.0890879631042,79.4788742065,0.0199979990721,1.0,0.0,0.0,0.0,1.0,0.0,0.0,0.0,1.0,-3.29268312454,-20.5487823486,-15.7317075729,1.0,0.0,0.0,0.0,1.0,0.0,0.0,0.0,1.0,4.07493122559,-0.0909796630859,-11.4442839355,1.0,0.0,0.0,0.0,1.0,0.0,0.0,0.0,1.0
1463751276049446839,471,1463751276046924662,,0.112317368388,0.206827163696,79.1243209839,0.0200020000339,1.0,0.0,0.0,0.0,1.0,0.0,0.0,0.0,1.0,2.56097555161,4.75609779358,-17.8658542633,1.0,0.0,0.0,0.0,1.0,0.0,0.0,0.0,1.0,1.80522805176,-0.579396801758,-12.9430541748,1.0,0.0,0.0,0.0,1.0,0.0,0.0,0.0,1.0
1463751276069105609,472,1463751276066928066,,0.0930723026395,-0.601121783257,78.8905715942,0.0200040005147,1.0,0.0,0.0,0.0,1.0,0.0,0.0,0.0,1.0,12.5609760284,-11.2195119858,-11.7682924271,1.0,0.0,0.0,0.0,1.0,0.0,0.0,0.0,1.0,-4.43406147461,1.85790048828,-6.46913288574,1.0,0.0,0.0,0.0,1.0,0.0,0.0,0.0,1.0
1463751276090458694,473,1463751276086917772,,0.380211472511,-0.410569369793,78.6973648071,0.0199970006943,1.0,0.0,0.0,0.0,1.0,0.0,0.0,0.0,1.0,0.609756112099,4.75609779358,-9.69512176514,1.0,0.0,0.0,0.0,1.0,0.0,0.0,0.0,1.0,0.497993945312,-3.45722719727,-13.3883756836,1.0,0.0,0.0,0.0,1.0,0.0,0.0,0.0,1.0
1463751276109158927,474,1463751276106917426,,0.312256246805,-0.1407764256,78.2820281982,0.019999999553,1.0,0.0,0.0,0.0,1.0,0.0,0.0,0.0,1.0,-2.01219511032,1.40243899822,-20.9146347046,1.0,0.0,0.0,0.0,1.0,0.0,0.0,0.0,1.0,1.93451494141,0.143652099609,-11.4442839355,1.0,0.0,0.0,0.0,1.0,0.0,0.0,0.0,1.0
1463751276129084675,475,1463751276126925153,,0.91431248188,-0.195980727673,77.6502990723,0.0199950002134,1.0,0.0,0.0,0.0,1.0,0.0,0.0,0.0,1.0,13.2926826477,-23.3536586761,-31.5243930817,1.0,0.0,0.0,0.0,1.0,0.0,0.0,0.0,1.0,1.96324536133,-1.90099611816,-5.5401826416,1.0,0.0,0.0,0.0,1.0,0.0,0.0,0.0,1.0
1463751276149700889,476,1463751276146951578,,1.29832077026,0.644211828709,77.3169937134,0.0200009997934,1.0,0.0,0.0,0.0,1.0,0.0,0.0,0.0,1.0,9.20731735229,12.2560977936,-17.134147644,1.0,0.0,0.0,0.0,1.0,0.0,0.0,0.0,1.0,8.21211169434,-3.40455476074,-14.6573025635,1.0,0.0,0.0,0.0,1.0,0.0,0.0,0.0,1.0
1463751276169029973,477,1463751276166952951,,1.2101610899,1.35821223259,77.0648498535,0.0200079996139,1.0,0.0,0.0,0.0,1.0,0.0,0.0,0.0,1.0,-2.25609779358,16.0365848541,-13.1097564697,1.0,0.0,0.0,0.0,1.0,0.0,0.0,0.0,1.0,5.26245524902,0.0861912597656,-15.8256729736,1.0,0.0,0.0,0.0,1.0,0.0,0.0,0.0,1.0
1463751276188835461,478,1463751276186921980,,1.54786372185,2.10172224045,76.7959442139,0.0199970006943,1.0,0.0,0.0,0.0,1.0,0.0,0.0,0.0,1.0,-2.86585378647,-6.58536624908,-14.0853662491,1.0,0.0,0.0,0.0,1.0,0.0,0.0,0.0,1.0,6.30632717285,-3.18428820801,-4.71178857493,1.0,0.0,0.0,0.0,1.0,0.0,0.0,0.0,1.0
1463751276208790532,479,1463751276207011373,,1.23801696301,2.88036060333,76.4104995728,0.0200020000339,1.0,0.0,0.0,0.0,1.0,0.0,0.0,0.0,1.0,-4.81707286835,66.5243911743,-20.7926826477,1.0,0.0,0.0,0.0,1.0,0.0,0.0,0.0,1.0,-9.00698664551,2.57616098633,-15.3659862549,1.0,0.0,0.0,0.0,1.0,0.0,0.0,0.0,1.0
1463751276228932582,480,1463751276226977225,,1.41955864429,2.76836419106,75.7735214233,0.0199979990721,1.0,0.0,0.0,0.0,1.0,0.0,0.0,0.0,1.0,8.04878044128,-13.3536586761,-31.8292694092,1.0,0.0,0.0,0.0,1.0,0.0,0.0,0.0,1.0,2.48039291992,-1.35990654297,-17.9613020235,1.0,0.0,0.0,0.0,1.0,0.0,0.0,0.0,1.0
1463751276248600258,481,1463751276246974432,,1.79953563213,1.97463846207,75.3423690796,0.0199960004538,1.0,0.0,0.0,0.0,1.0,0.0,0.0,0.0,1.0,3.47560977936,-11.7073173523,-22.1341457367,1.0,0.0,0.0,0.0,1.0,0.0,0.0,0.0,1.0,-6.43082565918,-4.0557776123,-10.2519715088,1.0,0.0,0.0,0.0,1.0,0.0,0.0,0.0,1.0
1463751276268989233,482,1463751276266963148,,1.27857899666,1.90233075619,74.9055480957,0.0200050007552,1.0,0.0,0.0,0.0,1.0,0.0,0.0,0.0,1.0,-3.23170733452,-2.31707310677,-21.2195129395,1.0,0.0,0.0,0.0,1.0,0.0,0.0,0.0,1.0,-0.469263525391,4.33350529714,-11.4634375488,1.0,0.0,0.0,0.0,1.0,0.0,0.0,0.0,1.0
1463751276288579306,483,1463751276286969052,,2.01771712303,2.06281352043,74.4932556152,0.0199979990721,1.0,0.0,0.0,0.0,1.0,0.0,0.0,0.0,1.0,12.0731716156,2.74390244484,-21.7682933807,1.0,0.0,0.0,0.0,1.0,0.0,0.0,0.0,1.0,0.9193734375,-5.90410129395,-10.7643306641,1.0,0.0,0.0,0.0,1.0,0.0,0.0,0.0,1.0
1463751276308596408,484,1463751276306980060,,1.95048058033,2.14919877052,73.9683837891,0.0199989993125,1.0,0.0,0.0,0.0,1.0,0.0,0.0,0.0,1.0,6.21951246262,-9.75609779358,-25.7926845551,1.0,0.0,0.0,0.0,1.0,0.0,0.0,0.0,1.0,3.44765039062,1.65678754883,-14.4753432373,1.0,0.0,0.0,0.0,1.0,0.0,0.0,0.0,1.0
1463751276328879029,485,1463751276326984871,,2.40185689926,1.95914912224,73.5477676392,0.0200009997934,1.0,0.0,0.0,0.0,1.0,0.0,0.0,0.0,1.0,12.3170728683,-19.0243911743,-20.975610733,1.0,0.0,0.0,0.0,1.0,0.0,0.0,0.0,1.0,1.69030637207,-2.59531459961,-10.6158901611,1.0,0.0,0.0,0.0,1.0,0.0,0.0,0.0,1.0
1463751276348678684,486,1463751276346986400,,2.14351582527,0.666832864285,73.053276062,0.0200040005147,1.0,0.0,0.0,0.0,1.0,0.0,0.0,0.0,1.0,0.18292683363,-24.4512195587,-23.658536911,1.0,0.0,0.0,0.0,1.0,0.0,0.0,0.0,1.0,-12.5360398926,3.16034619141,-10.8888291504,1.0,0.0,0.0,0.0,1.0,0.0,0.0,0.0,1.0
1463751276368913962,487,1463751276366964023,,2.60639977455,-0.202225878835,72.471321106,0.0200040005147,1.0,0.0,0.0,0.0,1.0,0.0,0.0,0.0,1.0,16.2804889679,-73.3536605835,-26.4634151459,1.0,0.0,0.0,0.0,1.0,0.0,0.0,0.0,1.0,10.9367131836,-2.32237546422,21.0354557861,1.0,0.0,0.0,0.0,1.0,0.0,0.0,0.0,1.0
1463751276388674607,488,1463751276386949875,,2.48388004303,-0.465866357088,72.1638336182,0.0199909992516,1.0,0.0,0.0,0.0,1.0,0.0,0.0,0.0,1.0,8.35365867615,-15.3048791885,-15.0000009537,1.0,0.0,0.0,0.0,1.0,0.0,0.0,0.0,1.0,-0.119710083008,4.07971962891,13.2782424072,1.0,0.0,0.0,0.0,1.0,0.0,0.0,0.0,1.0
1463751276408545928,489,1463751276406974164,,2.0442636013,1.30579638481,71.830696106,0.0199989993125,1.0,0.0,0.0,0.0,1.0,0.0,0.0,0.0,1.0,-2.43902444839,33.5975608826,-18.1707305908,1.0,0.0,0.0,0.0,1.0,0.0,0.0,0.0,1.0,9.56244201519,3.39018955078,-2.30322199707,1.0,0.0,0.0,0.0,1.0,0.0,0.0,0.0,1.0
1463751276428980424,490,1463751276427034860,,2.18651127815,1.66558289528,71.484413147,0.0200149994344,1.0,0.0,0.0,0.0,1.0,0.0,0.0,0.0,1.0,4.2682929039,10.0609760284,-17.9878044128,1.0,0.0,0.0,0.0,1.0,0.0,0.0,0.0,1.0,1.35990654297,-1.20667770978,-11.8129909912,1.0,0.0,0.0,0.0,1.0,0.0,0.0,0.0,1.0
1463751276448682007,491,1463751276447050607,,2.21891307831,1.08741211891,71.0802536011,0.019985999912,1.0,0.0,0.0,0.0,1.0,0.0,0.0,0.0,1.0,-4.39024400711,-16.8292694092,-20.0,1.0,0.0,0.0,0.0,1.0,0.0,0.0,0.0,1.0,-2.68150585937,-1.80043964844,-10.8648871338,1.0,0.0,0.0,0.0,1.0,0.0,0.0,0.0,1.0
1463751276468931243,492,1463751276466978647,,1.60690677166,0.820044755936,70.6410140991,0.0200020000339,1.0,0.0,0.0,0.0,1.0,0.0,0.0,0.0,1.0,7.13414621353,-21.0975627899,-20.7317085266,1.0,0.0,0.0,0.0,1.0,0.0,0.0,0.0,1.0,0.656011254883,4.04620080566,-5.04218869629,1.0,0.0,0.0,0.0,1.0,0.0,0.0,0.0,1.0
1463751276488559701,493,1463751276486972260,,1.59883964062,1.37470173836,70.3809661865,0.0199970006943,1.0,0.0,0.0,0.0,1.0,0.0,0.0,0.0,1.0,2.37804889679,25.7317085266,-13.9024391174,1.0,0.0,0.0,0.0,1.0,0.0,0.0,0.0,1.0,0.110133276367,0.162805712891,-17.8511675781,1.0,0.0,0.0,0.0,1.0,0.0,0.0,0.0,1.0
1463751276508623990,494,1463751276506976757,,2.12498307228,0.288169443607,70.1979522705,0.0200009997934,1.0,0.0,0.0,0.0,1.0,0.0,0.0,0.0,1.0,13.658536911,-25.6707324982,-8.71951198578,1.0,0.0,0.0,0.0,1.0,0.0,0.0,0.0,1.0,-5.4922986084,-2.65756384277,-8.41322404927,1.0,0.0,0.0,0.0,1.0,0.0,0.0,0.0,1.0
1463751276528660206,495,1463751276526981307,,2.38162374496,1.54477357864,70.1215667725,0.0200009997934,1.0,0.0,0.0,0.0,1.0,0.0,0.0,0.0,1.0,1.40243899822,11.8902444839,-4.69512224197,1.0,0.0,0.0,0.0,1.0,0.0,0.0,0.0,1.0,4.73573059153,-1.2497732666,-2.50912333984,1.0,0.0,0.0,0.0,1.0,0.0,0.0,0.0,1.0
1463751276548826943,496,1463751276546999763,,1.52531373501,0.899842917919,70.00440979,0.0199970006943,1.0,0.0,0.0,0.0,1.0,0.0,0.0,0.0,1.0,-15.7926826477,-31.2195129395,-4.32926845551,1.0,0.0,0.0,0.0,1.0,0.0,0.0,0.0,1.0,-0.220266552734,2.72938989258,-5.71256516113,1.0,0.0,0.0,0.0,1.0,0.0,0.0,0.0,1.0
1463751276569086492,497,1463751276567003115,,1.35533952713,0.994550466537,69.9312133789,0.0200079996139,1.0,0.0,0.0,0.0,1.0,0.0,0.0,0.0,1.0,0.975609779358,-11.6463422775,-3.41463422775,1.0,0.0,0.0,0.0,1.0,0.0,0.0,0.0,1.0,2.91613762207,1.46525141602,-10.5105452881,1.0,0.0,0.0,0.0,1.0,0.0,0.0,0.0,1.0
1463751276589158437,498,1463751276586972978,,0.147311389446,1.27421116829,69.9301300049,0.0199950002134,1.0,0.0,0.0,0.0,1.0,0.0,0.0,0.0,1.0,-6.89024400711,0.731707334518,0.792682945728,1.0,0.0,0.0,0.0,1.0,0.0,0.0,0.0,1.0,1.56580788574,7.21612380371,-2.34631748082,1.0,0.0,0.0,0.0,1.0,0.0,0.0,0.0,1.0
1463751276608919499,499,1463751276606979715,,0.0731082633138,1.29216575623,69.7774581909,0.019999999553,1.0,0.0,0.0,0.0,1.0,0.0,0.0,0.0,1.0,7.56097555161,3.29268312454,-7.56097555161,1.0,0.0,0.0,0.0,1.0,0.0,0.0,0.0,1.0,-1.00556469727,3.23217224121,-17.0515042236,1.0,0.0,0.0,0.0,1.0,0.0,0.0,0.0,1.0
1463751276628935194,500,1463751276626963536,,0.286611169577,0.305207967758,69.7303314209,0.0200009997934,1.0,0.0,0.0,0.0,1.0,0.0,0.0,0.0,1.0,7.01219511032,-18.658536911,-2.5,1.0,0.0,0.0,0.0,1.0,0.0,0.0,0.0,1.0,-8.74841286621,-1.14921679688,-12.8520745117,1.0,0.0,0.0,0.0,1.0,0.0,0.0,0.0,1.0
1463751276648660266,501,1463751276646962461,,-0.2581589818,0.0503249540925,69.5565490723,0.0199989993125,1.0,0.0,0.0,0.0,1.0,0.0,0.0,0.0,1.0,-12.0731716156,-59.3292732239,-8.5365858078,1.0,0.0,0.0,0.0,1.0,0.0,0.0,0.0,1.0,7.88171186523,2.57616098633,-5.61679709473,1.0,0.0,0.0,0.0,1.0,0.0,0.0,0.0,1.0
1463751276668993773,502,1463751276666948365,,0.0738824680448,-0.823410332203,69.3783111572,0.0199979990721,1.0,0.0,0.0,0.0,1.0,0.0,0.0,0.0,1.0,11.341463089,-20.3048782349,-9.02439117432,1.0,0.0,0.0,0.0,1.0,0.0,0.0,0.0,1.0,-4.11323845215,-0.871489404297,-8.14028564453,1.0,0.0,0.0,0.0,1.0,0.0,0.0,0.0,1.0
1463751276688936292,503,1463751276686998384,,0.262445569038,-1.39443385601,69.3381576538,0.0200069993734,1.0,0.0,0.0,0.0,1.0,0.0,0.0,0.0,1.0,14.8780498505,-48.2926864624,-2.13414645195,1.0,0.0,0.0,0.0,1.0,0.0,0.0,0.0,1.0,3.18907661133,0.948103857422,-10.2280294922,1.0,0.0,0.0,0.0,1.0,0.0,0.0,0.0,1.0
1463751276708987040,504,1463751276706962309,,0.443390130997,-1.90449619293,69.3798370361,0.0199950002134,1.0,0.0,0.0,0.0,1.0,0.0,0.0,0.0,1.0,3.29268312454,-33.9024391174,2.25609779358,1.0,0.0,0.0,0.0,1.0,0.0,0.0,0.0,1.0,1.37906015625,-1.82917006836,-15.7873657471,1.0,0.0,0.0,0.0,1.0,0.0,0.0,0.0,1.0
1463751276728862111,505,1463751276726911025,,0.166151568294,-2.29267930984,69.288230896,0.0200009997934,1.0,0.0,0.0,0.0,1.0,0.0,0.0,0.0,1.0,-4.87804889679,-11.6463422775,-5.0,1.0,0.0,0.0,0.0,1.0,0.0,0.0,0.0,1.0,-2.24576115723,1.58974990234,-10.4818148682,1.0,0.0,0.0,0.0,1.0,0.0,0.0,0.0,1.0
1463751276752504614,506,1463751276746974690,,0.357935339212,-1.86917889118,69.1998214722,0.0199970006943,1.0,0.0,0.0,0.0,1.0,0.0,0.0,0.0,1.0,1.40243899822,16.4634151459,-4.32926845551,1.0,0.0,0.0,0.0,1.0,0.0,0.0,0.0,1.0,0.100556469727,-2.59052619629,-16.8503912842,1.0,0.0,0.0,0.0,1.0,0.0,0.0,0.0,1.0
1463751276769197511,507,1463751276767067156,,0.413110911846,-0.0366306789219,69.2916030884,0.0200459994376,1.0,0.0,0.0,0.0,1.0,0.0,0.0,0.0,1.0,-6.95121955872,56.0975608826,4.32926845551,1.0,0.0,0.0,0.0,1.0,0.0,0.0,0.0,1.0,11.1569797363,-3.67749375,-16.0363638888,1.0,0.0,0.0,0.0,1.0,0.0,0.0,0.0,1.0
1463751276789238415,508,1463751276787068997,,0.494710862637,-0.66611623764,69.3800964355,0.0199669990689,1.0,0.0,0.0,0.0,1.0,0.0,0.0,0.0,1.0,-8.04878044128,9.08536529541,4.20731735229,1.0,0.0,0.0,0.0,1.0,0.0,0.0,0.0,1.0,-11.8177793945,-3.54820686035,-9.65342167827,1.0,0.0,0.0,0.0,1.0,0.0,0.0,0.0,1.0
1463751276809151872,509,1463751276807082922,,0.350050598383,1.22077763081,69.5476150513,0.0200009997934,1.0,0.0,0.0,0.0,1.0,0.0,0.0,0.0,1.0,-8.47560977936,73.7804870605,7.68292665482,1.0,0.0,0.0,0.0,1.0,0.0,0.0,0.0,1.0,5.29597407227,-0.612915625,-15.8544033936,1.0,0.0,0.0,0.0,1.0,0.0,0.0,0.0,1.0
1463751276829180276,510,1463751276827040545,,0.0624561198056,1.8209861517,69.6894683838,0.0200169999152,1.0,0.0,0.0,0.0,1.0,0.0,0.0,0.0,1.0,-13.658536911,14.8780498505,6.89024400711,1.0,0.0,0.0,0.0,1.0,0.0,0.0,0.0,1.0,3.02627089844,0.0335188255255,-11.6789156982,1.0,0.0,0.0,0.0,1.0,0.0,0.0,0.0,1.0
1463751276849735969,511,1463751276847005460,,-0.556535243988,2.17002797127,69.5949554443,0.0199979990721,1.0,0.0,0.0,0.0,1.0,0.0,0.0,0.0,1.0,-7.43902492523,30.975610733,-4.08536577225,1.0,0.0,0.0,0.0,1.0,0.0,0.0,0.0,1.0,-1.90099611816,3.10767375488,-6.7660138916,1.0,0.0,0.0,0.0,1.0,0.0,0.0,0.0,1.0
1463751276869419374,512,1463751276866998135,,-0.0881500244141,2.27458667755,69.8033676147,0.0199660006911,1.0,0.0,0.0,0.0,1.0,0.0,0.0,0.0,1.0,3.84146332741,1.34146344662,9.51219558716,1.0,0.0,0.0,0.0,1.0,0.0,0.0,0.0,1.0,1.39342536621,-7.0964137207,-19.7665289062,1.0,0.0,0.0,0.0,1.0,0.0,0.0,0.0,1.0
1463751276889489601,513,1463751276887080445,,-0.329068273306,4.1116271019,69.9830627441,0.0200169999152,1.0,0.0,0.0,0.0,1.0,0.0,0.0,0.0,1.0,-6.21951246262,60.2439041138,9.32926845551,1.0,0.0,0.0,0.0,1.0,0.0,0.0,0.0,1.0,10.2232410889,1.95366855469,-15.2941602051,1.0,0.0,0.0,0.0,1.0,0.0,0.0,0.0,1.0
1463751276909908472,514,1463751276907166401,,-0.392500549555,3.2339758873,70.2553787231,0.0200919993222,1.0,0.0,0.0,0.0,1.0,0.0,0.0,0.0,1.0,-8.96341514587,-0.853658556938,12.9268293381,1.0,0.0,0.0,0.0,1.0,0.0,0.0,0.0,1.0,-13.005303418,-1.57538469238,-11.4011883057,1.0,0.0,0.0,0.0,1.0,0.0,0.0,0.0,1.0
1463751276930409218,515,1463751276927050691,,-0.110958784819,3.92544722557,70.321723938,0.0199180003256,1.0,0.0,0.0,0.0,1.0,0.0,0.0,0.0,1.0,7.01219511032,-15.975610733,2.56097555161,1.0,0.0,0.0,0.0,1.0,0.0,0.0,0.0,1.0,8.19774648437,-1.17315874041,-4.18506420969,1.0,0.0,0.0,0.0,1.0,0.0,0.0,0.0,1.0
1463751276950902099,516,1463751276947019303,,-0.041838798672,4.52182626724,70.2625427246,0.0199839994311,1.0,0.0,0.0,0.0,1.0,0.0,0.0,0.0,1.0,-1.03658533096,0.426829278469,-3.47560977936,1.0,0.0,0.0,0.0,1.0,0.0,0.0,0.0,1.0,5.78917961426,-0.952892260742,-8.96389101563,1.0,0.0,0.0,0.0,1.0,0.0,0.0,0.0,1.0
1463751276970516026,517,1463751276967142134,,0.491121649742,5.54177427292,70.4129257202,0.0200009997934,1.0,0.0,0.0,0.0,1.0,0.0,0.0,0.0,1.0,-0.792682945728,20.4878044128,4.93902444839,1.0,0.0,0.0,0.0,1.0,0.0,0.0,0.0,1.0,3.80199223633,-3.28005627441,-4.6208092041,1.0,0.0,0.0,0.0,1.0,0.0,0.0,0.0,1.0
1463751276991030052,518,1463751276987027570,,-0.432164251804,5.72712278366,70.4554443359,0.0200089998543,1.0,0.0,0.0,0.0,1.0,0.0,0.0,0.0,1.0,-1.40243899822,-4.87804889679,6.40243911743,1.0,0.0,0.0,0.0,1.0,0.0,0.0,0.0,1.0,2.79642753906,8.19295808105,-5.8466404541,1.0,0.0,0.0,0.0,1.0,0.0,0.0,0.0,1.0
1463751277010718875,519,1463751277007343785,,0.308791071177,4.99810171127,70.6312942505,0.0200110003352,1.0,0.0,0.0,0.0,1.0,0.0,0.0,0.0,1.0,8.59756088257,-80.9146347046,5.36585378647,1.0,0.0,0.0,0.0,1.0,0.0,0.0,0.0,1.0,7.43639035645,-5.33428129883,5.45877978516,1.0,0.0,0.0,0.0,1.0,0.0,0.0,0.0,1.0
1463751277030706654,520,1463751277026946201,,-0.207918509841,5.49836111069,70.4037094116,0.0199779998511,1.0,0.0,0.0,0.0,1.0,0.0,0.0,0.0,1.0,2.13414645195,7.43902492523,-9.08536529541,1.0,0.0,0.0,0.0,1.0,0.0,0.0,0.0,1.0,1.89620771484,2.55221896973,-4.46758029785,1.0,0.0,0.0,0.0,1.0,0.0,0.0,0.0,1.0
1463751277049880322,521,1463751277047187364,,0.195883914828,6.04681587219,70.4648513794,0.0200040005147,1.0,0.0,0.0,0.0,1.0,0.0,0.0,0.0,1.0,11.7073173523,-1.40243899822,1.95121955872,1.0,0.0,0.0,0.0,1.0,0.0,0.0,0.0,1.0,9.48582756206,-2.56179577637,-14.0683289551,1.0,0.0,0.0,0.0,1.0,0.0,0.0,0.0,1.0
1463751277070934763,522,1463751277067075925,,0.263221859932,6.77615451813,70.6424179077,0.0200009997934,1.0,0.0,0.0,0.0,1.0,0.0,0.0,0.0,1.0,2.19512200356,43.7195129395,8.41463470459,1.0,0.0,0.0,0.0,1.0,0.0,0.0,0.0,1.0,-0.866701000977,-0.205901342773,-14.7434938232,1.0,0.0,0.0,0.0,1.0,0.0,0.0,0.0,1.0
1463751277089305726,523,1463751277087134694,,0.417742341757,6.12457418442,70.8196258545,0.0200229994953,1.0,0.0,0.0,0.0,1.0,0.0,0.0,0.0,1.0,0.609756112099,-2.43902444839,7.86585378647,1.0,0.0,0.0,0.0,1.0,0.0,0.0,0.0,1.0,-4.43406147461,-1.13963999023,-8.30787917622,1.0,0.0,0.0,0.0,1.0,0.0,0.0,0.0,1.0
1463751277111107872,524,1463751277107333722,,0.0177643466741,6.3442401886,70.8449554443,0.0199730005115,1.0,0.0,0.0,0.0,1.0,0.0,0.0,0.0,1.0,6.15853643417,-38.9634132385,4.20731735229,1.0,0.0,0.0,0.0,1.0,0.0,0.0,0.0,1.0,2.46602770996,1.40779057617,1.09175595703,1.0,0.0,0.0,0.0,1.0,0.0,0.0,0.0,1.0
1463751277130365082,525,1463751277127216189,,-0.767025649548,7.64392375946,70.8739471436,0.0200190003961,1.0,0.0,0.0,0.0,1.0,0.0,0.0,0.0,1.0,-19.5731716156,47.0731697083,3.90243911743,1.0,0.0,0.0,0.0,1.0,0.0,0.0,0.0,1.0,5.5641246582,5.09486113281,-12.7179992187,1.0,0.0,0.0,0.0,1.0,0.0,0.0,0.0,1.0
1463751277150256507,526,1463751277146937094,,-0.758732259274,6.8785238266,70.783241272,0.0199749991298,1.0,0.0,0.0,0.0,1.0,0.0,0.0,0.0,1.0,-4.51219558716,-16.5243911743,-5.67073154449,1.0,0.0,0.0,0.0,1.0,0.0,0.0,0.0,1.0,-5.01824667969,-1.56580788574,-16.0890351562,1.0,0.0,0.0,0.0,1.0,0.0,0.0,0.0,1.0
1463751277170491525,527,1463751277167236330,,-0.209992557764,6.54824829102,70.9055938721,0.0200430005789,1.0,0.0,0.0,0.0,1.0,0.0,0.0,0.0,1.0,5.67073154449,2.01219511032,3.41463422775,1.0,0.0,0.0,0.0,1.0,0.0,0.0,0.0,1.0,-4.17548740305,-5.94719692383,-14.3843635742,1.0,0.0,0.0,0.0,1.0,0.0,0.0,0.0,1.0
1463751277190122587,528,1463751277187142808,,-0.213861107826,6.20009088516,70.9067230225,0.0199900008738,1.0,0.0,0.0,0.0,1.0,0.0,0.0,0.0,1.0,7.92682981491,-13.658536911,0.731707334518,1.0,0.0,0.0,0.0,1.0,0.0,0.0,0.0,1.0,0.143652099609,2.04464821777,-14.3987287842,1.0,0.0,0.0,0.0,1.0,0.0,0.0,0.0,1.0
1463751277209972918,529,1463751277207182462,,-0.363693237305,7.93377161026,71.1084747314,0.0199950002134,1.0,0.0,0.0,0.0,1.0,0.0,0.0,0.0,1.0,-4.75609779358,44.5731735229,10.548781395,1.0,0.0,0.0,0.0,1.0,0.0,0.0,0.0,1.0,13.7618711426,1.16358193377,-11.0516348633,1.0,0.0,0.0,0.0,1.0,0.0,0.0,0.0,1.0
1463751277229979604,530,1463751277227044825,,-0.506392121315,9.42784786224,71.0842895508,0.0200169999152,1.0,0.0,0.0,0.0,1.0,0.0,0.0,0.0,1.0,0.853658556938,94.8170700073,0.426829278469,1.0,0.0,0.0,0.0,1.0,0.0,0.0,0.0,1.0,-5.5880666748,2.94486804199,-20.4273285645,1.0,0.0,0.0,0.0,1.0,0.0,0.0,0.0,1.0
1463751277250426027,531,1463751277247025104,,-0.268565952778,10.0629549026,71.021484375,0.0199790000916,1.0,0.0,0.0,0.0,1.0,0.0,0.0,0.0,1.0,4.45121955872,41.2804908752,-4.32926845551,1.0,0.0,0.0,0.0,1.0,0.0,0.0,0.0,1.0,-0.76614453125,-2.62404501953,-18.3539499268,1.0,0.0,0.0,0.0,1.0,0.0,0.0,0.0,1.0
1463751277269847142,532,1463751277267011320,,-0.050758805126,9.65949630737,71.2121353149,0.0200069993734,1.0,0.0,0.0,0.0,1.0,0.0,0.0,0.0,1.0,-10.2439022064,-15.975610733,5.60975599289,1.0,0.0,0.0,0.0,1.0,0.0,0.0,0.0,1.0,0.833182177734,-5.53539423828,-14.6620909668,1.0,0.0,0.0,0.0,1.0,0.0,0.0,0.0,1.0
1463751277289234871,533,1463751277287079412,,0.0571293570101,10.0409936905,71.1934890747,0.0199880003929,1.0,0.0,0.0,0.0,1.0,0.0,0.0,0.0,1.0,1.8292683363,-34.0853691101,-1.8292683363,1.0,0.0,0.0,0.0,1.0,0.0,0.0,0.0,1.0,0.679953271484,-0.0622492431641,0.478840332031,1.0,0.0,0.0,0.0,1.0,0.0,0.0,0.0,1.0
1463751277309559107,534,1463751277307078962,,0.101164847612,13.2458896637,71.416305542,0.0199979990721,1.0,0.0,0.0,0.0,1.0,0.0,0.0,0.0,1.0,2.31707310677,157.987808228,10.9756097794,1.0,0.0,0.0,0.0,1.0,0.0,0.0,0.0,1.0,4.76924999929,0.905008227539,-25.8238591064,1.0,0.0,0.0,0.0,1.0,0.0,0.0,0.0,1.0
1463751277329963239,535,1463751277327070907,,0.809268951416,12.9516029358,71.4211730957,0.0200110003352,1.0,0.0,0.0,0.0,1.0,0.0,0.0,0.0,1.0,30.4878044128,26.0365848541,-1.15853655338,1.0,0.0,0.0,0.0,1.0,0.0,0.0,0.0,1.0,-12.6940572021,-2.10689731481,-17.4489416992,1.0,0.0,0.0,0.0,1.0,0.0,0.0,0.0,1.0
1463751277350223829,536,1463751277347069728,,1.39204502106,11.6097288132,71.2923965454,0.0199900008738,1.0,0.0,0.0,0.0,1.0,0.0,0.0,0.0,1.0,13.2926826477,-54.1463432312,-9.51219558716,1.0,0.0,0.0,0.0,1.0,0.0,0.0,0.0,1.0,-0.708683691406,-4.0318355957,-11.3724578857,1.0,0.0,0.0,0.0,1.0,0.0,0.0,0.0,1.0
1463751277368845937,537,1463751277367130163,,1.4247546196,12.2994508743,71.4279251099,0.019999999553,1.0,0.0,0.0,0.0,1.0,0.0,0.0,0.0,1.0,-3.35365867615,36.6463432312,4.69512224197,1.0,0.0,0.0,0.0,1.0,0.0,0.0,0.0,1.0,2.7341782959,-2.01112939453,-20.6715371338,1.0,0.0,0.0,0.0,1.0,0.0,0.0,0.0,1.0
1463751277388911424,538,1463751277387105338,,1.01957023144,11.8955135345,71.4125976562,0.0199849996716,1.0,0.0,0.0,0.0,1.0,0.0,0.0,0.0,1.0,-7.56097555161,18.1707305908,1.15853655338,1.0,0.0,0.0,0.0,1.0,0.0,0.0,0.0,1.0,-10.299855542,3.7014357666,-15.0212212158,1.0,0.0,0.0,0.0,1.0,0.0,0.0,0.0,1.0
1463751277408956964,539,1463751277407212648,,1.00384736061,10.1110897064,71.4296264648,0.0200009997934,1.0,0.0,0.0,0.0,1.0,0.0,0.0,0.0,1.0,4.20731735229,-76.0975646973,2.92682933807,1.0,0.0,0.0,0.0,1.0,0.0,0.0,0.0,1.0,-1.04866025408,1.09654436035,-16.1560728027,1.0,0.0,0.0,0.0,1.0,0.0,0.0,0.0,1.0
1463751277428901305,540,1463751277427030740,,0.735534131527,9.65983104706,71.2244262695,0.0200009997934,1.0,0.0,0.0,0.0,1.0,0.0,0.0,0.0,1.0,0.548780500889,-42.2560958862,-7.50000047684,1.0,0.0,0.0,0.0,1.0,0.0,0.0,0.0,1.0,5.7987564209,2.43729729004,-10.7068698242,1.0,0.0,0.0,0.0,1.0,0.0,0.0,0.0,1.0
1463751277449398770,541,1463751277447007686,,0.772006988525,10.0252094269,71.1202545166,0.0199989993125,1.0,0.0,0.0,0.0,1.0,0.0,0.0,0.0,1.0,-2.37804889679,39.5731735229,-6.7682929039,1.0,0.0,0.0,0.0,1.0,0.0,0.0,0.0,1.0,-4.10366164551,-1.78128603516,-15.4090818848,1.0,0.0,0.0,0.0,1.0,0.0,0.0,0.0,1.0
1463751277469059415,542,1463751277467020934,,0.979420185089,9.19002532959,70.9750823975,0.0200020000339,1.0,0.0,0.0,0.0,1.0,0.0,0.0,0.0,1.0,8.71951198578,-9.51219558716,-7.74390268326,1.0,0.0,0.0,0.0,1.0,0.0,0.0,0.0,1.0,-7.0006456543,-1.07739082014,-13.4362597168,1.0,0.0,0.0,0.0,1.0,0.0,0.0,0.0,1.0
1463751277489016100,543,1463751277487095223,,1.44551849365,7.02487134933,70.7495803833,0.0200149994344,1.0,0.0,0.0,0.0,1.0,0.0,0.0,0.0,1.0,25.3658542633,-93.9024429321,-9.32926845551,1.0,0.0,0.0,0.0,1.0,0.0,0.0,0.0,1.0,-5.03261188965,-0.593762048251,-36.4158049129,1.0,0.0,0.0,0.0,1.0,0.0,0.0,0.0,1.0
1463751277509169243,544,1463751277507269877,,1.63778758049,4.87677574158,70.681640625,0.0200069993734,1.0,0.0,0.0,0.0,1.0,0.0,0.0,0.0,1.0,17.1951217651,-88.4146347046,-0.365853667259,1.0,0.0,0.0,0.0,1.0,0.0,0.0,0.0,1.0,-3.53863005371,1.32638771973,-13.2064163574,1.0,0.0,0.0,0.0,1.0,0.0,0.0,0.0,1.0
1463751277528949211,545,1463751277527104740,,1.05705940723,6.83402729034,70.8105926514,0.0199779998511,1.0,0.0,0.0,0.0,1.0,0.0,0.0,0.0,1.0,-16.4024391174,71.0975646973,5.79268312454,1.0,0.0,0.0,0.0,1.0,0.0,0.0,0.0,1.0,7.87692346191,3.14598098145,-12.765883252,1.0,0.0,0.0,0.0,1.0,0.0,0.0,0.0,1.0
1463751277548974594,546,1463751277547162935,,0.831481695175,6.92397975922,70.6934356689,0.0200110003352,1.0,0.0,0.0,0.0,1.0,0.0,0.0,0.0,1.0,5.42682933807,50.6707344055,-5.06097555161,1.0,0.0,0.0,0.0,1.0,0.0,0.0,0.0,1.0,-18.8136366455,6.32548078613,-12.9430541748,1.0,0.0,0.0,0.0,1.0,0.0,0.0,0.0,1.0
1463751277568748103,547,1463751277567074517,,1.3846296072,5.23261022568,70.5818481445,0.0200149994344,1.0,0.0,0.0,0.0,1.0,0.0,0.0,0.0,1.0,20.9146347046,-72.3780517578,-5.24390268326,1.0,0.0,0.0,0.0,1.0,0.0,0.0,0.0,1.0,-4.39096584473,-4.89374819336,-31.498117041,1.0,0.0,0.0,0.0,1.0,0.0,0.0,0.0,1.0
1463751277589308068,548,1463751277587237347,,1.76845300198,3.18960428238,70.6901016235,0.020021000877,1.0,0.0,0.0,0.0,1.0,0.0,0.0,0.0,1.0,2.25609779358,-79.5731735229,5.85365867615,1.0,0.0,0.0,0.0,1.0,0.0,0.0,0.0,1.0,-5.5641246582,-5.07091911621,-13.843273999,1.0,0.0,0.0,0.0,1.0,0.0,0.0,0.0,1.0
1463751277609550741,549,1463751277607417573,,1.88731133938,3.8178832531,70.6101455688,0.0199650004506,1.0,0.0,0.0,0.0,1.0,0.0,0.0,0.0,1.0,0.12195122242,-22.9268302917,-3.90243911743,1.0,0.0,0.0,0.0,1.0,0.0,0.0,0.0,1.0,17.9804556368,-2.38462499965,-6.06211860352,1.0,0.0,0.0,0.0,1.0,0.0,0.0,0.0,1.0
1463751277628957898,550,1463751277627080250,,2.08792924881,2.97368621826,70.5853271484,0.020005999133,1.0,0.0,0.0,0.0,1.0,0.0,0.0,0.0,1.0,3.53658556938,-8.90243911743,-1.58536589146,1.0,0.0,0.0,0.0,1.0,0.0,0.0,0.0,1.0,-8.85854614258,-2.32237546422,-12.4402718262,1.0,0.0,0.0,0.0,1.0,0.0,0.0,0.0,1.0
1463751277648996510,551,1463751277647148966,,2.22101759911,3.66012763977,70.6192169189,0.0199909992516,1.0,0.0,0.0,0.0,1.0,0.0,0.0,0.0,1.0,-5.18292713165,12.9878053665,0.304878056049,1.0,0.0,0.0,0.0,1.0,0.0,0.0,0.0,1.0,8.8393925293,-5.64552751465,-20.2645228516,1.0,0.0,0.0,0.0,1.0,0.0,0.0,0.0,1.0
1463751277669305278,552,1463751277667216172,,1.43618702888,2.43380141258,70.7199935913,0.0199909992516,1.0,0.0,0.0,0.0,1.0,0.0,0.0,0.0,1.0,-17.4390239716,-40.3658561707,7.31707334518,1.0,0.0,0.0,0.0,1.0,0.0,0.0,0.0,1.0,-8.82023891602,8.82023891602,-21.8830031738,1.0,0.0,0.0,0.0,1.0,0.0,0.0,0.0,1.0
1463751277688827173,553,1463751277687049420,,1.16449129581,-0.521831929684,70.5799865723,0.0200139991939,1.0,0.0,0.0,0.0,1.0,0.0,0.0,0.0,1.0,10.4268293381,-100.914634705,-4.02439022064,1.0,0.0,0.0,0.0,1.0,0.0,0.0,0.0,1.0,-7.6853873291,3.68228215332,2.03985981445,1.0,0.0,0.0,0.0,1.0,0.0,0.0,0.0,1.0
1463751277709277919,554,1463751277707156314,,1.53599512577,-0.790222048759,70.5045013428,0.0199839994311,1.0,0.0,0.0,0.0,1.0,0.0,0.0,0.0,1.0,10.9756097794,-4.32926845551,-3.7804877758,1.0,0.0,0.0,0.0,1.0,0.0,0.0,0.0,1.0,-4.94642062988,-3.81635744629,-22.8885678711,1.0,0.0,0.0,0.0,1.0,0.0,0.0,0.0,1.0
1463751277728905596,555,1463751277727082999,,1.12545621395,-0.403581619263,70.4388198853,0.0200139991939,1.0,0.0,0.0,0.0,1.0,0.0,0.0,0.0,1.0,-13.1097564697,-10.9756097794,-3.23170733452,1.0,0.0,0.0,0.0,1.0,0.0,0.0,0.0,1.0,7.03895288086,1.46525141602,-12.6461731689,1.0,0.0,0.0,0.0,1.0,0.0,0.0,0.0,1.0
1463751277749083114,556,1463751277747046039,,0.443573892117,2.08293318748,70.410484314,0.0199870001525,1.0,0.0,0.0,0.0,1.0,0.0,0.0,0.0,1.0,-28.7195110321,99.5121994019,-2.86585378647,1.0,0.0,0.0,0.0,1.0,0.0,0.0,0.0,1.0,5.02782348633,0.885854614258,-11.5927244385,1.0,0.0,0.0,0.0,1.0,0.0,0.0,0.0,1.0
1463751277768792873,557,1463751277767097412,,0.717267096043,4.65915727615,70.5882339478,0.019999999553,1.0,0.0,0.0,0.0,1.0,0.0,0.0,0.0,1.0,-6.64634132385,145.304885864,6.52439069748,1.0,0.0,0.0,0.0,1.0,0.0,0.0,0.0,1.0,-4.69742336497,-5.84185205078,-14.1832506348,1.0,0.0,0.0,0.0,1.0,0.0,0.0,0.0,1.0
1463751277788902214,558,1463751277786944618,,2.26389408112,4.98713207245,70.7546386719,0.0200219992548,1.0,0.0,0.0,0.0,1.0,0.0,0.0,0.0,1.0,39.0853652954,52.2560997009,4.08536577225,1.0,0.0,0.0,0.0,1.0,0.0,0.0,0.0,1.0,-15.5048499512,-16.4194349854,-8.91600698242,1.0,0.0,0.0,0.0,1.0,0.0,0.0,0.0,1.0
1463751277809078795,559,1463751277807076772,,2.36324477196,3.44991707802,70.6936187744,0.0199849996716,1.0,0.0,0.0,0.0,1.0,0.0,0.0,0.0,1.0,4.51219558716,-71.9512176514,-0.487804889679,1.0,0.0,0.0,0.0,1.0,0.0,0.0,0.0,1.0,-1.33596452637,-1.97761057129,-33.3129242375,1.0,0.0,0.0,0.0,1.0,0.0,0.0,0.0,1.0
1463751277828989230,560,1463751277827100593,,2.41224837303,1.7700291872,70.6124954224,0.0200040005147,1.0,0.0,0.0,0.0,1.0,0.0,0.0,0.0,1.0,11.4634151459,-38.1097564697,-2.19512200356,1.0,0.0,0.0,0.0,1.0,0.0,0.0,0.0,1.0,-16.1273423828,2.4756045166,-11.0803652832,1.0,0.0,0.0,0.0,1.0,0.0,0.0,0.0,1.0
1463751277848910187,561,1463751277847096392,,2.83129000664,0.0887065827847,70.318687439,0.0199950002134,1.0,0.0,0.0,0.0,1.0,0.0,0.0,0.0,1.0,29.3902435303,-70.792678833,-11.4024391174,1.0,0.0,0.0,0.0,1.0,0.0,0.0,0.0,1.0,-4.55377155762,1.72861359863,-17.295713962,1.0,0.0,0.0,0.0,1.0,0.0,0.0,0.0,1.0
1463751277868864372,562,1463751277867078651,,3.25419950485,-0.67488193512,70.2251434326,0.020021000877,1.0,0.0,0.0,0.0,1.0,0.0,0.0,0.0,1.0,10.3658542633,-61.4024429321,-1.76829278469,1.0,0.0,0.0,0.0,1.0,0.0,0.0,0.0,1.0,5.2816088623,-3.4428619873,-12.7754600586,1.0,0.0,0.0,0.0,1.0,0.0,0.0,0.0,1.0
1463751277888837047,563,1463751277887020493,,3.4759721756,-4.33863687515,69.9012908936,0.0199820008129,1.0,0.0,0.0,0.0,1.0,0.0,0.0,0.0,1.0,11.0975618362,-170.060974121,-6.40243911743,1.0,0.0,0.0,0.0,1.0,0.0,0.0,0.0,1.0,-3.58651408691,0.780509741211,12.4881558594,1.0,0.0,0.0,0.0,1.0,0.0,0.0,0.0,1.0
1463751277909131648,564,1463751277907036449,,3.79148077965,-1.8184183836,70.1206054688,0.0200169999152,1.0,0.0,0.0,0.0,1.0,0.0,0.0,0.0,1.0,19.5731716156,70.2439041138,5.79268312454,1.0,0.0,0.0,0.0,1.0,0.0,0.0,0.0,1.0,11.3772462891,0.335188232422,-4.43884987793,1.0,0.0,0.0,0.0,1.0,0.0,0.0,0.0,1.0
1463751277928920105,565,1463751277927092405,,3.34829640388,0.61296248436,70.2360992432,0.0199849996716,1.0,0.0,0.0,0.0,1.0,0.0,0.0,0.0,1.0,-22.8048782349,75.4268341064,0.975609779358,1.0,0.0,0.0,0.0,1.0,0.0,0.0,0.0,1.0,12.8377093018,-1.04387185076,-10.8026378906,1.0,0.0,0.0,0.0,1.0,0.0,0.0,0.0,1.0
