%time,field.header.seq,field.header.stamp,field.header.frame_id,field.orientation.x,field.orientation.y,field.orientation.z,field.orientation.w,field.orientation_covariance0,field.orientation_covariance1,field.orientation_covariance2,field.orientation_covariance3,field.orientation_covariance4,field.orientation_covariance5,field.orientation_covariance6,field.orientation_covariance7,field.orientation_covariance8,field.angular_velocity.x,field.angular_velocity.y,field.angular_velocity.z,field.angular_velocity_covariance0,field.angular_velocity_covariance1,field.angular_velocity_covariance2,field.angular_velocity_covariance3,field.angular_velocity_covariance4,field.angular_velocity_covariance5,field.angular_velocity_covariance6,field.angular_velocity_covariance7,field.angular_velocity_covariance8,field.linear_acceleration.x,field.linear_acceleration.y,field.linear_acceleration.z,field.linear_acceleration_covariance0,field.linear_acceleration_covariance1,field.linear_acceleration_covariance2,field.linear_acceleration_covariance3,field.linear_acceleration_covariance4,field.linear_acceleration_covariance5,field.linear_acceleration_covariance6,field.linear_acceleration_covariance7,field.linear_acceleration_covariance8
1463663005976713111,496,1463663005920895041,,4.02806329727,4.74004983902,-22.4635982513,0.0100969998166,1.0,0.0,0.0,0.0,1.0,0.0,0.0,0.0,1.0,15.1219511032,11.0365858078,-16.5243911743,1.0,0.0,0.0,0.0,1.0,0.0,0.0,0.0,1.0,0.263362164351,0.775721337891,-8.84896933594,1.0,0.0,0.0,0.0,1.0,0.0,0.0,0.0,1.0
1463663005976789399,497,1463663005930931619,,4.09064865112,4.85647249222,-23.0146961212,0.010111999698,1.0,0.0,0.0,0.0,1.0,0.0,0.0,0.0,1.0,15.3658533096,11.6463422775,-17.134147644,1.0,0.0,0.0,0.0,1.0,0.0,0.0,0.0,1.0,0.205901342773,0.665588061523,-8.86812294922,1.0,0.0,0.0,0.0,1.0,0.0,0.0,0.0,1.0
1463663005976901513,498,1463663005941297406,,4.14875793457,4.9748673439,-23.5742549896,0.0100880004466,1.0,0.0,0.0,0.0,1.0,0.0,0.0,0.0,1.0,15.1219511032,12.7439022064,-18.1707305908,1.0,0.0,0.0,0.0,1.0,0.0,0.0,0.0,1.0,0.067037651051,0.660799658203,-8.9591026123,1.0,0.0,0.0,0.0,1.0,0.0,0.0,0.0,1.0
1463663005977009097,499,1463663005953434522,,4.21417188644,5.13658618927,-24.2825107574,0.0124319996685,1.0,0.0,0.0,0.0,1.0,0.0,0.0,0.0,1.0,15.0000009537,13.3536586761,-19.6951236725,1.0,0.0,0.0,0.0,1.0,0.0,0.0,0.0,1.0,0.162805712891,0.665588061523,-8.90643017578,1.0,0.0,0.0,0.0,1.0,0.0,0.0,0.0,1.0
1463663005977091893,500,1463663005961335779,,4.25522899628,5.23765611649,-24.7363967896,0.0078530004248,1.0,0.0,0.0,0.0,1.0,0.0,0.0,0.0,1.0,14.5731706619,14.0853662491,-20.6097564697,1.0,0.0,0.0,0.0,1.0,0.0,0.0,0.0,1.0,0.0335188255255,0.565031591797,-8.99262143555,1.0,0.0,0.0,0.0,1.0,0.0,0.0,0.0,1.0
1463663005983258584,501,1463663005976493622,,4.31060409546,5.37631225586,-25.3510932922,0.0103839999065,1.0,0.0,0.0,0.0,1.0,0.0,0.0,0.0,1.0,13.5365858078,14.2073173523,-22.1341457367,1.0,0.0,0.0,0.0,1.0,0.0,0.0,0.0,1.0,0.0861912597656,0.349553442383,-9.35653950337,1.0,0.0,0.0,0.0,1.0,0.0,0.0,0.0,1.0
1463663005988941773,502,1463663005982241486,,4.34501981735,5.51154470444,-25.9511585236,0.00983100011945,1.0,0.0,0.0,0.0,1.0,0.0,0.0,0.0,1.0,12.6219520569,14.2073173523,-23.9024391174,1.0,0.0,0.0,0.0,1.0,0.0,0.0,0.0,1.0,0.148440512063,0.45489831543,-9.62469125835,1.0,0.0,0.0,0.0,1.0,0.0,0.0,0.0,1.0
1463663005995293011,503,1463663005991816850,,4.38140678406,5.6492357254,-26.5816841125,0.0100800003856,1.0,0.0,0.0,0.0,1.0,0.0,0.0,0.0,1.0,12.4390249252,13.9024391174,-25.4268302917,1.0,0.0,0.0,0.0,1.0,0.0,0.0,0.0,1.0,0.181959326172,0.349553442383,-9.64863327495,1.0,0.0,0.0,0.0,1.0,0.0,0.0,0.0,1.0
1463663006008881570,504,1463663006006951365,,4.41192817688,5.77969408035,-27.2269611359,0.0101460004225,1.0,0.0,0.0,0.0,1.0,0.0,0.0,0.0,1.0,11.6463422775,13.4756097794,-26.4634151459,1.0,0.0,0.0,0.0,1.0,0.0,0.0,0.0,1.0,0.124498486328,0.272938989258,-9.8545340332,1.0,0.0,0.0,0.0,1.0,0.0,0.0,0.0,1.0
1463663006013804646,505,1463663006011090786,,4.43259620667,5.89750623703,-27.8733329773,0.00995900016278,1.0,0.0,0.0,0.0,1.0,0.0,0.0,0.0,1.0,11.0365858078,12.7439022064,-27.682926178,1.0,0.0,0.0,0.0,1.0,0.0,0.0,0.0,1.0,0.0718260498047,0.272938989258,-9.69651672363,1.0,0.0,0.0,0.0,1.0,0.0,0.0,0.0,1.0
1463663006026942775,506,1463663006021959660,,4.44946336746,6.02606534958,-28.546710968,0.0102120004594,1.0,0.0,0.0,0.0,1.0,0.0,0.0,0.0,1.0,10.4878053665,13.3536586761,-28.7804889679,1.0,0.0,0.0,0.0,1.0,0.0,0.0,0.0,1.0,0.100556469727,0.205901342773,-9.72524714355,1.0,0.0,0.0,0.0,1.0,0.0,0.0,0.0,1.0
1463663006034011432,507,1463663006031570593,,4.45938062668,6.15217590332,-29.21534729,0.0100290002301,1.0,0.0,0.0,0.0,1.0,0.0,0.0,0.0,1.0,9.87804889679,13.4756097794,-29.5121974945,1.0,0.0,0.0,0.0,1.0,0.0,0.0,0.0,1.0,0.0861912597656,0.172382519531,-9.65342167827,1.0,0.0,0.0,0.0,1.0,0.0,0.0,0.0,1.0
1463663006049873677,508,1463663006041919824,,4.46630144119,6.27934217453,-29.8962173462,0.0100600002334,1.0,0.0,0.0,0.0,1.0,0.0,0.0,0.0,1.0,9.39024448395,14.3292694092,-30.6097583771,1.0,0.0,0.0,0.0,1.0,0.0,0.0,0.0,1.0,-0.0430956298828,0.0957680664062,-9.77791958008,1.0,0.0,0.0,0.0,1.0,0.0,0.0,0.0,1.0
1463663006056356559,509,1463663006052597065,,4.46761417389,6.4168920517,-30.5968570709,0.0101640000939,1.0,0.0,0.0,0.0,1.0,0.0,0.0,0.0,1.0,8.71951198578,14.5121955872,-31.8902454376,1.0,0.0,0.0,0.0,1.0,0.0,0.0,0.0,1.0,0.0861912597656,0.0239420166016,-9.92157167969,1.0,0.0,0.0,0.0,1.0,0.0,0.0,0.0,1.0
1463663006064297394,510,1463663006062308032,,4.45753526688,6.55103111267,-31.3065795898,0.0100929997861,1.0,0.0,0.0,0.0,1.0,0.0,0.0,0.0,1.0,7.80487823486,14.2682924271,-33.2317085266,1.0,0.0,0.0,0.0,1.0,0.0,0.0,0.0,1.0,0.0957680664062,0.00478840332031,-10.1562034424,1.0,0.0,0.0,0.0,1.0,0.0,0.0,0.0,1.0
1463663006074397036,511,1463663006071908551,,4.44580602646,6.69865131378,-32.0262413025,0.0100680002943,1.0,0.0,0.0,0.0,1.0,0.0,0.0,0.0,1.0,6.95121955872,14.8170728683,-34.5121955872,1.0,0.0,0.0,0.0,1.0,0.0,0.0,0.0,1.0,0.253785375977,-0.172382519531,-10.1418382324,1.0,0.0,0.0,0.0,1.0,0.0,0.0,0.0,1.0
1463663006089329198,512,1463663006083076012,,4.40729475021,6.84096860886,-32.7817230225,0.0102850003168,1.0,0.0,0.0,0.0,1.0,0.0,0.0,0.0,1.0,5.48780488968,13.841463089,-36.2804908752,1.0,0.0,0.0,0.0,1.0,0.0,0.0,0.0,1.0,0.287304199219,-0.0430956298828,-10.1705686523,1.0,0.0,0.0,0.0,1.0,0.0,0.0,0.0,1.0
1463663006103080022,513,1463663006092849622,,4.36968183517,6.9596619606,-33.5221862793,0.00994099956006,1.0,0.0,0.0,0.0,1.0,0.0,0.0,0.0,1.0,4.63414621353,13.5975618362,-37.3780517578,1.0,0.0,0.0,0.0,1.0,0.0,0.0,0.0,1.0,0.00957680664062,-0.239420166016,-10.299855542,1.0,0.0,0.0,0.0,1.0,0.0,0.0,0.0,1.0
1463663006105050689,514,1463663006102963585,,4.31313180923,7.0759935379,-34.2924613953,0.0101290000603,1.0,0.0,0.0,0.0,1.0,0.0,0.0,0.0,1.0,3.23170733452,13.841463089,-38.9024391174,1.0,0.0,0.0,0.0,1.0,0.0,0.0,0.0,1.0,-0.110133276367,-0.229843359375,-10.6398321777,1.0,0.0,0.0,0.0,1.0,0.0,0.0,0.0,1.0
1463663006115004630,515,1463663006112575144,,4.24675226212,7.19503831863,-35.0810127258,0.0100969998166,1.0,0.0,0.0,0.0,1.0,0.0,0.0,0.0,1.0,2.80487799644,13.5365858078,-40.8536605835,1.0,0.0,0.0,0.0,1.0,0.0,0.0,0.0,1.0,0.0143652099609,-0.191536132812,-10.7260234375,1.0,0.0,0.0,0.0,1.0,0.0,0.0,0.0,1.0
1463663006125878917,516,1463663006123384548,,4.17183589935,7.32399702072,-35.8940925598,0.0101380003616,1.0,0.0,0.0,0.0,1.0,0.0,0.0,0.0,1.0,3.23170733452,12.9268293381,-42.7439041138,1.0,0.0,0.0,0.0,1.0,0.0,0.0,0.0,1.0,0.316034619141,-0.0239420166016,-10.5967365479,1.0,0.0,0.0,0.0,1.0,0.0,0.0,0.0,1.0
1463663006146282122,517,1463663006132935388,,4.10634803772,7.43932247162,-36.7038726807,0.0100229997188,1.0,0.0,0.0,0.0,1.0,0.0,0.0,0.0,1.0,4.02439022064,11.7682924271,-43.2317085266,1.0,0.0,0.0,0.0,1.0,0.0,0.0,0.0,1.0,0.335188232422,-0.067037651051,-10.419565625,1.0,0.0,0.0,0.0,1.0,0.0,0.0,0.0,1.0
1463663006146598364,518,1463663006143184638,,4.0569152832,7.53597450256,-37.5225257874,0.0101359998807,1.0,0.0,0.0,0.0,1.0,0.0,0.0,0.0,1.0,4.57317066193,9.63414573669,-43.1707305908,1.0,0.0,0.0,0.0,1.0,0.0,0.0,0.0,1.0,0.402225878906,-0.287304199219,-10.4099888184,1.0,0.0,0.0,0.0,1.0,0.0,0.0,0.0,1.0
1463663006163486352,519,1463663006153610000,,4.03019428253,7.58700609207,-38.3369789124,0.0100819999352,1.0,0.0,0.0,0.0,1.0,0.0,0.0,0.0,1.0,4.45121955872,7.80487823486,-43.3536567688,1.0,0.0,0.0,0.0,1.0,0.0,0.0,0.0,1.0,-0.0622492431641,-0.742202514648,-10.524910498,1.0,0.0,0.0,0.0,1.0,0.0,0.0,0.0,1.0
1463663006166155324,520,1463663006163200521,,4.00110006332,7.65268611908,-39.1573982239,0.0100990002975,1.0,0.0,0.0,0.0,1.0,0.0,0.0,0.0,1.0,3.96341490746,5.24390268326,-43.6585388184,1.0,0.0,0.0,0.0,1.0,0.0,0.0,0.0,1.0,0.708683691406,-0.823605371094,-10.6685625977,1.0,0.0,0.0,0.0,1.0,0.0,0.0,0.0,1.0
1463663006203710269,521,1463663006173333074,,3.95543432236,7.66395568848,-39.9914665222,0.0101370001212,1.0,0.0,0.0,0.0,1.0,0.0,0.0,0.0,1.0,2.86585378647,3.53658556938,-44.5121955872,1.0,0.0,0.0,0.0,1.0,0.0,0.0,0.0,1.0,0.0191536132812,-0.775721337891,-10.9750204102,1.0,0.0,0.0,0.0,1.0,0.0,0.0,0.0,1.0
1463663006205109169,522,1463663006183898305,,3.90304660797,7.61830282211,-40.8331985474,0.0100299995393,1.0,0.0,0.0,0.0,1.0,0.0,0.0,0.0,1.0,2.25609779358,0.12195122242,-45.9146347046,1.0,0.0,0.0,0.0,1.0,0.0,0.0,0.0,1.0,-0.445321508789,-0.814028564453,-11.4011883057,1.0,0.0,0.0,0.0,1.0,0.0,0.0,0.0,1.0
1463663006205460873,523,1463663006193870056,,3.85936522484,7.5569357872,-41.7091751099,0.0102040003985,1.0,0.0,0.0,0.0,1.0,0.0,0.0,0.0,1.0,1.95121955872,-0.365853667259,-47.9878044128,1.0,0.0,0.0,0.0,1.0,0.0,0.0,0.0,1.0,-0.694318481445,-1.13006318359,-11.765106958,1.0,0.0,0.0,0.0,1.0,0.0,0.0,0.0,1.0
1463663006205903185,524,1463663006203528376,,3.79518461227,7.48879384995,-42.5846824646,0.0100630000234,1.0,0.0,0.0,0.0,1.0,0.0,0.0,0.0,1.0,0.609756112099,-0.731707334518,-49.0243911743,1.0,0.0,0.0,0.0,1.0,0.0,0.0,0.0,1.0,-0.794874951172,-0.981622680664,-11.8752402344,1.0,0.0,0.0,0.0,1.0,0.0,0.0,0.0,1.0
1463663006231345849,525,1463663006213230386,,3.73135709763,7.41721820831,-43.4742546082,0.0101330000907,1.0,0.0,0.0,0.0,1.0,0.0,0.0,0.0,1.0,1.09756100178,-1.64634156227,-49.6951217651,1.0,0.0,0.0,0.0,1.0,0.0,0.0,0.0,1.0,-0.660799658203,-0.876277807617,-11.8225677979,1.0,0.0,0.0,0.0,1.0,0.0,0.0,0.0,1.0
1463663006231636106,526,1463663006224236940,,3.67395758629,7.34641170502,-44.3499794006,0.0100149996579,1.0,0.0,0.0,0.0,1.0,0.0,0.0,0.0,1.0,1.64634156227,-1.76829278469,-49.3292694092,1.0,0.0,0.0,0.0,1.0,0.0,0.0,0.0,1.0,-0.61770402832,-0.823605371094,-11.6693388916,1.0,0.0,0.0,0.0,1.0,0.0,0.0,0.0,1.0
1463663006240748801,527,1463663006233745028,,3.62361264229,7.28868770599,-45.2230262756,0.010095000267,1.0,0.0,0.0,0.0,1.0,0.0,0.0,0.0,1.0,2.13414645195,-1.34146344662,-48.4146347046,1.0,0.0,0.0,0.0,1.0,0.0,0.0,0.0,1.0,-0.392649072266,-0.790086547852,-11.2527478027,1.0,0.0,0.0,0.0,1.0,0.0,0.0,0.0,1.0
1463663006257243010,528,1463663006244417219,,3.57874751091,7.24366855621,-46.0909385681,0.0102859996259,1.0,0.0,0.0,0.0,1.0,0.0,0.0,0.0,1.0,3.23170733452,-1.34146344662,-46.2195129395,1.0,0.0,0.0,0.0,1.0,0.0,0.0,0.0,1.0,-0.0861912597656,-0.584185168546,-10.6685625977,1.0,0.0,0.0,0.0,1.0,0.0,0.0,0.0,1.0
1463663006257502283,529,1463663006253905832,,3.54008293152,7.21522521973,-46.9090805054,0.00991300027817,1.0,0.0,0.0,0.0,1.0,0.0,0.0,0.0,1.0,4.32926845551,-1.34146344662,-44.2682914734,1.0,0.0,0.0,0.0,1.0,0.0,0.0,0.0,1.0,0.215478149414,-0.383072265625,-10.2088758789,1.0,0.0,0.0,0.0,1.0,0.0,0.0,0.0,1.0
1463663006265811537,530,1463663006263624557,,3.51046681404,7.20494651794,-47.7123908997,0.0100969998166,1.0,0.0,0.0,0.0,1.0,0.0,0.0,0.0,1.0,5.0,-1.64634156227,-41.2804908752,1.0,0.0,0.0,0.0,1.0,0.0,0.0,0.0,1.0,0.612915625,-0.339976635742,-9.74440075684,1.0,0.0,0.0,0.0,1.0,0.0,0.0,0.0,1.0
1463663006280279933,531,1463663006273761537,,3.49723100662,7.20456790924,-48.4886627197,0.0101020000875,1.0,0.0,0.0,0.0,1.0,0.0,0.0,0.0,1.0,6.21951246262,-2.43902444839,-38.5365829468,1.0,0.0,0.0,0.0,1.0,0.0,0.0,0.0,1.0,0.928950244141,-0.335188232422,-9.50019277202,1.0,0.0,0.0,0.0,1.0,0.0,0.0,0.0,1.0
1463663006355262503,532,1463663006283753648,,3.49072098732,7.19881343842,-49.2405548096,0.0100919995457,1.0,0.0,0.0,0.0,1.0,0.0,0.0,0.0,1.0,6.46341466904,-3.53658556938,-36.1585350037,1.0,0.0,0.0,0.0,1.0,0.0,0.0,0.0,1.0,1.0534486574,-0.354341845703,-9.5193463853,1.0,0.0,0.0,0.0,1.0,0.0,0.0,0.0,1.0
1463663006356510443,533,1463663006294100118,,3.48830008507,7.19028186798,-49.9775085449,0.0101169999689,1.0,0.0,0.0,0.0,1.0,0.0,0.0,0.0,1.0,6.34146356583,-4.08536577225,-34.5121955872,1.0,0.0,0.0,0.0,1.0,0.0,0.0,0.0,1.0,1.12048637695,-0.407014282227,-9.5432884019,1.0,0.0,0.0,0.0,1.0,0.0,0.0,0.0,1.0
1463663006356829080,534,1463663006303979126,,3.48112273216,7.16241312027,-50.7086677551,0.0100959995762,1.0,0.0,0.0,0.0,1.0,0.0,0.0,0.0,1.0,5.18292713165,-5.48780488968,-34.0853691101,1.0,0.0,0.0,0.0,1.0,0.0,0.0,0.0,1.0,1.04866025408,-0.517147558594,-9.65342167827,1.0,0.0,0.0,0.0,1.0,0.0,0.0,0.0,1.0
1463663006357085021,535,1463663006314605492,,3.46163034439,7.12364149094,-51.4393157959,0.0101180002093,1.0,0.0,0.0,0.0,1.0,0.0,0.0,0.0,1.0,4.14634132385,-6.64634132385,-33.7804870605,1.0,0.0,0.0,0.0,1.0,0.0,0.0,0.0,1.0,1.07739082014,-0.478840332031,-9.77313117676,1.0,0.0,0.0,0.0,1.0,0.0,0.0,0.0,1.0
1463663006357389859,536,1463663006324352545,,3.43423700333,7.06531572342,-52.1657333374,0.0100790001452,1.0,0.0,0.0,0.0,1.0,0.0,0.0,0.0,1.0,3.23170733452,-7.56097555161,-33.5975608826,1.0,0.0,0.0,0.0,1.0,0.0,0.0,0.0,1.0,0.905008227539,-0.488417138672,-9.87368764648,1.0,0.0,0.0,0.0,1.0,0.0,0.0,0.0,1.0
1463663006357666421,537,1463663006334290656,,3.40010547638,6.99596881866,-52.8956794739,0.010095000267,1.0,0.0,0.0,0.0,1.0,0.0,0.0,0.0,1.0,1.58536589146,-8.47560977936,-33.9024391174,1.0,0.0,0.0,0.0,1.0,0.0,0.0,0.0,1.0,0.866701000977,-0.646434448242,-9.84495722656,1.0,0.0,0.0,0.0,1.0,0.0,0.0,0.0,1.0
1463663006357950898,538,1463663006344297868,,3.34885621071,6.90356588364,-53.6250801086,0.0100919995457,1.0,0.0,0.0,0.0,1.0,0.0,0.0,0.0,1.0,-1.03658533096,-9.87804889679,-33.9024391174,1.0,0.0,0.0,0.0,1.0,0.0,0.0,0.0,1.0,0.718260498047,-0.794874951172,-9.97424411621,1.0,0.0,0.0,0.0,1.0,0.0,0.0,0.0,1.0
1463663006358245946,539,1463663006355113261,,3.26251578331,6.78972196579,-54.3582611084,0.0101279998198,1.0,0.0,0.0,0.0,1.0,0.0,0.0,0.0,1.0,-3.7804877758,-11.5243911743,-33.8414649963,1.0,0.0,0.0,0.0,1.0,0.0,0.0,0.0,1.0,0.646434448242,-0.646434448242,-10.0891657959,1.0,0.0,0.0,0.0,1.0,0.0,0.0,0.0,1.0
1463663006394521187,540,1463663006364940924,,3.15395903587,6.66630601883,-55.0847930908,0.0100969998166,1.0,0.0,0.0,0.0,1.0,0.0,0.0,0.0,1.0,-5.79268312454,-13.1707324982,-33.2926826477,1.0,0.0,0.0,0.0,1.0,0.0,0.0,0.0,1.0,0.77093293457,-0.555454785156,-10.0795889893,1.0,0.0,0.0,0.0,1.0,0.0,0.0,0.0,1.0
1463663006394789208,541,1463663006374908717,,3.03463482857,6.51099538803,-55.8114776611,0.010108999908,1.0,0.0,0.0,0.0,1.0,0.0,0.0,0.0,1.0,-6.52439069748,-14.8780498505,-33.1097564697,1.0,0.0,0.0,0.0,1.0,0.0,0.0,0.0,1.0,0.512359155273,-0.440533105469,-9.96466730957,1.0,0.0,0.0,0.0,1.0,0.0,0.0,0.0,1.0
1463663006395056085,542,1463663006385213737,,2.90418505669,6.34148359299,-56.5352668762,0.0101199997589,1.0,0.0,0.0,0.0,1.0,0.0,0.0,0.0,1.0,-6.58536624908,-16.5853652954,-32.5609779358,1.0,0.0,0.0,0.0,1.0,0.0,0.0,0.0,1.0,0.565031591797,-0.191536132812,-9.83538041992,1.0,0.0,0.0,0.0,1.0,0.0,0.0,0.0,1.0
1463663006411492023,543,1463663006395306298,,2.78185868263,6.15588474274,-57.2430801392,0.0101899998263,1.0,0.0,0.0,0.0,1.0,0.0,0.0,0.0,1.0,-6.58536624908,-17.9878044128,-30.5487804413,1.0,0.0,0.0,0.0,1.0,0.0,0.0,0.0,1.0,0.565031591797,-0.244208569336,-9.7587659668,1.0,0.0,0.0,0.0,1.0,0.0,0.0,0.0,1.0
1463663006411806963,544,1463663006405400108,,2.66193556786,5.9525437355,-57.911693573,0.00999699998647,1.0,0.0,0.0,0.0,1.0,0.0,0.0,0.0,1.0,-6.82926845551,-19.817073822,-27.9268302917,1.0,0.0,0.0,0.0,1.0,0.0,0.0,0.0,1.0,0.536301208408,-0.181959326172,-9.91199487305,1.0,0.0,0.0,0.0,1.0,0.0,0.0,0.0,1.0
1463663006422558305,545,1463663006415570415,,2.53936553001,5.7268576622,-58.5552635193,0.0101399999112,1.0,0.0,0.0,0.0,1.0,0.0,0.0,0.0,1.0,-7.56097555161,-21.7682933807,-24.5121955872,1.0,0.0,0.0,0.0,1.0,0.0,0.0,0.0,1.0,0.555454785156,-0.167594116211,-9.86411083984,1.0,0.0,0.0,0.0,1.0,0.0,0.0,0.0,1.0
1463663006435386544,546,1463663006425974895,,2.41960597038,5.4911403656,-59.1613006592,0.0100659998134,1.0,0.0,0.0,0.0,1.0,0.0,0.0,0.0,1.0,-7.62195110321,-23.7804889679,-21.2195129395,1.0,0.0,0.0,0.0,1.0,0.0,0.0,0.0,1.0,0.723048901367,-0.0909796630859,-10.0029745361,1.0,0.0,0.0,0.0,1.0,0.0,0.0,0.0,1.0
1463663006438302708,547,1463663006435912485,,2.30693078041,5.22793626785,-59.7331771851,0.0100800003856,1.0,0.0,0.0,0.0,1.0,0.0,0.0,0.0,1.0,-7.62195110321,-26.2804889679,-17.7439022064,1.0,0.0,0.0,0.0,1.0,0.0,0.0,0.0,1.0,0.675164868164,-0.0909796630859,-9.74440075684,1.0,0.0,0.0,0.0,1.0,0.0,0.0,0.0,1.0
1463663006448605906,548,1463663006445956878,,2.20908355713,4.93985176086,-60.2690544128,0.0101389996707,1.0,0.0,0.0,0.0,1.0,0.0,0.0,0.0,1.0,-7.74390268326,-28.5365848541,-13.9634151459,1.0,0.0,0.0,0.0,1.0,0.0,0.0,0.0,1.0,0.660799658203,-0.248996972656,-9.67257470703,1.0,0.0,0.0,0.0,1.0,0.0,0.0,0.0,1.0
1463663006545003156,549,1463663006455844530,,2.10370540619,4.63601589203,-60.7684898376,0.010153000243,1.0,0.0,0.0,0.0,1.0,0.0,0.0,0.0,1.0,-7.86585378647,-29.6951236725,-10.2439022064,1.0,0.0,0.0,0.0,1.0,0.0,0.0,0.0,1.0,0.588973571866,-0.0287304199219,-9.65342167827,1.0,0.0,0.0,0.0,1.0,0.0,0.0,0.0,1.0
1463663006545277999,550,1463663006466327537,,2.0001540184,4.32512426376,-61.2373580933,0.0101100001484,1.0,0.0,0.0,0.0,1.0,0.0,0.0,0.0,1.0,-6.89024400711,-30.6707305908,-7.37804937363,1.0,0.0,0.0,0.0,1.0,0.0,0.0,0.0,1.0,0.593762048251,0.215478149414,-9.63426806499,1.0,0.0,0.0,0.0,1.0,0.0,0.0,0.0,1.0
1463663006545610019,551,1463663006476290227,,1.91762316227,4.00211620331,-61.680015564,0.0100400000811,1.0,0.0,0.0,0.0,1.0,0.0,0.0,0.0,1.0,-5.30487823486,-30.7317066193,-5.18292713165,1.0,0.0,0.0,0.0,1.0,0.0,0.0,0.0,1.0,0.335188232422,0.229843359375,-9.65342167827,1.0,0.0,0.0,0.0,1.0,0.0,0.0,0.0,1.0
1463663006545890903,552,1463663006485930270,,1.86061131954,3.69017410278,-62.1118392944,0.0100670000538,1.0,0.0,0.0,0.0,1.0,0.0,0.0,0.0,1.0,-2.92682933807,-29.7560997009,-4.08536577225,1.0,0.0,0.0,0.0,1.0,0.0,0.0,0.0,1.0,0.325611425781,0.263362164351,-9.47624958638,1.0,0.0,0.0,0.0,1.0,0.0,0.0,0.0,1.0
1463663006546165747,553,1463663006496167595,,1.82910490036,3.39378023148,-62.5403747559,0.0101100001484,1.0,0.0,0.0,0.0,1.0,0.0,0.0,0.0,1.0,-0.365853667259,-28.475610733,-3.65853667259,1.0,0.0,0.0,0.0,1.0,0.0,0.0,0.0,1.0,0.344765039063,0.316034619141,-9.41400034321,1.0,0.0,0.0,0.0,1.0,0.0,0.0,0.0,1.0
1463663006546422573,554,1463663006506066859,,1.83654105663,3.11238574982,-62.9646911621,0.0101009998471,1.0,0.0,0.0,0.0,1.0,0.0,0.0,0.0,1.0,2.74390244484,-26.4024391174,-3.41463422775,1.0,0.0,0.0,0.0,1.0,0.0,0.0,0.0,1.0,0.196324536133,0.234631762695,-9.38048151997,1.0,0.0,0.0,0.0,1.0,0.0,0.0,0.0,1.0
1463663006546679712,555,1463663006516065635,,1.85570013523,2.86204648018,-63.3882637024,0.0100819999352,1.0,0.0,0.0,0.0,1.0,0.0,0.0,0.0,1.0,5.48780488968,-24.2073173523,-3.41463422775,1.0,0.0,0.0,0.0,1.0,0.0,0.0,0.0,1.0,0.287304199219,0.531512805087,-9.42357714985,1.0,0.0,0.0,0.0,1.0,0.0,0.0,0.0,1.0
1463663006548429588,556,1463663006526399192,,1.91227769852,2.63744592667,-63.8116836548,0.0100910002366,1.0,0.0,0.0,0.0,1.0,0.0,0.0,0.0,1.0,8.35365867615,-22.1951236725,-3.47560977936,1.0,0.0,0.0,0.0,1.0,0.0,0.0,0.0,1.0,0.335188232422,0.416591088867,-9.42357714985,1.0,0.0,0.0,0.0,1.0,0.0,0.0,0.0,1.0
1463663006548690267,557,1463663006536440773,,1.99804377556,2.4284799099,-64.2322235107,0.0101330000907,1.0,0.0,0.0,0.0,1.0,0.0,0.0,0.0,1.0,10.7317075729,-19.817073822,-3.10975623131,1.0,0.0,0.0,0.0,1.0,0.0,0.0,0.0,1.0,0.167594116211,0.354341845703,-9.38048151997,1.0,0.0,0.0,0.0,1.0,0.0,0.0,0.0,1.0
1463663006548964538,558,1463663006546354774,,2.11916923523,2.25699305534,-64.6518783569,0.0100779999048,1.0,0.0,0.0,0.0,1.0,0.0,0.0,0.0,1.0,12.1341466904,-17.2560977936,-3.41463422775,1.0,0.0,0.0,0.0,1.0,0.0,0.0,0.0,1.0,0.296881024126,0.00478840332031,-9.49061596538,1.0,0.0,0.0,0.0,1.0,0.0,0.0,0.0,1.0
1463663006626639669,559,1463663006556482224,,2.23620247841,2.10158634186,-65.0715789795,0.0101100001484,1.0,0.0,0.0,0.0,1.0,0.0,0.0,0.0,1.0,12.6829271317,-15.3658533096,-3.29268312454,1.0,0.0,0.0,0.0,1.0,0.0,0.0,0.0,1.0,0.220266552734,0.177170922852,-9.79228479004,1.0,0.0,0.0,0.0,1.0,0.0,0.0,0.0,1.0
1463663006626996060,560,1463663006566530001,,2.37323927879,1.97436892986,-65.4762191772,0.0100959995762,1.0,0.0,0.0,0.0,1.0,0.0,0.0,0.0,1.0,13.5365858078,-13.4756097794,-1.95121955872,1.0,0.0,0.0,0.0,1.0,0.0,0.0,0.0,1.0,0.335188232422,-0.0143652099609,-9.64863327495,1.0,0.0,0.0,0.0,1.0,0.0,0.0,0.0,1.0
1463663006627280849,561,1463663006577243121,,2.49380946159,1.86620700359,-65.8617706299,0.0101349996403,1.0,0.0,0.0,0.0,1.0,0.0,0.0,0.0,1.0,12.2560977936,-10.548781395,-0.0,1.0,0.0,0.0,0.0,1.0,0.0,0.0,0.0,1.0,0.148440512063,0.0574608398438,-10.0125513428,1.0,0.0,0.0,0.0,1.0,0.0,0.0,0.0,1.0
1463663006627560275,562,1463663006587612817,,2.5754339695,1.78409337997,-66.2101211548,0.0100659998134,1.0,0.0,0.0,0.0,1.0,0.0,0.0,0.0,1.0,9.20731735229,-7.86585378647,3.35365867615,1.0,0.0,0.0,0.0,1.0,0.0,0.0,0.0,1.0,0.119710083008,0.205901342773,-10.4387192383,1.0,0.0,0.0,0.0,1.0,0.0,0.0,0.0,1.0
1463663006628077156,563,1463663006597773906,,2.59509825706,1.73976790905,-66.5237350464,0.0101309996098,1.0,0.0,0.0,0.0,1.0,0.0,0.0,0.0,1.0,3.71951246262,-3.53658556938,6.82926845551,1.0,0.0,0.0,0.0,1.0,0.0,0.0,0.0,1.0,0.0287304199219,0.349553442383,-10.5775829346,1.0,0.0,0.0,0.0,1.0,0.0,0.0,0.0,1.0
1463663006628367882,564,1463663006607330058,,2.61778044701,1.7266074419,-66.8214874268,0.0100819999352,1.0,0.0,0.0,0.0,1.0,0.0,0.0,0.0,1.0,1.15853655338,-1.03658533096,8.04878044128,1.0,0.0,0.0,0.0,1.0,0.0,0.0,0.0,1.0,0.138863696289,-0.181959326172,-10.7403886475,1.0,0.0,0.0,0.0,1.0,0.0,0.0,0.0,1.0
1463663006628800925,565,1463663006617781509,,2.56148552895,1.75145113468,-67.1026153564,0.0101260002702,1.0,0.0,0.0,0.0,1.0,0.0,0.0,0.0,1.0,-3.23170733452,2.62195134163,9.75609779358,1.0,0.0,0.0,0.0,1.0,0.0,0.0,0.0,1.0,0.177170922852,0.488417138672,-11.0755768799,1.0,0.0,0.0,0.0,1.0,0.0,0.0,0.0,1.0
1463663006632457053,566,1463663006628562741,,2.52798366547,1.78704226017,-67.3977203369,0.0103219999,1.0,0.0,0.0,0.0,1.0,0.0,0.0,0.0,1.0,-2.19512200356,3.84146332741,8.84146404266,1.0,0.0,0.0,0.0,1.0,0.0,0.0,0.0,1.0,0.129286889648,0.229843359375,-10.5871597412,1.0,0.0,0.0,0.0,1.0,0.0,0.0,0.0,1.0
1463663006678365150,567,1463663006637632632,,2.50614190102,1.82243311405,-67.6887588501,0.00986399967223,1.0,0.0,0.0,0.0,1.0,0.0,0.0,0.0,1.0,-1.15853655338,3.90243911743,7.92682981491,1.0,0.0,0.0,0.0,1.0,0.0,0.0,0.0,1.0,0.143652099609,0.225054956055,-10.4387192383,1.0,0.0,0.0,0.0,1.0,0.0,0.0,0.0,1.0
1463663006678727789,568,1463663006647809812,,2.49294137955,1.8511878252,-67.9976272583,0.010106000118,1.0,0.0,0.0,0.0,1.0,0.0,0.0,0.0,1.0,0.304878056049,3.96341490746,6.89024400711,1.0,0.0,0.0,0.0,1.0,0.0,0.0,0.0,1.0,-0.00478840332031,0.325611425781,-10.553640918,1.0,0.0,0.0,0.0,1.0,0.0,0.0,0.0,1.0
1463663006680136532,569,1463663006658242725,,2.51029682159,1.89255332947,-68.3206558228,0.0102319996804,1.0,0.0,0.0,0.0,1.0,0.0,0.0,0.0,1.0,3.17073178291,3.17073178291,5.91463422775,1.0,0.0,0.0,0.0,1.0,0.0,0.0,0.0,1.0,0.349553442383,0.282515795898,-10.165780249,1.0,0.0,0.0,0.0,1.0,0.0,0.0,0.0,1.0
1463663006680740531,570,1463663006667928956,,2.5547144413,1.92075943947,-68.6381149292,0.00995699968189,1.0,0.0,0.0,0.0,1.0,0.0,0.0,0.0,1.0,5.36585378647,2.62195134163,5.60975599289,1.0,0.0,0.0,0.0,1.0,0.0,0.0,0.0,1.0,0.234631762695,0.172382519531,-10.2471831055,1.0,0.0,0.0,0.0,1.0,0.0,0.0,0.0,1.0
1463663006681184041,571,1463663006678514236,,2.62838625908,1.93154060841,-68.9636230469,0.0100899999961,1.0,0.0,0.0,0.0,1.0,0.0,0.0,0.0,1.0,6.89024400711,1.34146344662,5.24390268326,1.0,0.0,0.0,0.0,1.0,0.0,0.0,0.0,1.0,0.148440512063,-0.0814028564453,-10.6111017578,1.0,0.0,0.0,0.0,1.0,0.0,0.0,0.0,1.0
1463663006716945160,572,1463663006688425529,,2.68314599991,1.94460821152,-69.2717666626,0.0101260002702,1.0,0.0,0.0,0.0,1.0,0.0,0.0,0.0,1.0,6.70731735229,1.2804877758,7.13414621353,1.0,0.0,0.0,0.0,1.0,0.0,0.0,0.0,1.0,0.215478149414,0.239420166016,-10.7595422607,1.0,0.0,0.0,0.0,1.0,0.0,0.0,0.0,1.0
1463663006717305352,573,1463663006698106085,,2.74456572533,1.96847784519,-69.5558929443,0.0101549997926,1.0,0.0,0.0,0.0,1.0,0.0,0.0,0.0,1.0,6.21951246262,2.01219511032,9.51219558716,1.0,0.0,0.0,0.0,1.0,0.0,0.0,0.0,1.0,0.296881024126,0.0287304199219,-10.7739074707,1.0,0.0,0.0,0.0,1.0,0.0,0.0,0.0,1.0
1463663006717663044,574,1463663006708337057,,2.80141282082,1.99205327034,-69.8015213013,0.0100410003215,1.0,0.0,0.0,0.0,1.0,0.0,0.0,0.0,1.0,5.30487823486,2.5,12.9878053665,1.0,0.0,0.0,0.0,1.0,0.0,0.0,0.0,1.0,0.234631762695,-0.0622492431641,-10.7547538574,1.0,0.0,0.0,0.0,1.0,0.0,0.0,0.0,1.0
1463663006725104338,575,1463663006718346821,,2.85731959343,2.02637338638,-70.0152359009,0.0102979997173,1.0,0.0,0.0,0.0,1.0,0.0,0.0,0.0,1.0,3.90243911743,3.90243911743,16.5853652954,1.0,0.0,0.0,0.0,1.0,0.0,0.0,0.0,1.0,0.186747729492,-0.268150604204,-10.5775829346,1.0,0.0,0.0,0.0,1.0,0.0,0.0,0.0,1.0
1463663006732134356,576,1463663006728567118,,2.8864107132,2.06419062614,-70.1839294434,0.00989800039679,1.0,0.0,0.0,0.0,1.0,0.0,0.0,0.0,1.0,1.40243899822,4.87804889679,20.2439022064,1.0,0.0,0.0,0.0,1.0,0.0,0.0,0.0,1.0,0.129286889648,-0.248996972656,-10.2184526855,1.0,0.0,0.0,0.0,1.0,0.0,0.0,0.0,1.0
1463663006741344272,577,1463663006738744298,,2.90315556526,2.11697053909,-70.3189544678,0.0101079996675,1.0,0.0,0.0,0.0,1.0,0.0,0.0,0.0,1.0,0.0609756112099,5.36585378647,23.9024391174,1.0,0.0,0.0,0.0,1.0,0.0,0.0,0.0,1.0,0.335188232422,-0.244208569336,-10.2807019287,1.0,0.0,0.0,0.0,1.0,0.0,0.0,0.0,1.0
1463663006751392779,578,1463663006748711101,,2.90875172615,2.16909503937,-70.4169158936,0.0101039996371,1.0,0.0,0.0,0.0,1.0,0.0,0.0,0.0,1.0,-1.95121955872,4.81707286835,27.5609760284,1.0,0.0,0.0,0.0,1.0,0.0,0.0,0.0,1.0,0.46447512207,-0.387860668945,-10.2376062988,1.0,0.0,0.0,0.0,1.0,0.0,0.0,0.0,1.0
1463663006761963738,579,1463663006758748881,,2.90605926514,2.22459840775,-70.4902801514,0.0101779997349,1.0,0.0,0.0,0.0,1.0,0.0,0.0,0.0,1.0,-2.98780488968,4.45121955872,30.0609760284,1.0,0.0,0.0,0.0,1.0,0.0,0.0,0.0,1.0,0.622492431641,-0.416591088867,-10.3381627686,1.0,0.0,0.0,0.0,1.0,0.0,0.0,0.0,1.0
1463663006770851580,580,1463663006768888672,,2.89382505417,2.24055290222,-70.5514678955,0.0100269997492,1.0,0.0,0.0,0.0,1.0,0.0,0.0,0.0,1.0,-3.17073178291,2.86585378647,31.2804889679,1.0,0.0,0.0,0.0,1.0,0.0,0.0,0.0,1.0,0.239420166016,-0.282515795898,-10.898405957,1.0,0.0,0.0,0.0,1.0,0.0,0.0,0.0,1.0
1463663006780760894,581,1463663006778877034,,2.91983652115,2.22612690926,-70.6188278198,0.0100910002366,1.0,0.0,0.0,0.0,1.0,0.0,0.0,0.0,1.0,-0.853658556938,1.2195122242,30.7317066193,1.0,0.0,0.0,0.0,1.0,0.0,0.0,0.0,1.0,-0.0287304199219,-0.584185168546,-11.166556543,1.0,0.0,0.0,0.0,1.0,0.0,0.0,0.0,1.0
1463663006793983798,582,1463663006791513382,,2.96588206291,2.18344449997,-70.7060089111,0.0102289998904,1.0,0.0,0.0,0.0,1.0,0.0,0.0,0.0,1.0,1.58536589146,0.0609756112099,28.9634151459,1.0,0.0,0.0,0.0,1.0,0.0,0.0,0.0,1.0,-0.383072265625,-0.526724328702,-11.7363765381,1.0,0.0,0.0,0.0,1.0,0.0,0.0,0.0,1.0
1463663006802123396,583,1463663006800458400,,3.04594016075,2.12155175209,-70.8051681519,0.010598000139,1.0,0.0,0.0,0.0,1.0,0.0,0.0,0.0,1.0,3.84146332741,-0.0609756112099,28.1097564697,1.0,0.0,0.0,0.0,1.0,0.0,0.0,0.0,1.0,-0.727837304687,-0.708683691406,-11.7603185547,1.0,0.0,0.0,0.0,1.0,0.0,0.0,0.0,1.0
1463663006812014797,584,1463663006809332234,,3.1342959404,2.06406378746,-70.9061889648,0.00946499966085,1.0,0.0,0.0,0.0,1.0,0.0,0.0,0.0,1.0,5.79268312454,0.487804889679,26.7682933807,1.0,0.0,0.0,0.0,1.0,0.0,0.0,0.0,1.0,-0.905008227539,-0.684741674805,-11.5352635986,1.0,0.0,0.0,0.0,1.0,0.0,0.0,0.0,1.0
1463663006821759039,585,1463663006819347154,,3.25403952599,1.99819910526,-71.0398788452,0.0101140001789,1.0,0.0,0.0,0.0,1.0,0.0,0.0,0.0,1.0,6.28048801422,0.548780500889,24.1463432312,1.0,0.0,0.0,0.0,1.0,0.0,0.0,0.0,1.0,-1.06302561017,-1.13963999023,-11.5879360352,1.0,0.0,0.0,0.0,1.0,0.0,0.0,0.0,1.0
1463663006832400454,586,1463663006829477624,,3.36309576035,1.93990671635,-71.1908874512,0.0101739997044,1.0,0.0,0.0,0.0,1.0,0.0,0.0,0.0,1.0,5.0,0.853658556938,22.5,1.0,0.0,0.0,0.0,1.0,0.0,0.0,0.0,1.0,-0.967257470703,-1.16358193377,-11.1857101562,1.0,0.0,0.0,0.0,1.0,0.0,0.0,0.0,1.0
1463663006842914913,587,1463663006839347050,,3.43060731888,1.89455139637,-71.3484573364,0.0100109996274,1.0,0.0,0.0,0.0,1.0,0.0,0.0,0.0,1.0,1.76829278469,1.52439022064,21.5853652954,1.0,0.0,0.0,0.0,1.0,0.0,0.0,0.0,1.0,-0.861912597656,-1.01035310059,-10.8792523438,1.0,0.0,0.0,0.0,1.0,0.0,0.0,0.0,1.0
1463663006872411130,588,1463663006849951909,,3.46831488609,1.86195850372,-71.5148620605,0.010098000057,1.0,0.0,0.0,0.0,1.0,0.0,0.0,0.0,1.0,-0.304878056049,2.86585378647,20.7926826477,1.0,0.0,0.0,0.0,1.0,0.0,0.0,0.0,1.0,-0.866701000977,-0.823605371094,-10.6158901611,1.0,0.0,0.0,0.0,1.0,0.0,0.0,0.0,1.0
1463663006872987374,589,1463663006860087795,,3.48378038406,1.83179926872,-71.6830596924,0.0101169999689,1.0,0.0,0.0,0.0,1.0,0.0,0.0,0.0,1.0,-2.56097555161,3.41463422775,20.6097564697,1.0,0.0,0.0,0.0,1.0,0.0,0.0,0.0,1.0,-0.895431420898,-0.804451757813,-10.1753570557,1.0,0.0,0.0,0.0,1.0,0.0,0.0,0.0,1.0
1463663006873419636,590,1463663006870481913,,3.4659614563,1.83163976669,-71.8412475586,0.0101720001549,1.0,0.0,0.0,0.0,1.0,0.0,0.0,0.0,1.0,-5.54878091812,5.18292713165,21.5853652954,1.0,0.0,0.0,0.0,1.0,0.0,0.0,0.0,1.0,-0.646434448242,-0.718260498047,-9.78749638672,1.0,0.0,0.0,0.0,1.0,0.0,0.0,0.0,1.0
1463663006918522938,591,1463663006880524744,,3.41972470284,1.84804964066,-71.9865036011,0.010048000142,1.0,0.0,0.0,0.0,1.0,0.0,0.0,0.0,1.0,-7.62195110321,5.60975599289,22.682926178,1.0,0.0,0.0,0.0,1.0,0.0,0.0,0.0,1.0,-0.416591088867,-0.569819995117,-9.71567033691,1.0,0.0,0.0,0.0,1.0,0.0,0.0,0.0,1.0
1463663006918863394,592,1463663006890394899,,3.35858130455,1.8731443882,-72.135887146,0.0101340003312,1.0,0.0,0.0,0.0,1.0,0.0,0.0,0.0,1.0,-8.5365858078,5.30487823486,22.4390239716,1.0,0.0,0.0,0.0,1.0,0.0,0.0,0.0,1.0,-0.215478149414,-0.474051928711,-9.69172832031,1.0,0.0,0.0,0.0,1.0,0.0,0.0,0.0,1.0
1463663006919340751,593,1463663006900575724,,3.2818236351,1.87683272362,-72.2797927856,0.0100410003215,1.0,0.0,0.0,0.0,1.0,0.0,0.0,0.0,1.0,-9.45121955872,4.45121955872,22.9268302917,1.0,0.0,0.0,0.0,1.0,0.0,0.0,0.0,1.0,-0.416591088867,-0.339976635742,-9.62947966167,1.0,0.0,0.0,0.0,1.0,0.0,0.0,0.0,1.0
1463663006919867422,594,1463663006910785346,,3.21493124962,1.87091398239,-72.4311218262,0.0101229995489,1.0,0.0,0.0,0.0,1.0,0.0,0.0,0.0,1.0,-8.35365867615,3.41463422775,22.3780498505,1.0,0.0,0.0,0.0,1.0,0.0,0.0,0.0,1.0,-0.416591088867,-0.330399829102,-9.93593688965,1.0,0.0,0.0,0.0,1.0,0.0,0.0,0.0,1.0
1463663006955920881,595,1463663006920940603,,3.15412211418,1.85489583015,-72.6001205444,0.0100910002366,1.0,0.0,0.0,0.0,1.0,0.0,0.0,0.0,1.0,-7.43902492523,2.01219511032,20.6707324982,1.0,0.0,0.0,0.0,1.0,0.0,0.0,0.0,1.0,-0.359130249023,-0.268150604204,-9.86411083984,1.0,0.0,0.0,0.0,1.0,0.0,0.0,0.0,1.0
1463663006956232540,596,1463663006930533727,,3.10770630836,1.82222282887,-72.7853012085,0.0100899999961,1.0,0.0,0.0,0.0,1.0,0.0,0.0,0.0,1.0,-5.67073154449,0.792682945728,19.1463432312,1.0,0.0,0.0,0.0,1.0,0.0,0.0,0.0,1.0,-0.469263525391,-0.215478149414,-10.314220752,1.0,0.0,0.0,0.0,1.0,0.0,0.0,0.0,1.0
1463663006956502645,597,1463663006940480222,,3.06885194778,1.77047276497,-72.9922027588,0.0100959995762,1.0,0.0,0.0,0.0,1.0,0.0,0.0,0.0,1.0,-3.7804877758,-0.914634168148,17.134147644,1.0,0.0,0.0,0.0,1.0,0.0,0.0,0.0,1.0,-0.536301208408,-0.00957680664062,-10.5105452881,1.0,0.0,0.0,0.0,1.0,0.0,0.0,0.0,1.0
1463663006956892467,598,1463663006950775817,,3.0458676815,1.70772528648,-73.2242431641,0.010156000033,1.0,0.0,0.0,0.0,1.0,0.0,0.0,0.0,1.0,-1.8292683363,-1.46341466904,14.8170728683,1.0,0.0,0.0,0.0,1.0,0.0,0.0,0.0,1.0,-0.675164868164,0.0574608398438,-10.7308118408,1.0,0.0,0.0,0.0,1.0,0.0,0.0,0.0,1.0
1463663006965684962,599,1463663006961788099,,3.04017543793,1.64323568344,-73.4792251587,0.0101810004562,1.0,0.0,0.0,0.0,1.0,0.0,0.0,0.0,1.0,0.609756112099,-1.15853655338,12.6219520569,1.0,0.0,0.0,0.0,1.0,0.0,0.0,0.0,1.0,-0.804451757813,0.196324536133,-10.8361567139,1.0,0.0,0.0,0.0,1.0,0.0,0.0,0.0,1.0
1463663006973420419,600,1463663006971427725,,3.04540514946,1.57835042477,-73.7468566895,0.0100429998711,1.0,0.0,0.0,0.0,1.0,0.0,0.0,0.0,1.0,2.62195134163,-1.03658533096,11.0365858078,1.0,0.0,0.0,0.0,1.0,0.0,0.0,0.0,1.0,-0.881066210937,0.373495458984,-10.8265799072,1.0,0.0,0.0,0.0,1.0,0.0,0.0,0.0,1.0
1463663006992853704,601,1463663006985889091,,3.06523919106,1.53344893456,-74.0222167969,0.0100429998711,1.0,0.0,0.0,0.0,1.0,0.0,0.0,0.0,1.0,4.51219558716,-0.487804889679,10.2439022064,1.0,0.0,0.0,0.0,1.0,0.0,0.0,0.0,1.0,-0.61770402832,0.450109912109,-10.7020814209,1.0,0.0,0.0,0.0,1.0,0.0,0.0,0.0,1.0
1463663006994005256,602,1463663006991154132,,3.09460353851,1.49160194397,-74.3042449951,0.0100819999352,1.0,0.0,0.0,0.0,1.0,0.0,0.0,0.0,1.0,5.67073154449,-0.548780500889,9.69512176514,1.0,0.0,0.0,0.0,1.0,0.0,0.0,0.0,1.0,-0.555454785156,0.483628735352,-10.5823713379,1.0,0.0,0.0,0.0,1.0,0.0,0.0,0.0,1.0
1463663007005057895,603,1463663007001921200,,3.13808298111,1.46147227287,-74.5822067261,0.0101220002398,1.0,0.0,0.0,0.0,1.0,0.0,0.0,0.0,1.0,7.31707334518,-0.0609756112099,10.1829271317,1.0,0.0,0.0,0.0,1.0,0.0,0.0,0.0,1.0,-0.435744702148,0.536301208408,-10.6541973877,1.0,0.0,0.0,0.0,1.0,0.0,0.0,0.0,1.0
1463663007019436470,604,1463663007014726269,,3.22241067886,1.42348301411,-74.9076004028,0.0123110003769,1.0,0.0,0.0,0.0,1.0,0.0,0.0,0.0,1.0,9.81707286835,-0.243902444839,11.2195119858,1.0,0.0,0.0,0.0,1.0,0.0,0.0,0.0,1.0,-0.411802685547,0.512359155273,-10.3860468018,1.0,0.0,0.0,0.0,1.0,0.0,0.0,0.0,1.0
1463663007026579281,605,1463663007021335641,,3.28437066078,1.40128982067,-75.1137161255,0.00789199955761,1.0,0.0,0.0,0.0,1.0,0.0,0.0,0.0,1.0,11.2804880142,0.0609756112099,11.5243911743,1.0,0.0,0.0,0.0,1.0,0.0,0.0,0.0,1.0,-0.426167895508,0.584185168546,-10.3477395752,1.0,0.0,0.0,0.0,1.0,0.0,0.0,0.0,1.0
1463663007038803836,606,1463663007032305590,,3.39510083199,1.3639690876,-75.3599090576,0.0101020000875,1.0,0.0,0.0,0.0,1.0,0.0,0.0,0.0,1.0,11.6463422775,-0.487804889679,13.2317075729,1.0,0.0,0.0,0.0,1.0,0.0,0.0,0.0,1.0,-0.45968671875,0.076614453125,-9.92157167969,1.0,0.0,0.0,0.0,1.0,0.0,0.0,0.0,1.0
1463663007047380906,607,1463663007042276406,,3.53465032578,1.3537569046,-75.6090698242,0.0101180002093,1.0,0.0,0.0,0.0,1.0,0.0,0.0,0.0,1.0,15.1219511032,0.548780500889,12.9268293381,1.0,0.0,0.0,0.0,1.0,0.0,0.0,0.0,1.0,-0.191536132812,0.172382519531,-10.0652237793,1.0,0.0,0.0,0.0,1.0,0.0,0.0,0.0,1.0
1463663007056163250,608,1463663007052460099,,3.69768476486,1.31394374371,-75.8611373901,0.0104400003329,1.0,0.0,0.0,0.0,1.0,0.0,0.0,0.0,1.0,16.5853652954,-0.670731723309,13.4756097794,1.0,0.0,0.0,0.0,1.0,0.0,0.0,0.0,1.0,-0.469263525391,0.0861912597656,-9.79707319336,1.0,0.0,0.0,0.0,1.0,0.0,0.0,0.0,1.0
1463663007064328523,609,1463663007062588645,,3.87357592583,1.28067183495,-76.1037139893,0.00975800026208,1.0,0.0,0.0,0.0,1.0,0.0,0.0,0.0,1.0,17.8048782349,-0.914634168148,12.7439022064,1.0,0.0,0.0,0.0,1.0,0.0,0.0,0.0,1.0,-0.383072265625,-0.148440512063,-9.76834277344,1.0,0.0,0.0,0.0,1.0,0.0,0.0,0.0,1.0
1463663007074234716,610,1463663007072253113,,4.06628656387,1.22181606293,-76.3645172119,0.0101110003889,1.0,0.0,0.0,0.0,1.0,0.0,0.0,0.0,1.0,18.2926826477,-2.25609779358,11.8902444839,1.0,0.0,0.0,0.0,1.0,0.0,0.0,0.0,1.0,-0.588973571866,-0.268150604204,-9.60074924175,1.0,0.0,0.0,0.0,1.0,0.0,0.0,0.0,1.0
1463663007086266183,611,1463663007082472684,,4.25753545761,1.16188061237,-76.6489562988,0.0102019999176,1.0,0.0,0.0,0.0,1.0,0.0,0.0,0.0,1.0,18.1097564697,-3.23170733452,9.87804889679,1.0,0.0,0.0,0.0,1.0,0.0,0.0,0.0,1.0,-0.483628735352,-0.282515795898,-9.63426806499,1.0,0.0,0.0,0.0,1.0,0.0,0.0,0.0,1.0
1463663007109436265,612,1463663007094473323,,4.46747732162,1.07807850838,-77.0062484741,0.0120040001348,1.0,0.0,0.0,0.0,1.0,0.0,0.0,0.0,1.0,17.0121955872,-4.69512224197,8.10975551605,1.0,0.0,0.0,0.0,1.0,0.0,0.0,0.0,1.0,-0.46447512207,-0.282515795898,-9.45230756977,1.0,0.0,0.0,0.0,1.0,0.0,0.0,0.0,1.0
1463663007111047834,613,1463663007102894121,,4.60246706009,1.02161502838,-77.2597808838,0.00810499954969,1.0,0.0,0.0,0.0,1.0,0.0,0.0,0.0,1.0,15.6097564697,-5.48780488968,6.64634132385,1.0,0.0,0.0,0.0,1.0,0.0,0.0,0.0,1.0,-0.383072265625,-0.416591088867,-9.57680722515,1.0,0.0,0.0,0.0,1.0,0.0,0.0,0.0,1.0
1463663007141955406,614,1463663007112472564,,4.77217292786,0.943145692348,-77.6029510498,0.0100859999657,1.0,0.0,0.0,0.0,1.0,0.0,0.0,0.0,1.0,14.3902444839,-7.19512224197,4.02439022064,1.0,0.0,0.0,0.0,1.0,0.0,0.0,0.0,1.0,-0.292092584273,-0.675164868164,-9.54807680523,1.0,0.0,0.0,0.0,1.0,0.0,0.0,0.0,1.0
1463663007144406920,615,1463663007123282231,,4.91582870483,0.843867957592,-77.9964675903,0.0110069997609,1.0,0.0,0.0,0.0,1.0,0.0,0.0,0.0,1.0,11.4634151459,-7.86585378647,2.37804889679,1.0,0.0,0.0,0.0,1.0,0.0,0.0,0.0,1.0,-0.445321508789,-0.560243188477,-9.63426806499,1.0,0.0,0.0,0.0,1.0,0.0,0.0,0.0,1.0
1463663007144475397,616,1463663007132257976,,5.0243268013,0.764208137989,-78.3411941528,0.00915000028908,1.0,0.0,0.0,0.0,1.0,0.0,0.0,0.0,1.0,9.39024448395,-8.35365867615,0.487804889679,1.0,0.0,0.0,0.0,1.0,0.0,0.0,0.0,1.0,-0.368707055664,-0.732625708008,-9.66778688823,1.0,0.0,0.0,0.0,1.0,0.0,0.0,0.0,1.0
1463663007179482191,617,1463663007142247018,,5.10798072815,0.674213290215,-78.7493743896,0.0100999996066,1.0,0.0,0.0,0.0,1.0,0.0,0.0,0.0,1.0,6.89024400711,-8.78048801422,-2.19512200356,1.0,0.0,0.0,0.0,1.0,0.0,0.0,0.0,1.0,-0.397437475586,-0.565031591797,-9.71088193359,1.0,0.0,0.0,0.0,1.0,0.0,0.0,0.0,1.0
1463663007184529931,618,1463663007153145991,,5.1701374054,0.584304213524,-79.1793670654,0.0101209999993,1.0,0.0,0.0,0.0,1.0,0.0,0.0,0.0,1.0,5.42682933807,-8.65853691101,-4.2682929039,1.0,0.0,0.0,0.0,1.0,0.0,0.0,0.0,1.0,-0.478840332031,-0.46447512207,-9.90241806641,1.0,0.0,0.0,0.0,1.0,0.0,0.0,0.0,1.0
1463663007184624340,619,1463663007163765902,,5.21233701706,0.480848610401,-79.6820144653,0.0113040003926,1.0,0.0,0.0,0.0,1.0,0.0,0.0,0.0,1.0,3.47560977936,-8.29268264771,-6.28048801422,1.0,0.0,0.0,0.0,1.0,0.0,0.0,0.0,1.0,-0.641646044922,-0.383072265625,-9.8545340332,1.0,0.0,0.0,0.0,1.0,0.0,0.0,0.0,1.0
1463663007184760876,620,1463663007172671400,,5.23864555359,0.416598469019,-80.0911712646,0.00888200011104,1.0,0.0,0.0,0.0,1.0,0.0,0.0,0.0,1.0,2.5,-7.19512224197,-7.98780536652,1.0,0.0,0.0,0.0,1.0,0.0,0.0,0.0,1.0,-0.569819995117,-0.435744702148,-10.2807019287,1.0,0.0,0.0,0.0,1.0,0.0,0.0,0.0,1.0
1463663007193119030,621,1463663007182755215,,5.24886465073,0.347726225853,-80.5734863281,0.010111999698,1.0,0.0,0.0,0.0,1.0,0.0,0.0,0.0,1.0,1.15853655338,-7.01219511032,-9.63414573669,1.0,0.0,0.0,0.0,1.0,0.0,0.0,0.0,1.0,-0.574608398438,-0.325611425781,-10.4099888184,1.0,0.0,0.0,0.0,1.0,0.0,0.0,0.0,1.0
1463663007195033094,622,1463663007193024152,,5.24515008926,0.285793602467,-81.065322876,0.0100959995762,1.0,0.0,0.0,0.0,1.0,0.0,0.0,0.0,1.0,0.243902444839,-6.21951246262,-10.7317075729,1.0,0.0,0.0,0.0,1.0,0.0,0.0,0.0,1.0,-0.632069238281,-0.234631762695,-10.4961800781,1.0,0.0,0.0,0.0,1.0,0.0,0.0,0.0,1.0
1463663007320642902,623,1463663007204338567,,5.2335562706,0.233103901148,-81.6059799194,0.0107950000092,1.0,0.0,0.0,0.0,1.0,0.0,0.0,0.0,1.0,-0.670731723309,-5.24390268326,-12.1951217651,1.0,0.0,0.0,0.0,1.0,0.0,0.0,0.0,1.0,-0.622492431641,-0.268150604204,-10.6302553711,1.0,0.0,0.0,0.0,1.0,0.0,0.0,0.0,1.0
1463663007321006947,624,1463663007213077742,,5.21573019028,0.191748738289,-82.0806350708,0.00941099971533,1.0,0.0,0.0,0.0,1.0,0.0,0.0,0.0,1.0,-1.34146344662,-4.45121955872,-12.6219520569,1.0,0.0,0.0,0.0,1.0,0.0,0.0,0.0,1.0,-0.708683691406,-0.234631762695,-10.8505219238,1.0,0.0,0.0,0.0,1.0,0.0,0.0,0.0,1.0
1463663007321339488,625,1463663007223281118,,5.19814634323,0.152769520879,-82.5947799683,0.010106000118,1.0,0.0,0.0,0.0,1.0,0.0,0.0,0.0,1.0,-1.03658533096,-3.29268312454,-13.1707324982,1.0,0.0,0.0,0.0,1.0,0.0,0.0,0.0,1.0,-0.847547387695,-0.196324536133,-10.9223479736,1.0,0.0,0.0,0.0,1.0,0.0,0.0,0.0,1.0
1463663007321696972,626,1463663007233319994,,5.17732810974,0.126169070601,-83.1100082397,0.0100899999961,1.0,0.0,0.0,0.0,1.0,0.0,0.0,0.0,1.0,-1.03658533096,-2.01219511032,-13.4756097794,1.0,0.0,0.0,0.0,1.0,0.0,0.0,0.0,1.0,-0.866701000977,-0.124498486328,-10.912771167,1.0,0.0,0.0,0.0,1.0,0.0,0.0,0.0,1.0
1463663007322027847,627,1463663007243500406,,5.15712976456,0.101276174188,-83.6209259033,0.0101020000875,1.0,0.0,0.0,0.0,1.0,0.0,0.0,0.0,1.0,-1.09756100178,-1.34146344662,-13.048781395,1.0,0.0,0.0,0.0,1.0,0.0,0.0,0.0,1.0,-0.952892260742,-0.138863696289,-10.8648871338,1.0,0.0,0.0,0.0,1.0,0.0,0.0,0.0,1.0
1463663007322350650,628,1463663007253599063,,5.14035558701,0.0951684862375,-84.1329421997,0.0101969996467,1.0,0.0,0.0,0.0,1.0,0.0,0.0,0.0,1.0,-0.548780500889,-0.670731723309,-12.7439022064,1.0,0.0,0.0,0.0,1.0,0.0,0.0,0.0,1.0,-0.713472094727,-0.0957680664062,-10.8026378906,1.0,0.0,0.0,0.0,1.0,0.0,0.0,0.0,1.0
1463663007322630754,629,1463663007263767758,,5.13068532944,0.0921299010515,-84.6270217896,0.010050999932,1.0,0.0,0.0,0.0,1.0,0.0,0.0,0.0,1.0,0.487804889679,-0.426829278469,-11.7073173523,1.0,0.0,0.0,0.0,1.0,0.0,0.0,0.0,1.0,-0.679953271484,-0.0239420166016,-10.7356002441,1.0,0.0,0.0,0.0,1.0,0.0,0.0,0.0,1.0
1463663007322916376,630,1463663007273861363,,5.13779497147,0.0840531885624,-85.1148223877,0.0100600002334,1.0,0.0,0.0,0.0,1.0,0.0,0.0,0.0,1.0,1.58536589146,-1.09756100178,-10.9756097794,1.0,0.0,0.0,0.0,1.0,0.0,0.0,0.0,1.0,-0.632069238281,-0.129286889648,-10.6685625977,1.0,0.0,0.0,0.0,1.0,0.0,0.0,0.0,1.0
1463663007323221735,631,1463663007283933150,,5.16174983978,0.0752326324582,-85.5872497559,0.0100940000266,1.0,0.0,0.0,0.0,1.0,0.0,0.0,0.0,1.0,2.92682933807,-1.2804877758,-9.26829242706,1.0,0.0,0.0,0.0,1.0,0.0,0.0,0.0,1.0,-0.588973571866,-0.191536132812,-10.7212350342,1.0,0.0,0.0,0.0,1.0,0.0,0.0,0.0,1.0
1463663007323542612,632,1463663007294434750,,5.19760608673,0.0686171650887,-86.043182373,0.0101039996371,1.0,0.0,0.0,0.0,1.0,0.0,0.0,0.0,1.0,4.2682929039,-1.58536589146,-7.56097555161,1.0,0.0,0.0,0.0,1.0,0.0,0.0,0.0,1.0,-0.46447512207,-0.162805712891,-10.6685625977,1.0,0.0,0.0,0.0,1.0,0.0,0.0,0.0,1.0
1463663007323817143,633,1463663007304169153,,5.24353075027,0.0579968541861,-86.485748291,0.0101039996371,1.0,0.0,0.0,0.0,1.0,0.0,0.0,0.0,1.0,5.48780488968,-1.76829278469,-6.21951246262,1.0,0.0,0.0,0.0,1.0,0.0,0.0,0.0,1.0,-0.483628735352,-0.124498486328,-10.5488525146,1.0,0.0,0.0,0.0,1.0,0.0,0.0,0.0,1.0
1463663007324096621,634,1463663007314478290,,5.29857969284,0.0566116049886,-86.911491394,0.0101239997894,1.0,0.0,0.0,0.0,1.0,0.0,0.0,0.0,1.0,6.40243911743,-1.2804877758,-4.51219558716,1.0,0.0,0.0,0.0,1.0,0.0,0.0,0.0,1.0,-0.373495458984,-0.124498486328,-10.2711251221,1.0,0.0,0.0,0.0,1.0,0.0,0.0,0.0,1.0
1463663007820583962,635,1463663007324734677,,5.35314559937,0.0560077726841,-87.3221893311,0.010095000267,1.0,0.0,0.0,0.0,1.0,0.0,0.0,0.0,1.0,6.52439069748,-0.975609779358,-3.17073178291,1.0,0.0,0.0,0.0,1.0,0.0,0.0,0.0,1.0,-0.397437475586,-0.105344873047,-10.2184526855,1.0,0.0,0.0,0.0,1.0,0.0,0.0,0.0,1.0
1463663007820673632,636,1463663007334799746,,5.42036676407,0.0542056709528,-87.7243499756,0.0100859999657,1.0,0.0,0.0,0.0,1.0,0.0,0.0,0.0,1.0,7.01219511032,-0.792682945728,-2.37804889679,1.0,0.0,0.0,0.0,1.0,0.0,0.0,0.0,1.0,-0.445321508789,-0.253785375977,-10.1945106689,1.0,0.0,0.0,0.0,1.0,0.0,0.0,0.0,1.0
1463663007820722321,637,1463663007345202928,,5.48057317734,0.0575484074652,-88.1259155273,0.0101549997926,1.0,0.0,0.0,0.0,1.0,0.0,0.0,0.0,1.0,6.40243911743,-0.548780500889,-2.07317066193,1.0,0.0,0.0,0.0,1.0,0.0,0.0,0.0,1.0,-0.402225878906,-0.244208569336,-10.2376062988,1.0,0.0,0.0,0.0,1.0,0.0,0.0,0.0,1.0
1463663007824473015,638,1463663007355126982,,5.53612852097,0.073758803308,-88.5297851562,0.0101389996707,1.0,0.0,0.0,0.0,1.0,0.0,0.0,0.0,1.0,6.09756088257,-0.426829278469,-2.37804889679,1.0,0.0,0.0,0.0,1.0,0.0,0.0,0.0,1.0,-0.205901342773,-0.229843359375,-10.2088758789,1.0,0.0,0.0,0.0,1.0,0.0,0.0,0.0,1.0
1463663007824563050,639,1463663007365386858,,5.57849740982,0.0695074349642,-88.9369277954,0.0100720003247,1.0,0.0,0.0,0.0,1.0,0.0,0.0,0.0,1.0,5.12195110321,-1.46341466904,-2.86585378647,1.0,0.0,0.0,0.0,1.0,0.0,0.0,0.0,1.0,-0.387860668945,-0.181959326172,-9.98860932617,1.0,0.0,0.0,0.0,1.0,0.0,0.0,0.0,1.0
1463663007824605334,640,1463663007375395740,,5.62480974197,0.0658216923475,-89.3562850952,0.010037000291,1.0,0.0,0.0,0.0,1.0,0.0,0.0,0.0,1.0,4.45121955872,-2.31707310677,-4.14634132385,1.0,0.0,0.0,0.0,1.0,0.0,0.0,0.0,1.0,-0.258573779297,-0.383072265625,-10.060435376,1.0,0.0,0.0,0.0,1.0,0.0,0.0,0.0,1.0
1463663007824659282,641,1463663007385679622,,5.66527938843,0.0477874241769,-89.7895965576,0.0101220002398,1.0,0.0,0.0,0.0,1.0,0.0,0.0,0.0,1.0,3.84146332741,-2.86585378647,-5.12195110321,1.0,0.0,0.0,0.0,1.0,0.0,0.0,0.0,1.0,-0.430956298828,-0.383072265625,-9.92636008301,1.0,0.0,0.0,0.0,1.0,0.0,0.0,0.0,1.0
1463663007824701618,642,1463663007395382155,,5.69287538528,0.0277736838907,-90.2338943481,0.0101330000907,1.0,0.0,0.0,0.0,1.0,0.0,0.0,0.0,1.0,2.92682933807,-3.53658556938,-6.09756088257,1.0,0.0,0.0,0.0,1.0,0.0,0.0,0.0,1.0,-0.373495458984,-0.325611425781,-9.95987890625,1.0,0.0,0.0,0.0,1.0,0.0,0.0,0.0,1.0
1463663007831369623,643,1463663007405692386,,5.71820211411,-0.000615784258116,-90.6806030273,0.0100769996643,1.0,0.0,0.0,0.0,1.0,0.0,0.0,0.0,1.0,2.07317066193,-4.08536577225,-6.52439069748,1.0,0.0,0.0,0.0,1.0,0.0,0.0,0.0,1.0,-0.440533105469,-0.440533105469,-9.95987890625,1.0,0.0,0.0,0.0,1.0,0.0,0.0,0.0,1.0
1463663007831642540,644,1463663007415592695,,5.72875070572,-0.034275598824,-91.1433563232,0.0102009996772,1.0,0.0,0.0,0.0,1.0,0.0,0.0,0.0,1.0,1.2195122242,-5.30487823486,-7.43902492523,1.0,0.0,0.0,0.0,1.0,0.0,0.0,0.0,1.0,-0.335188232422,-0.330399829102,-9.95987890625,1.0,0.0,0.0,0.0,1.0,0.0,0.0,0.0,1.0
1463663007831690656,645,1463663007426045399,,5.72190904617,-0.079710893333,-91.5971298218,0.00999800022691,1.0,0.0,0.0,0.0,1.0,0.0,0.0,0.0,1.0,0.243902444839,-6.15853643417,-7.37804937363,1.0,0.0,0.0,0.0,1.0,0.0,0.0,0.0,1.0,-0.411802685547,-0.196324536133,-10.0077629395,1.0,0.0,0.0,0.0,1.0,0.0,0.0,0.0,1.0
1463663007831736897,646,1463663007435938677,,5.71687507629,-0.137361854315,-92.0587310791,0.010156000033,1.0,0.0,0.0,0.0,1.0,0.0,0.0,0.0,1.0,-0.0609756112099,-6.82926845551,-7.37804937363,1.0,0.0,0.0,0.0,1.0,0.0,0.0,0.0,1.0,-0.497993945312,-0.272938989258,-9.93593688965,1.0,0.0,0.0,0.0,1.0,0.0,0.0,0.0,1.0
1463663007831767621,647,1463663007446099874,,5.70015573502,-0.19649361074,-92.5089035034,0.0100440001115,1.0,0.0,0.0,0.0,1.0,0.0,0.0,0.0,1.0,-0.731707334518,-7.25609779358,-6.70731735229,1.0,0.0,0.0,0.0,1.0,0.0,0.0,0.0,1.0,-0.469263525391,-0.181959326172,-10.2088758789,1.0,0.0,0.0,0.0,1.0,0.0,0.0,0.0,1.0
1463663007831998514,648,1463663007455717216,,5.6881737709,-0.260802060366,-92.9587631226,0.0101579995826,1.0,0.0,0.0,0.0,1.0,0.0,0.0,0.0,1.0,-0.426829278469,-7.43902492523,-6.15853643417,1.0,0.0,0.0,0.0,1.0,0.0,0.0,0.0,1.0,-0.521935925381,-0.205901342773,-10.3429511719,1.0,0.0,0.0,0.0,1.0,0.0,0.0,0.0,1.0
1463663007832057513,649,1463663007466914570,,5.66689634323,-0.329723447561,-93.3909378052,0.0100339995697,1.0,0.0,0.0,0.0,1.0,0.0,0.0,0.0,1.0,-0.12195122242,-7.56097555161,-4.93902444839,1.0,0.0,0.0,0.0,1.0,0.0,0.0,0.0,1.0,-0.588973571866,0.0335188255255,-10.4099888184,1.0,0.0,0.0,0.0,1.0,0.0,0.0,0.0,1.0
1463663007832098391,650,1463663007476087464,,5.66167974472,-0.391991019249,-93.8138198853,0.0101070003584,1.0,0.0,0.0,0.0,1.0,0.0,0.0,0.0,1.0,0.670731723309,-6.82926845551,-3.7804877758,1.0,0.0,0.0,0.0,1.0,0.0,0.0,0.0,1.0,-0.584185168546,-0.105344873047,-10.4435076416,1.0,0.0,0.0,0.0,1.0,0.0,0.0,0.0,1.0
1463663007832154110,651,1463663007486214761,,5.66665315628,-0.448366165161,-94.2220916748,0.0100929997861,1.0,0.0,0.0,0.0,1.0,0.0,0.0,0.0,1.0,1.34146344662,-6.34146356583,-2.43902444839,1.0,0.0,0.0,0.0,1.0,0.0,0.0,0.0,1.0,-0.560243188477,-0.162805712891,-10.553640918,1.0,0.0,0.0,0.0,1.0,0.0,0.0,0.0,1.0
1463663007832210974,652,1463663007496106217,,5.67395830154,-0.492630690336,-94.621711731,0.0101810004562,1.0,0.0,0.0,0.0,1.0,0.0,0.0,0.0,1.0,1.34146344662,-5.91463422775,-1.2804877758,1.0,0.0,0.0,0.0,1.0,0.0,0.0,0.0,1.0,-0.397437475586,-0.201112939453,-10.5296989014,1.0,0.0,0.0,0.0,1.0,0.0,0.0,0.0,1.0
1463663007832779928,653,1463663007506527937,,5.68988800049,-0.539743185043,-94.9984970093,0.0100330002606,1.0,0.0,0.0,0.0,1.0,0.0,0.0,0.0,1.0,1.8902438879,-5.97560977936,0.426829278469,1.0,0.0,0.0,0.0,1.0,0.0,0.0,0.0,1.0,-0.435744702148,-0.263362164351,-10.6925046143,1.0,0.0,0.0,0.0,1.0,0.0,0.0,0.0,1.0
1463663007832866110,654,1463663007516388358,,5.7079334259,-0.590783178806,-95.3685531616,0.0101039996371,1.0,0.0,0.0,0.0,1.0,0.0,0.0,0.0,1.0,2.31707310677,-5.85365867615,1.34146344662,1.0,0.0,0.0,0.0,1.0,0.0,0.0,0.0,1.0,-0.512359155273,-0.215478149414,-10.5440641113,1.0,0.0,0.0,0.0,1.0,0.0,0.0,0.0,1.0
1463663007833826553,655,1463663007526603503,,5.73562145233,-0.62914711237,-95.7331237793,0.0101570002735,1.0,0.0,0.0,0.0,1.0,0.0,0.0,0.0,1.0,3.17073178291,-5.24390268326,2.01219511032,1.0,0.0,0.0,0.0,1.0,0.0,0.0,0.0,1.0,-0.392649072266,-0.234631762695,-10.6829278076,1.0,0.0,0.0,0.0,1.0,0.0,0.0,0.0,1.0
1463663007833947624,656,1463663007536670134,,5.76862812042,-0.670818686485,-96.0873641968,0.0100299995393,1.0,0.0,0.0,0.0,1.0,0.0,0.0,0.0,1.0,3.53658556938,-5.54878091812,2.62195134163,1.0,0.0,0.0,0.0,1.0,0.0,0.0,0.0,1.0,-0.397437475586,-0.268150604204,-10.4578728516,1.0,0.0,0.0,0.0,1.0,0.0,0.0,0.0,1.0
1463663007834011257,657,1463663007546507694,,5.80747127533,-0.710608661175,-96.443939209,0.0101420003921,1.0,0.0,0.0,0.0,1.0,0.0,0.0,0.0,1.0,4.45121955872,-5.24390268326,2.74390244484,1.0,0.0,0.0,0.0,1.0,0.0,0.0,0.0,1.0,-0.421379492187,-0.201112939453,-10.4913916748,1.0,0.0,0.0,0.0,1.0,0.0,0.0,0.0,1.0
1463663007834067392,658,1463663007557202487,,5.85596179962,-0.74805611372,-96.79662323,0.0101389996707,1.0,0.0,0.0,0.0,1.0,0.0,0.0,0.0,1.0,4.69512224197,-5.06097555161,3.10975623131,1.0,0.0,0.0,0.0,1.0,0.0,0.0,0.0,1.0,-0.416591088867,-0.335188232422,-10.4530844482,1.0,0.0,0.0,0.0,1.0,0.0,0.0,0.0,1.0
1463663007834129100,659,1463663007567272659,,5.90255308151,-0.779724299908,-97.1453323364,0.0100309997797,1.0,0.0,0.0,0.0,1.0,0.0,0.0,0.0,1.0,4.69512224197,-4.87804889679,3.10975623131,1.0,0.0,0.0,0.0,1.0,0.0,0.0,0.0,1.0,-0.359130249023,-0.31124621582,-10.3333743652,1.0,0.0,0.0,0.0,1.0,0.0,0.0,0.0,1.0
1463663007834188255,660,1463663007577508894,,5.94812631607,-0.811116337776,-97.4945526123,0.0100990002975,1.0,0.0,0.0,0.0,1.0,0.0,0.0,0.0,1.0,4.87804889679,-4.32926845551,3.23170733452,1.0,0.0,0.0,0.0,1.0,0.0,0.0,0.0,1.0,-0.450109912109,-0.253785375977,-10.1466266357,1.0,0.0,0.0,0.0,1.0,0.0,0.0,0.0,1.0
1463663007834231893,661,1463663007586995427,,5.99938154221,-0.840412795544,-97.8500518799,0.0101049998775,1.0,0.0,0.0,0.0,1.0,0.0,0.0,0.0,1.0,5.12195110321,-4.20731735229,2.62195134163,1.0,0.0,0.0,0.0,1.0,0.0,0.0,0.0,1.0,-0.45968671875,-0.316034619141,-10.2136642822,1.0,0.0,0.0,0.0,1.0,0.0,0.0,0.0,1.0
1463663007834289746,662,1463663007597351587,,6.05138349533,-0.858560860157,-98.2077026367,0.010095000267,1.0,0.0,0.0,0.0,1.0,0.0,0.0,0.0,1.0,5.36585378647,-3.71951246262,2.31707310677,1.0,0.0,0.0,0.0,1.0,0.0,0.0,0.0,1.0,-0.359130249023,-0.287304199219,-10.046070166,1.0,0.0,0.0,0.0,1.0,0.0,0.0,0.0,1.0
1463663007834452892,663,1463663007607196958,,6.09743738174,-0.878584384918,-98.567565918,0.0100880004466,1.0,0.0,0.0,0.0,1.0,0.0,0.0,0.0,1.0,5.24390268326,-3.7804877758,2.07317066193,1.0,0.0,0.0,0.0,1.0,0.0,0.0,0.0,1.0,-0.402225878906,-0.215478149414,-10.2423947021,1.0,0.0,0.0,0.0,1.0,0.0,0.0,0.0,1.0
1463663007834496321,664,1463663007617367996,,6.14398813248,-0.899860203266,-98.9298400879,0.0101370001212,1.0,0.0,0.0,0.0,1.0,0.0,0.0,0.0,1.0,5.36585378647,-3.84146332741,2.01219511032,1.0,0.0,0.0,0.0,1.0,0.0,0.0,0.0,1.0,-0.416591088867,-0.201112939453,-10.1131078125,1.0,0.0,0.0,0.0,1.0,0.0,0.0,0.0,1.0
1463663007838299350,665,1463663007627215138,,6.18545866013,-0.92193621397,-99.2947845459,0.0100609995425,1.0,0.0,0.0,0.0,1.0,0.0,0.0,0.0,1.0,5.60975599289,-3.84146332741,1.46341466904,1.0,0.0,0.0,0.0,1.0,0.0,0.0,0.0,1.0,-0.450109912109,-0.076614453125,-10.0556469727,1.0,0.0,0.0,0.0,1.0,0.0,0.0,0.0,1.0
1463663007838373294,666,1463663007637527608,,6.22406435013,-0.94196587801,-99.6548919678,0.0101049998775,1.0,0.0,0.0,0.0,1.0,0.0,0.0,0.0,1.0,6.09756088257,-3.71951246262,2.07317066193,1.0,0.0,0.0,0.0,1.0,0.0,0.0,0.0,1.0,-0.430956298828,0.0574608398438,-10.0700121826,1.0,0.0,0.0,0.0,1.0,0.0,0.0,0.0,1.0
1463663007838416723,667,1463663007647935112,,6.25603628159,-0.958156943321,-100.012367249,0.0101180002093,1.0,0.0,0.0,0.0,1.0,0.0,0.0,0.0,1.0,6.7682929039,-3.35365867615,2.31707310677,1.0,0.0,0.0,0.0,1.0,0.0,0.0,0.0,1.0,-0.440533105469,0.296881024126,-10.3190091553,1.0,0.0,0.0,0.0,1.0,0.0,0.0,0.0,1.0
1463663007838455987,668,1463663007657877184,,6.32186937332,-0.957712650299,-100.373786926,0.0101049998775,1.0,0.0,0.0,0.0,1.0,0.0,0.0,0.0,1.0,9.32926845551,-3.35365867615,1.8902438879,1.0,0.0,0.0,0.0,1.0,0.0,0.0,0.0,1.0,-0.148440512063,0.138863696289,-9.68693991699,1.0,0.0,0.0,0.0,1.0,0.0,0.0,0.0,1.0
1463663007838632151,669,1463663007668421120,,6.37023448944,-0.969868063927,-100.725532532,0.0100769996643,1.0,0.0,0.0,0.0,1.0,0.0,0.0,0.0,1.0,9.63414573669,-2.43902444839,2.62195134163,1.0,0.0,0.0,0.0,1.0,0.0,0.0,0.0,1.0,-0.560243188477,0.521935925381,-10.6494089844,1.0,0.0,0.0,0.0,1.0,0.0,0.0,0.0,1.0
1463663007838786913,670,1463663007678402976,,6.44769191742,-0.984873175621,-101.076148987,0.0101849995553,1.0,0.0,0.0,0.0,1.0,0.0,0.0,0.0,1.0,12.3780488968,-2.5,3.10975623131,1.0,0.0,0.0,0.0,1.0,0.0,0.0,0.0,1.0,-0.588973571866,0.493205541992,-10.4818148682,1.0,0.0,0.0,0.0,1.0,0.0,0.0,0.0,1.0
1463663007842134143,671,1463663007688129671,,6.53410863876,-1.00136733055,-101.418159485,0.0100210001692,1.0,0.0,0.0,0.0,1.0,0.0,0.0,0.0,1.0,14.2682924271,-2.74390244484,3.41463422775,1.0,0.0,0.0,0.0,1.0,0.0,0.0,0.0,1.0,-0.584185168546,0.646434448242,-10.5296989014,1.0,0.0,0.0,0.0,1.0,0.0,0.0,0.0,1.0
1463663007842197152,672,1463663007698066952,,6.64685249329,-1.01936495304,-101.758850098,0.0101889995858,1.0,0.0,0.0,0.0,1.0,0.0,0.0,0.0,1.0,17.134147644,-2.62195134163,4.08536577225,1.0,0.0,0.0,0.0,1.0,0.0,0.0,0.0,1.0,-0.627280834961,0.708683691406,-10.5009684814,1.0,0.0,0.0,0.0,1.0,0.0,0.0,0.0,1.0
1463663007842242299,673,1463663007708547776,,6.77620697021,-1.0480376482,-102.08895874,0.0100079998374,1.0,0.0,0.0,0.0,1.0,0.0,0.0,0.0,1.0,20.0,-2.56097555161,4.51219558716,1.0,0.0,0.0,0.0,1.0,0.0,0.0,0.0,1.0,-0.895431420898,0.928950244141,-11.0420580566,1.0,0.0,0.0,0.0,1.0,0.0,0.0,0.0,1.0
1463663007842286249,674,1463663007718368100,,6.94904565811,-1.05942630768,-102.412666321,0.0100990002975,1.0,0.0,0.0,0.0,1.0,0.0,0.0,0.0,1.0,24.6341457367,-2.01219511032,5.36585378647,1.0,0.0,0.0,0.0,1.0,0.0,0.0,0.0,1.0,-0.627280834961,0.933738647461,-10.4435076416,1.0,0.0,0.0,0.0,1.0,0.0,0.0,0.0,1.0
1463663007842323951,675,1463663007728912140,,7.15729618073,-1.06060671806,-102.72718811,0.010111999698,1.0,0.0,0.0,0.0,1.0,0.0,0.0,0.0,1.0,29.4512195587,-1.46341466904,6.21951246262,1.0,0.0,0.0,0.0,1.0,0.0,0.0,0.0,1.0,-0.550666381836,1.16837033709,-10.5871597412,1.0,0.0,0.0,0.0,1.0,0.0,0.0,0.0,1.0
1463663007842360558,676,1463663007739504088,,7.42700958252,-1.05481219292,-103.032669067,0.0101629998535,1.0,0.0,0.0,0.0,1.0,0.0,0.0,0.0,1.0,35.6707344055,-0.975609779358,7.19512224197,1.0,0.0,0.0,0.0,1.0,0.0,0.0,0.0,1.0,-0.507570751953,1.16358193377,-10.4626612549,1.0,0.0,0.0,0.0,1.0,0.0,0.0,0.0,1.0
1463663007842393469,677,1463663007748770715,,7.75058078766,-1.03688824177,-103.32434082,0.0100250001997,1.0,0.0,0.0,0.0,1.0,0.0,0.0,0.0,1.0,42.1951255798,0.18292683363,7.98780536652,1.0,0.0,0.0,0.0,1.0,0.0,0.0,0.0,1.0,-0.512359155273,1.28329208984,-10.658985791,1.0,0.0,0.0,0.0,1.0,0.0,0.0,0.0,1.0
1463663007842430128,678,1463663007759378286,,8.14417552948,-1.02267765999,-103.612045288,0.0100959995762,1.0,0.0,0.0,0.0,1.0,0.0,0.0,0.0,1.0,49.7560997009,-0.12195122242,8.59756088257,1.0,0.0,0.0,0.0,1.0,0.0,0.0,0.0,1.0,-0.536301208408,1.36948334961,-10.5344873047,1.0,0.0,0.0,0.0,1.0,0.0,0.0,0.0,1.0
1463663007842462883,679,1463663007769430909,,8.61368179321,-0.992476522923,-103.89276123,0.0101380003616,1.0,0.0,0.0,0.0,1.0,0.0,0.0,0.0,1.0,58.2317085266,0.975609779358,9.20731735229,1.0,0.0,0.0,0.0,1.0,0.0,0.0,0.0,1.0,-0.45968671875,1.49398183594,-10.3908352051,1.0,0.0,0.0,0.0,1.0,0.0,0.0,0.0,1.0
1463663007842493450,680,1463663007780402056,,9.17230606079,-0.9602175951,-104.155586243,0.0100790001452,1.0,0.0,0.0,0.0,1.0,0.0,0.0,0.0,1.0,66.0365829468,1.58536589146,10.7317075729,1.0,0.0,0.0,0.0,1.0,0.0,0.0,0.0,1.0,-0.517147558594,1.12527478027,-10.2040874756,1.0,0.0,0.0,0.0,1.0,0.0,0.0,0.0,1.0
1463663007842701691,681,1463663007789122901,,9.78039550781,-0.923579752445,-104.407707214,0.0101159997284,1.0,0.0,0.0,0.0,1.0,0.0,0.0,0.0,1.0,72.8048782349,2.25609779358,11.7073173523,1.0,0.0,0.0,0.0,1.0,0.0,0.0,0.0,1.0,-0.584185168546,1.43652099609,-10.3764699951,1.0,0.0,0.0,0.0,1.0,0.0,0.0,0.0,1.0
1463663007842755535,682,1463663007803619889,,10.4580497742,-0.887095987797,-104.64756012,0.0101199997589,1.0,0.0,0.0,0.0,1.0,0.0,0.0,0.0,1.0,79.8170776367,2.01219511032,12.9268293381,1.0,0.0,0.0,0.0,1.0,0.0,0.0,0.0,1.0,-0.531512805087,1.30723410645,-10.060435376,1.0,0.0,0.0,0.0,1.0,0.0,0.0,0.0,1.0
1463663007843481387,683,1463663007810848518,,11.2394618988,-0.869545459747,-104.870185852,0.0100859999657,1.0,0.0,0.0,0.0,1.0,0.0,0.0,0.0,1.0,87.1951217651,1.70731711388,14.6341466904,1.0,0.0,0.0,0.0,1.0,0.0,0.0,0.0,1.0,-0.799663354492,0.598550451572,-10.0412817627,1.0,0.0,0.0,0.0,1.0,0.0,0.0,0.0,1.0
1463663007843544917,684,1463663007820544959,,12.1062278748,-0.839195132256,-105.083953857,0.0104620000347,1.0,0.0,0.0,0.0,1.0,0.0,0.0,0.0,1.0,91.0975646973,0.914634168148,16.4024391174,1.0,0.0,0.0,0.0,1.0,0.0,0.0,0.0,1.0,-0.450109912109,0.181959326172,-10.1705686523,1.0,0.0,0.0,0.0,1.0,0.0,0.0,0.0,1.0
1463663007843587617,685,1463663007829995249,,12.9510707855,-0.818887710571,-105.275085449,0.00972700025886,1.0,0.0,0.0,0.0,1.0,0.0,0.0,0.0,1.0,94.8170700073,0.426829278469,17.2560977936,1.0,0.0,0.0,0.0,1.0,0.0,0.0,0.0,1.0,-0.526724328702,-0.0287304199219,-10.1562034424,1.0,0.0,0.0,0.0,1.0,0.0,0.0,0.0,1.0
1463663008753428720,686,1463663007840870737,,13.8563899994,-0.797867894173,-105.470657349,0.0102399997413,1.0,0.0,0.0,0.0,1.0,0.0,0.0,0.0,1.0,96.8292694092,-0.609756112099,17.9878044128,1.0,0.0,0.0,0.0,1.0,0.0,0.0,0.0,1.0,-0.373495458984,-0.100556469727,-10.1992990723,1.0,0.0,0.0,0.0,1.0,0.0,0.0,0.0,1.0
1463663008753760428,687,1463663007850653620,,14.7979650497,-0.776717483997,-105.663589478,0.0102300001308,1.0,0.0,0.0,0.0,1.0,0.0,0.0,0.0,1.0,99.3902435303,-0.731707334518,18.2317085266,1.0,0.0,0.0,0.0,1.0,0.0,0.0,0.0,1.0,-0.383072265625,-0.450109912109,-9.96945571289,1.0,0.0,0.0,0.0,1.0,0.0,0.0,0.0,1.0
1463663008753839892,688,1463663007859789334,,15.7186756134,-0.760220646858,-105.846511841,0.0098249996081,1.0,0.0,0.0,0.0,1.0,0.0,0.0,0.0,1.0,100.487808228,-0.426829278469,18.3536586761,1.0,0.0,0.0,0.0,1.0,0.0,0.0,0.0,1.0,-0.545877978516,-0.713472094727,-9.89762966309,1.0,0.0,0.0,0.0,1.0,0.0,0.0,0.0,1.0
1463663008759690294,689,1463663007870578328,,16.7049999237,-0.739133179188,-106.049484253,0.0101290000603,1.0,0.0,0.0,0.0,1.0,0.0,0.0,0.0,1.0,102.439025879,0.243902444839,16.6463413239,1.0,0.0,0.0,0.0,1.0,0.0,0.0,0.0,1.0,-0.727837304687,-1.17794714373,-9.89284125977,1.0,0.0,0.0,0.0,1.0,0.0,0.0,0.0,1.0
1463663008760028511,690,1463663007880390112,,17.7122631073,-0.687194108963,-106.268302917,0.0100760003552,1.0,0.0,0.0,0.0,1.0,0.0,0.0,0.0,1.0,103.414634705,2.01219511032,14.2682924271,1.0,0.0,0.0,0.0,1.0,0.0,0.0,0.0,1.0,-0.641646044922,-1.57059628906,-9.46188437642,1.0,0.0,0.0,0.0,1.0,0.0,0.0,0.0,1.0
1463663008760372092,691,1463663007890486842,,18.7072086334,-0.621379256248,-106.490577698,0.0101810004562,1.0,0.0,0.0,0.0,1.0,0.0,0.0,0.0,1.0,103.292686462,3.71951246262,13.4146347046,1.0,0.0,0.0,0.0,1.0,0.0,0.0,0.0,1.0,-0.818816967773,-1.42215578613,-9.77313117676,1.0,0.0,0.0,0.0,1.0,0.0,0.0,0.0,1.0
1463663008760734836,692,1463663007900084343,,19.7265796661,-0.509411633015,-106.722595215,0.0100189996883,1.0,0.0,0.0,0.0,1.0,0.0,0.0,0.0,1.0,104.634147644,6.21951246262,10.9756097794,1.0,0.0,0.0,0.0,1.0,0.0,0.0,0.0,1.0,-0.588973571866,-2.01112939453,-9.41878874653,1.0,0.0,0.0,0.0,1.0,0.0,0.0,0.0,1.0
1463663008761046964,693,1463663007910792363,,20.7527370453,-0.366781949997,-106.967460632,0.0100910002366,1.0,0.0,0.0,0.0,1.0,0.0,0.0,0.0,1.0,104.024391174,8.29268264771,8.78048801422,1.0,0.0,0.0,0.0,1.0,0.0,0.0,0.0,1.0,-0.603338854892,-2.30322199707,-9.4570959731,1.0,0.0,0.0,0.0,1.0,0.0,0.0,0.0,1.0
1463663008761367112,694,1463663007921037867,,21.7882194519,-0.196564689279,-107.218421936,0.0101129999384,1.0,0.0,0.0,0.0,1.0,0.0,0.0,0.0,1.0,103.841468811,9.87804889679,7.25609779358,1.0,0.0,0.0,0.0,1.0,0.0,0.0,0.0,1.0,-0.536301208408,-2.61925661621,-9.32780908345,1.0,0.0,0.0,0.0,1.0,0.0,0.0,0.0,1.0
1463663008761677626,695,1463663007931345338,,22.8446369171,-0.0115421656519,-107.485343933,0.010111999698,1.0,0.0,0.0,0.0,1.0,0.0,0.0,0.0,1.0,103.10975647,10.7926826477,4.81707286835,1.0,0.0,0.0,0.0,1.0,0.0,0.0,0.0,1.0,-0.646434448242,-3.30399829102,-9.25119521484,1.0,0.0,0.0,0.0,1.0,0.0,0.0,0.0,1.0
1463663008761993712,696,1463663007941091196,,23.8720397949,0.206646114588,-107.748664856,0.010106000118,1.0,0.0,0.0,0.0,1.0,0.0,0.0,0.0,1.0,99.6951217651,12.3170728683,4.08536577225,1.0,0.0,0.0,0.0,1.0,0.0,0.0,0.0,1.0,-0.416591088867,-3.57693728027,-9.11711992188,1.0,0.0,0.0,0.0,1.0,0.0,0.0,0.0,1.0
1463663008762261213,697,1463663007950773734,,24.8749542236,0.444142609835,-108.018585205,0.010108999908,1.0,0.0,0.0,0.0,1.0,0.0,0.0,0.0,1.0,96.2804870605,13.3536586761,2.43902444839,1.0,0.0,0.0,0.0,1.0,0.0,0.0,0.0,1.0,-0.416591088867,-3.97916315918,-9.13627353516,1.0,0.0,0.0,0.0,1.0,0.0,0.0,0.0,1.0
1463663008762308288,698,1463663007961274137,,25.8185024261,0.693706333637,-108.294662476,0.010153000243,1.0,0.0,0.0,0.0,1.0,0.0,0.0,0.0,1.0,91.2195129395,13.1097564697,1.52439022064,1.0,0.0,0.0,0.0,1.0,0.0,0.0,0.0,1.0,-0.296881024126,-4.01747038574,-9.27034882812,1.0,0.0,0.0,0.0,1.0,0.0,0.0,0.0,1.0
1463663008762631508,699,1463663007972134524,,26.7840652466,0.974701344967,-108.601371765,0.0107469996437,1.0,0.0,0.0,0.0,1.0,0.0,0.0,0.0,1.0,89.0243911743,13.1707324982,-0.487804889679,1.0,0.0,0.0,0.0,1.0,0.0,0.0,0.0,1.0,-0.220266552734,-4.0078935791,-9.16500395508,1.0,0.0,0.0,0.0,1.0,0.0,0.0,0.0,1.0
1463663008762904841,700,1463663007981291432,,27.6449451447,1.2227846384,-108.888511658,0.00942400004715,1.0,0.0,0.0,0.0,1.0,0.0,0.0,0.0,1.0,88.5975646973,12.5609760284,-2.86585378647,1.0,0.0,0.0,0.0,1.0,0.0,0.0,0.0,1.0,-0.316034619141,-4.50109912109,-8.94473740234,1.0,0.0,0.0,0.0,1.0,0.0,0.0,0.0,1.0
1463663008763168802,701,1463663007991355928,,28.5741977692,1.5024176836,-109.219413757,0.0103460000828,1.0,0.0,0.0,0.0,1.0,0.0,0.0,0.0,1.0,87.1951217651,11.4634151459,-4.51219558716,1.0,0.0,0.0,0.0,1.0,0.0,0.0,0.0,1.0,-0.201112939453,-4.72615378489,-9.03092866211,1.0,0.0,0.0,0.0,1.0,0.0,0.0,0.0,1.0
1463663008763462496,702,1463663008009081731,,29.5378913879,1.81903123856,-109.600708008,0.0123840002343,1.0,0.0,0.0,0.0,1.0,0.0,0.0,0.0,1.0,79.0853652954,10.6097564697,-3.10975623131,1.0,0.0,0.0,0.0,1.0,0.0,0.0,0.0,1.0,-0.239420166016,-4.04141240234,-8.76756647949,1.0,0.0,0.0,0.0,1.0,0.0,0.0,0.0,1.0
1463663008763728748,703,1463663008014969367,,30.296913147,2.06479120255,-109.884216309,0.0093339998275,1.0,0.0,0.0,0.0,1.0,0.0,0.0,0.0,1.0,80.2439041138,10.6707315445,-3.23170733452,1.0,0.0,0.0,0.0,1.0,0.0,0.0,0.0,1.0,-0.15801730957,-4.75009638601,-8.84896933594,1.0,0.0,0.0,0.0,1.0,0.0,0.0,0.0,1.0
1463663008763989792,704,1463663008025137546,,30.9973545074,2.31070208549,-110.141212463,0.00875000003725,1.0,0.0,0.0,0.0,1.0,0.0,0.0,0.0,1.0,75.3048782349,10.1829271317,-2.37804889679,1.0,0.0,0.0,0.0,1.0,0.0,0.0,0.0,1.0,0.292092584273,-5.60243188477,-8.69574042969,1.0,0.0,0.0,0.0,1.0,0.0,0.0,0.0,1.0
1463663008764285621,705,1463663008032096175,,31.7533855438,2.58119392395,-110.427024841,0.0103080002591,1.0,0.0,0.0,0.0,1.0,0.0,0.0,0.0,1.0,70.4878082275,9.5731716156,-0.426829278469,1.0,0.0,0.0,0.0,1.0,0.0,0.0,0.0,1.0,0.215478149414,-5.56891306152,-9.03571706543,1.0,0.0,0.0,0.0,1.0,0.0,0.0,0.0,1.0
1463663008764599624,706,1463663008041630566,,32.4330024719,2.83959078789,-110.678245544,0.009445999749,1.0,0.0,0.0,0.0,1.0,0.0,0.0,0.0,1.0,66.4024353027,10.1219511032,-0.0,1.0,0.0,0.0,0.0,1.0,0.0,0.0,0.0,1.0,0.363918652344,-6.10042583008,-8.64785698101,1.0,0.0,0.0,0.0,1.0,0.0,0.0,0.0,1.0
1463663008764874572,707,1463663008052134305,,33.130821228,3.10897898674,-110.957939148,0.0106990002096,1.0,0.0,0.0,0.0,1.0,0.0,0.0,0.0,1.0,57.6829299927,8.90243911743,0.792682945728,1.0,0.0,0.0,0.0,1.0,0.0,0.0,0.0,1.0,0.229843359375,-6.93360800781,-8.87291135254,1.0,0.0,0.0,0.0,1.0,0.0,0.0,0.0,1.0
1463663008764939716,708,1463663008061582724,,33.656463623,3.34637093544,-111.200744629,0.00951300002635,1.0,0.0,0.0,0.0,1.0,0.0,0.0,0.0,1.0,47.0731697083,7.07317113876,2.31707310677,1.0,0.0,0.0,0.0,1.0,0.0,0.0,0.0,1.0,0.632069238281,-6.93360800781,-8.42758925923,1.0,0.0,0.0,0.0,1.0,0.0,0.0,0.0,1.0
1463663008765245908,709,1463663008088226842,,33.9756240845,3.5614259243,-111.526351929,0.0114540001377,1.0,0.0,0.0,0.0,1.0,0.0,0.0,0.0,1.0,20.9146347046,1.46341466904,2.43902444839,1.0,0.0,0.0,0.0,1.0,0.0,0.0,0.0,1.0,0.387860668945,-7.39329472656,-9.13148513184,1.0,0.0,0.0,0.0,1.0,0.0,0.0,0.0,1.0
1463663008769452767,710,1463663008098849204,,34.2917327881,3.86705422401,-112.06073761,0.0172489993274,1.0,0.0,0.0,0.0,1.0,0.0,0.0,0.0,1.0,10.6097564697,-0.609756112099,0.548780500889,1.0,0.0,0.0,0.0,1.0,0.0,0.0,0.0,1.0,0.316034619141,-7.68059892578,-9.02614025879,1.0,0.0,0.0,0.0,1.0,0.0,0.0,0.0,1.0
1463663008769865085,711,1463663008102694517,,34.4388809204,4.05361652374,-112.408073425,0.0109320003539,1.0,0.0,0.0,0.0,1.0,0.0,0.0,0.0,1.0,5.06097555161,-1.40243899822,-0.0609756112099,1.0,0.0,0.0,0.0,1.0,0.0,0.0,0.0,1.0,0.282515795898,-7.967903125,-8.97346782227,1.0,0.0,0.0,0.0,1.0,0.0,0.0,0.0,1.0
1463663008770167580,712,1463663008106521032,,34.4694366455,4.11896753311,-112.534011841,0.00386600010097,1.0,0.0,0.0,0.0,1.0,0.0,0.0,0.0,1.0,0.0609756112099,-2.13414645195,-0.548780500889,1.0,0.0,0.0,0.0,1.0,0.0,0.0,0.0,1.0,0.349553442383,-7.99663354492,-9.09796630859,1.0,0.0,0.0,0.0,1.0,0.0,0.0,0.0,1.0
1463663008770474657,713,1463663008112172773,,34.4784011841,4.24016427994,-112.770317078,0.00698000006378,1.0,0.0,0.0,0.0,1.0,0.0,0.0,0.0,1.0,-7.31707334518,-2.74390244484,-1.76829278469,1.0,0.0,0.0,0.0,1.0,0.0,0.0,0.0,1.0,0.430956298828,-8.42280085591,-9.2655604248,1.0,0.0,0.0,0.0,1.0,0.0,0.0,0.0,1.0
1463663008770776319,714,1463663008122781909,,34.3382835388,4.41239881516,-113.133827209,0.0101490002126,1.0,0.0,0.0,0.0,1.0,0.0,0.0,0.0,1.0,-22.6219520569,-5.06097555161,-2.56097555161,1.0,0.0,0.0,0.0,1.0,0.0,0.0,0.0,1.0,0.694318481445,-8.41801245259,-9.10754311523,1.0,0.0,0.0,0.0,1.0,0.0,0.0,0.0,1.0
1463663008771078241,715,1463663008132667432,,34.0563468933,4.57208204269,-113.52167511,0.0101359998807,1.0,0.0,0.0,0.0,1.0,0.0,0.0,0.0,1.0,-36.1585350037,-6.58536624908,-4.39024400711,1.0,0.0,0.0,0.0,1.0,0.0,0.0,0.0,1.0,0.541089611728,-8.31745598286,-9.10275471191,1.0,0.0,0.0,0.0,1.0,0.0,0.0,0.0,1.0
1463663008771389328,716,1463663008142605341,,33.6449203491,4.71503591537,-113.932868958,0.0100269997492,1.0,0.0,0.0,0.0,1.0,0.0,0.0,0.0,1.0,-50.2439041138,-9.20731735229,-5.91463422775,1.0,0.0,0.0,0.0,1.0,0.0,0.0,0.0,1.0,0.588973571866,-8.52335849468,-9.02614025879,1.0,0.0,0.0,0.0,1.0,0.0,0.0,0.0,1.0
1463663008771766131,717,1463663008157828133,,33.0215873718,4.85900449753,-114.392303467,0.0103249996901,1.0,0.0,0.0,0.0,1.0,0.0,0.0,0.0,1.0,-69.1463470459,-10.7317075729,-8.90243911743,1.0,0.0,0.0,0.0,1.0,0.0,0.0,0.0,1.0,0.536301208408,-8.22168850098,-8.84896933594,1.0,0.0,0.0,0.0,1.0,0.0,0.0,0.0,1.0
1463663008771812789,718,1463663008163885944,,32.2803115845,4.99552488327,-114.89151001,0.0105130001903,1.0,0.0,0.0,0.0,1.0,0.0,0.0,0.0,1.0,-78.7195129395,-12.0731716156,-11.341463089,1.0,0.0,0.0,0.0,1.0,0.0,0.0,0.0,1.0,0.435744702148,-8.08282480469,-8.9591026123,1.0,0.0,0.0,0.0,1.0,0.0,0.0,0.0,1.0
1463663008772149496,719,1463663008173115393,,31.496799469,5.1210899353,-115.377929688,0.00945799984038,1.0,0.0,0.0,0.0,1.0,0.0,0.0,0.0,1.0,-90.1829299927,-13.1707324982,-15.0000009537,1.0,0.0,0.0,0.0,1.0,0.0,0.0,0.0,1.0,0.435744702148,-7.65665690918,-8.84418093262,1.0,0.0,0.0,0.0,1.0,0.0,0.0,0.0,1.0
1463663008772419705,720,1463663008182834229,,30.5227661133,5.2489938736,-115.944244385,0.010098000057,1.0,0.0,0.0,0.0,1.0,0.0,0.0,0.0,1.0,-100.975616455,-14.6951217651,-18.9634151459,1.0,0.0,0.0,0.0,1.0,0.0,0.0,0.0,1.0,0.344765039063,-7.00543405762,-9.05008227539,1.0,0.0,0.0,0.0,1.0,0.0,0.0,0.0,1.0
1463663008772710484,721,1463663008193147379,,29.4357776642,5.37496852875,-116.568351746,0.0101070003584,1.0,0.0,0.0,0.0,1.0,0.0,0.0,0.0,1.0,-111.219512939,-16.2804889679,-24.2073173523,1.0,0.0,0.0,0.0,1.0,0.0,0.0,0.0,1.0,0.277727392578,-6.72770666504,-9.07402429199,1.0,0.0,0.0,0.0,1.0,0.0,0.0,0.0,1.0
1463663008777787542,722,1463663008203138194,,28.2348747253,5.4878320694,-117.254234314,0.0101159997284,1.0,0.0,0.0,0.0,1.0,0.0,0.0,0.0,1.0,-120.121955872,-17.6219520569,-29.8170719147,1.0,0.0,0.0,0.0,1.0,0.0,0.0,0.0,1.0,-0.0143652099609,-6.03338818359,-8.99262143555,1.0,0.0,0.0,0.0,1.0,0.0,0.0,0.0,1.0
1463663008778192518,723,1463663008213477173,,26.9363651276,5.59725189209,-117.99546051,0.0101009998471,1.0,0.0,0.0,0.0,1.0,0.0,0.0,0.0,1.0,-127.682929993,-18.2317085266,-35.1829299927,1.0,0.0,0.0,0.0,1.0,0.0,0.0,0.0,1.0,-0.138863696289,-5.42526096191,-9.02614025879,1.0,0.0,0.0,0.0,1.0,0.0,0.0,0.0,1.0
1463663008778472256,724,1463663008223601556,,25.5699119568,5.69196605682,-118.78981781,0.0100929997861,1.0,0.0,0.0,0.0,1.0,0.0,0.0,0.0,1.0,-132.5,-18.2926826477,-40.4878044128,1.0,0.0,0.0,0.0,1.0,0.0,0.0,0.0,1.0,-0.483628735352,-4.83149924246,-8.96867941895,1.0,0.0,0.0,0.0,1.0,0.0,0.0,0.0,1.0
1463663008778800475,725,1463663008233566908,,24.1287403107,5.80081224442,-119.635223389,0.0101290000603,1.0,0.0,0.0,0.0,1.0,0.0,0.0,0.0,1.0,-137.256103516,-17.8658542633,-45.2439041138,1.0,0.0,0.0,0.0,1.0,0.0,0.0,0.0,1.0,-0.296881024126,-4.26646765066,-8.99262143555,1.0,0.0,0.0,0.0,1.0,0.0,0.0,0.0,1.0
1463663008779113385,726,1463663008244279930,,22.6334915161,5.90226888657,-120.520530701,0.0100809996948,1.0,0.0,0.0,0.0,1.0,0.0,0.0,0.0,1.0,-141.036590576,-17.317073822,-49.5121955872,1.0,0.0,0.0,0.0,1.0,0.0,0.0,0.0,1.0,-0.402225878906,-3.67270534668,-8.98783303223,1.0,0.0,0.0,0.0,1.0,0.0,0.0,0.0,1.0
1463663008780549936,727,1463663008253633679,,21.0905914307,5.98809623718,-121.439788818,0.0100840004161,1.0,0.0,0.0,0.0,1.0,0.0,0.0,0.0,1.0,-143.963424683,-18.1707305908,-52.0731697083,1.0,0.0,0.0,0.0,1.0,0.0,0.0,0.0,1.0,-0.277727392578,-3.17949980469,-9.01656345215,1.0,0.0,0.0,0.0,1.0,0.0,0.0,0.0,1.0
1463663008780601749,728,1463663008263667298,,19.5024852753,6.0645699501,-122.392349243,0.0101389996707,1.0,0.0,0.0,0.0,1.0,0.0,0.0,0.0,1.0,-145.487808228,-18.1097564697,-54.390247345,1.0,0.0,0.0,0.0,1.0,0.0,0.0,0.0,1.0,-0.15322890625,-2.61925661621,-9.04529387207,1.0,0.0,0.0,0.0,1.0,0.0,0.0,0.0,1.0
1463663008780912263,729,1463663008275823589,,17.5733222961,6.08284330368,-123.543884277,0.0120270000771,1.0,0.0,0.0,0.0,1.0,0.0,0.0,0.0,1.0,-146.829269409,-19.817073822,-55.0609779358,1.0,0.0,0.0,0.0,1.0,0.0,0.0,0.0,1.0,-0.435744702148,-1.99197578125,-9.11711992188,1.0,0.0,0.0,0.0,1.0,0.0,0.0,0.0,1.0
1463663008781189554,730,1463663008283857692,,16.2612323761,6.06680727005,-124.331245422,0.00819000042975,1.0,0.0,0.0,0.0,1.0,0.0,0.0,0.0,1.0,-147.439025879,-20.1829280853,-55.1219520569,1.0,0.0,0.0,0.0,1.0,0.0,0.0,0.0,1.0,-0.502782348633,-1.79565124512,-9.02614025879,1.0,0.0,0.0,0.0,1.0,0.0,0.0,0.0,1.0
1463663008781462419,731,1463663008293927554,,14.6215991974,5.99682760239,-125.285118103,0.0100589999929,1.0,0.0,0.0,0.0,1.0,0.0,0.0,0.0,1.0,-148.780502319,-20.9146347046,-53.2926864624,1.0,0.0,0.0,0.0,1.0,0.0,0.0,0.0,1.0,-0.742202514648,-1.32638771973,-9.20331118164,1.0,0.0,0.0,0.0,1.0,0.0,0.0,0.0,1.0
1463663008781748406,732,1463663008304064852,,12.9121274948,5.9093132019,-126.223495483,0.0100880004466,1.0,0.0,0.0,0.0,1.0,0.0,0.0,0.0,1.0,-150.304885864,-20.975610733,-50.7926826477,1.0,0.0,0.0,0.0,1.0,0.0,0.0,0.0,1.0,-0.493205541992,-0.181959326172,-9.33738589009,1.0,0.0,0.0,0.0,1.0,0.0,0.0,0.0,1.0
1463663008782061160,733,1463663008314146067,,11.2496681213,5.77684020996,-127.135635376,0.0101070003584,1.0,0.0,0.0,0.0,1.0,0.0,0.0,0.0,1.0,-147.682922363,-22.7439041138,-47.8658561707,1.0,0.0,0.0,0.0,1.0,0.0,0.0,0.0,1.0,-0.392649072266,-0.220266552734,-9.14106193848,1.0,0.0,0.0,0.0,1.0,0.0,0.0,0.0,1.0
1463663008782405365,734,1463663008325021663,,9.60682964325,5.58538913727,-128.00440979,0.010156000033,1.0,0.0,0.0,0.0,1.0,0.0,0.0,0.0,1.0,-145.792678833,-22.9878044128,-43.3536567688,1.0,0.0,0.0,0.0,1.0,0.0,0.0,0.0,1.0,-0.775721337891,0.0335188255255,-9.27513723145,1.0,0.0,0.0,0.0,1.0,0.0,0.0,0.0,1.0
1463663008782697289,735,1463663008334674001,,8.00258827209,5.36718320847,-128.81578064,0.0100619997829,1.0,0.0,0.0,0.0,1.0,0.0,0.0,0.0,1.0,-144.573181152,-24.2073173523,-38.5975608826,1.0,0.0,0.0,0.0,1.0,0.0,0.0,0.0,1.0,-0.555454785156,0.239420166016,-9.21288798828,1.0,0.0,0.0,0.0,1.0,0.0,0.0,0.0,1.0
1463663008782954740,736,1463663008346747651,,6.45291185379,5.12073326111,-129.577590942,0.0100849997252,1.0,0.0,0.0,0.0,1.0,0.0,0.0,0.0,1.0,-141.219512939,-23.9634151459,-34.1463432312,1.0,0.0,0.0,0.0,1.0,0.0,0.0,0.0,1.0,-0.60812722168,0.220266552734,-8.91600698242,1.0,0.0,0.0,0.0,1.0,0.0,0.0,0.0,1.0
1463663008783239009,737,1463663008354712496,,4.95455312729,4.84587860107,-130.299041748,0.0100880004466,1.0,0.0,0.0,0.0,1.0,0.0,0.0,0.0,1.0,-138.84147644,-23.7804889679,-30.8536605835,1.0,0.0,0.0,0.0,1.0,0.0,0.0,0.0,1.0,-0.756567724609,0.134075302102,-8.95431420898,1.0,0.0,0.0,0.0,1.0,0.0,0.0,0.0,1.0
1463663008783518488,738,1463663008365178117,,3.41820049286,4.54989957809,-130.976043701,0.0101760001853,1.0,0.0,0.0,0.0,1.0,0.0,0.0,0.0,1.0,-137.682937622,-23.475610733,-26.0975627899,1.0,0.0,0.0,0.0,1.0,0.0,0.0,0.0,1.0,-0.852335791016,1.14442839355,-9.4570959731,1.0,0.0,0.0,0.0,1.0,0.0,0.0,0.0,1.0
1463663008783798955,739,1463663008374939757,,1.9307090044,4.23693275452,-131.592391968,0.0100279999897,1.0,0.0,0.0,0.0,1.0,0.0,0.0,0.0,1.0,-134.45123291,-22.3780498505,-21.6463432312,1.0,0.0,0.0,0.0,1.0,0.0,0.0,0.0,1.0,-1.13006318359,1.63284553223,-9.39005832661,1.0,0.0,0.0,0.0,1.0,0.0,0.0,0.0,1.0
1463663008788484682,740,1463663008385199323,,0.451507210732,3.91875338554,-132.187896729,0.0101159997284,1.0,0.0,0.0,0.0,1.0,0.0,0.0,0.0,1.0,-130.67074585,-20.975610733,-19.5731716156,1.0,0.0,0.0,0.0,1.0,0.0,0.0,0.0,1.0,-1.22104284668,2.29843359375,-9.44273076313,1.0,0.0,0.0,0.0,1.0,0.0,0.0,0.0,1.0
1463663008788892470,741,1463663008395130567,,-0.981354951859,3.60422301292,-132.736968994,0.0100899999961,1.0,0.0,0.0,0.0,1.0,0.0,0.0,0.0,1.0,-126.28049469,-19.2073173523,-15.7317075729,1.0,0.0,0.0,0.0,1.0,0.0,0.0,0.0,1.0,-1.28808049316,2.6862942627,-9.36132790669,1.0,0.0,0.0,0.0,1.0,0.0,0.0,0.0,1.0
1463663008789306402,742,1463663008405507663,,-2.34463453293,3.31284713745,-133.250274658,0.0101140001789,1.0,0.0,0.0,0.0,1.0,0.0,0.0,0.0,1.0,-121.036590576,-15.4878053665,-12.6829271317,1.0,0.0,0.0,0.0,1.0,0.0,0.0,0.0,1.0,-1.36469494629,2.67192905273,-9.38048151997,1.0,0.0,0.0,0.0,1.0,0.0,0.0,0.0,1.0
1463663008789364880,743,1463663008415552583,,-3.66536784172,3.04338383675,-133.743850708,0.0101079996675,1.0,0.0,0.0,0.0,1.0,0.0,0.0,0.0,1.0,-115.670730591,-12.7439022064,-11.0365858078,1.0,0.0,0.0,0.0,1.0,0.0,0.0,0.0,1.0,-1.31681091309,3.13161577148,-9.1219083252,1.0,0.0,0.0,0.0,1.0,0.0,0.0,0.0,1.0
1463663008791949338,744,1463663008425397801,,-4.89754199982,2.79446053505,-134.228240967,0.010108999908,1.0,0.0,0.0,0.0,1.0,0.0,0.0,0.0,1.0,-108.841461182,-10.548781395,-10.4878053665,1.0,0.0,0.0,0.0,1.0,0.0,0.0,0.0,1.0,-1.23061965332,3.12203896484,-9.35653950337,1.0,0.0,0.0,0.0,1.0,0.0,0.0,0.0,1.0
1463663008792245063,745,1463663008435350134,,-6.08917379379,2.5526368618,-134.684829712,0.0100990002975,1.0,0.0,0.0,0.0,1.0,0.0,0.0,0.0,1.0,-104.085365295,-8.47560977936,-7.92682981491,1.0,0.0,0.0,0.0,1.0,0.0,0.0,0.0,1.0,-1.41736738281,3.60087929687,-9.39484672993,1.0,0.0,0.0,0.0,1.0,0.0,0.0,0.0,1.0
1463663008792526885,746,1463663008445602931,,-7.20109128952,2.33215785027,-135.110290527,0.0101049998775,1.0,0.0,0.0,0.0,1.0,0.0,0.0,0.0,1.0,-96.6463394165,-6.52439069748,-4.93902444839,1.0,0.0,0.0,0.0,1.0,0.0,0.0,0.0,1.0,-1.35511813965,3.84508786621,-9.55765361187,1.0,0.0,0.0,0.0,1.0,0.0,0.0,0.0,1.0
1463663008792820892,747,1463663008455556670,,-8.20704841614,2.13872909546,-135.527145386,0.0100619997829,1.0,0.0,0.0,0.0,1.0,0.0,0.0,0.0,1.0,-87.8048782349,-3.71951246262,-4.20731735229,1.0,0.0,0.0,0.0,1.0,0.0,0.0,0.0,1.0,-1.34075292969,3.9600095459,-9.84495722656,1.0,0.0,0.0,0.0,1.0,0.0,0.0,0.0,1.0
1463663008793170097,748,1463663008466329837,,-9.12164974213,1.9519431591,-135.931060791,0.0101389996707,1.0,0.0,0.0,0.0,1.0,0.0,0.0,0.0,1.0,-78.841468811,-3.04878044128,-2.74390244484,1.0,0.0,0.0,0.0,1.0,0.0,0.0,0.0,1.0,-1.28329208984,4.09408483887,-10.0029745361,1.0,0.0,0.0,0.0,1.0,0.0,0.0,0.0,1.0
1463663008793463583,749,1463663008475669577,,-9.95034599304,1.79639387131,-136.313339233,0.0100710000843,1.0,0.0,0.0,0.0,1.0,0.0,0.0,0.0,1.0,-71.158531189,-0.487804889679,-0.609756112099,1.0,0.0,0.0,0.0,1.0,0.0,0.0,0.0,1.0,-1.16837033709,4.18985261301,-9.82580361328,1.0,0.0,0.0,0.0,1.0,0.0,0.0,0.0,1.0
1463663008793738478,750,1463663008486061046,,-10.6695613861,1.65553462505,-136.689376831,0.010111999698,1.0,0.0,0.0,0.0,1.0,0.0,0.0,0.0,1.0,-61.6463394165,1.2804877758,0.304878056049,1.0,0.0,0.0,0.0,1.0,0.0,0.0,0.0,1.0,-1.17315874041,4.06056601562,-9.88805285645,1.0,0.0,0.0,0.0,1.0,0.0,0.0,0.0,1.0
1463663008794007802,751,1463663008495946308,,-11.3110456467,1.52018272877,-137.043411255,0.0101349996403,1.0,0.0,0.0,0.0,1.0,0.0,0.0,0.0,1.0,-53.4756126404,1.8902438879,2.62195134163,1.0,0.0,0.0,0.0,1.0,0.0,0.0,0.0,1.0,-1.22583125,4.34308181152,-9.95987890625,1.0,0.0,0.0,0.0,1.0,0.0,0.0,0.0,1.0
1463663008794371379,752,1463663008506100218,,-11.8620529175,1.40587997437,-137.383560181,0.0100530004129,1.0,0.0,0.0,0.0,1.0,0.0,0.0,0.0,1.0,-45.3048782349,4.63414621353,4.20731735229,1.0,0.0,0.0,0.0,1.0,0.0,0.0,0.0,1.0,-1.38863696289,4.44363828125,-9.97903251953,1.0,0.0,0.0,0.0,1.0,0.0,0.0,0.0,1.0
1463663008794419027,753,1463663008516761948,,-12.3412313461,1.31495821476,-137.699829102,0.0101309996098,1.0,0.0,0.0,0.0,1.0,0.0,0.0,0.0,1.0,-34.8780479431,4.2682929039,6.82926845551,1.0,0.0,0.0,0.0,1.0,0.0,0.0,0.0,1.0,-1.01514150391,5.57848986816,-10.6302553711,1.0,0.0,0.0,0.0,1.0,0.0,0.0,0.0,1.0
1463663008794711211,754,1463663008526250046,,-12.6823663712,1.22358715534,-138.01222229,0.0100910002366,1.0,0.0,0.0,0.0,1.0,0.0,0.0,0.0,1.0,-23.658536911,4.87804889679,7.13414621353,1.0,0.0,0.0,0.0,1.0,0.0,0.0,0.0,1.0,-1.07739082014,4.93684382324,-10.1945106689,1.0,0.0,0.0,0.0,1.0,0.0,0.0,0.0,1.0
1463663008794974703,755,1463663008537031493,,-12.9061555862,1.14146757126,-138.301620483,0.0101209999993,1.0,0.0,0.0,0.0,1.0,0.0,0.0,0.0,1.0,-10.3048782349,4.93902444839,9.5731716156,1.0,0.0,0.0,0.0,1.0,0.0,0.0,0.0,1.0,-1.0534486574,5.61200869141,-10.5488525146,1.0,0.0,0.0,0.0,1.0,0.0,0.0,0.0,1.0
1463663008795252202,756,1463663008547045116,,-13.0135707855,1.0544667244,-138.586242676,0.0101450001821,1.0,0.0,0.0,0.0,1.0,0.0,0.0,0.0,1.0,0.853658556938,4.2682929039,9.93902492523,1.0,0.0,0.0,0.0,1.0,0.0,0.0,0.0,1.0,-1.02950671387,5.59285507812,-10.5632177246,1.0,0.0,0.0,0.0,1.0,0.0,0.0,0.0,1.0
1463663008795553030,757,1463663008556876014,,-13.0166988373,0.986284255981,-138.83895874,0.010048000142,1.0,0.0,0.0,0.0,1.0,0.0,0.0,0.0,1.0,12.1341466904,4.63414621353,12.9878053665,1.0,0.0,0.0,0.0,1.0,0.0,0.0,0.0,1.0,-0.909796630859,5.99029255371,-10.7451770508,1.0,0.0,0.0,0.0,1.0,0.0,0.0,0.0,1.0
1463663008795803035,758,1463663008567662304,,-12.8579978943,0.921357750893,-139.069793701,0.0100889997557,1.0,0.0,0.0,0.0,1.0,0.0,0.0,0.0,1.0,26.3414649963,5.06097555161,15.3658533096,1.0,0.0,0.0,0.0,1.0,0.0,0.0,0.0,1.0,-1.01514150391,5.39653054199,-10.4626612549,1.0,0.0,0.0,0.0,1.0,0.0,0.0,0.0,1.0
1463663008796049186,759,1463663008577159098,,-12.5963869095,0.869893670082,-139.270721436,0.0102220000699,1.0,0.0,0.0,0.0,1.0,0.0,0.0,0.0,1.0,36.2804908752,5.12195110321,18.658536911,1.0,0.0,0.0,0.0,1.0,0.0,0.0,0.0,1.0,-0.905008227539,5.32470449219,-10.3333743652,1.0,0.0,0.0,0.0,1.0,0.0,0.0,0.0,1.0
1463663008796282840,760,1463663008587466416,,-12.2295837402,0.840583324432,-139.431564331,0.009990000166,1.0,0.0,0.0,0.0,1.0,0.0,0.0,0.0,1.0,46.6463432312,5.67073154449,22.3780498505,1.0,0.0,0.0,0.0,1.0,0.0,0.0,0.0,1.0,-0.76614453125,5.06134230957,-10.2615483154,1.0,0.0,0.0,0.0,1.0,0.0,0.0,0.0,1.0
1463663008796514671,761,1463663008597004140,,-11.7680959702,0.817105293274,-139.551300049,0.0100919995457,1.0,0.0,0.0,0.0,1.0,0.0,0.0,0.0,1.0,55.6097564697,5.54878091812,26.6463432312,1.0,0.0,0.0,0.0,1.0,0.0,0.0,0.0,1.0,-0.818816967773,4.94163222656,-10.1753570557,1.0,0.0,0.0,0.0,1.0,0.0,0.0,0.0,1.0
1463663008796752751,762,1463663008607292138,,-11.2080783844,0.819221615791,-139.625030518,0.0100800003856,1.0,0.0,0.0,0.0,1.0,0.0,0.0,0.0,1.0,65.7926864624,6.34146356583,31.4024391174,1.0,0.0,0.0,0.0,1.0,0.0,0.0,0.0,1.0,-0.679953271484,4.92247861328,-10.1562034424,1.0,0.0,0.0,0.0,1.0,0.0,0.0,0.0,1.0
1463663008796987082,763,1463663008617720006,,-10.5259943008,0.832018852234,-139.64390564,0.0101330000907,1.0,0.0,0.0,0.0,1.0,0.0,0.0,0.0,1.0,76.4634170532,6.15853643417,36.8292694092,1.0,0.0,0.0,0.0,1.0,0.0,0.0,0.0,1.0,-0.622492431641,4.41969626465,-9.82101520996,1.0,0.0,0.0,0.0,1.0,0.0,0.0,0.0,1.0
1463663008801473419,764,1463663008628930226,,-9.72413444519,0.842144608498,-139.620498657,0.0102030001581,1.0,0.0,0.0,0.0,1.0,0.0,0.0,0.0,1.0,86.2195129395,6.28048801422,40.9756088257,1.0,0.0,0.0,0.0,1.0,0.0,0.0,0.0,1.0,-0.837970581055,4.04141240234,-9.98382092285,1.0,0.0,0.0,0.0,1.0,0.0,0.0,0.0,1.0
1463663008801534189,765,1463663008637456163,,-8.83924484253,0.866531312466,-139.56149292,0.0100039998069,1.0,0.0,0.0,0.0,1.0,0.0,0.0,0.0,1.0,93.2926864624,6.15853643417,44.4512176514,1.0,0.0,0.0,0.0,1.0,0.0,0.0,0.0,1.0,-0.603338854892,3.22738383789,-9.70130512695,1.0,0.0,0.0,0.0,1.0,0.0,0.0,0.0,1.0
1463663008801682077,766,1463663008647820553,,-7.89992809296,0.904154121876,-139.450897217,0.0102239996195,1.0,0.0,0.0,0.0,1.0,0.0,0.0,0.0,1.0,97.8048782349,6.28048801422,49.3292694092,1.0,0.0,0.0,0.0,1.0,0.0,0.0,0.0,1.0,-0.521935925381,3.3710359375,-9.95987890625,1.0,0.0,0.0,0.0,1.0,0.0,0.0,0.0,1.0
1463663008801915262,767,1463663008657626247,,-6.91922855377,0.934465527534,-139.307266235,0.00994300004095,1.0,0.0,0.0,0.0,1.0,0.0,0.0,0.0,1.0,103.048782349,5.60975599289,52.7439041138,1.0,0.0,0.0,0.0,1.0,0.0,0.0,0.0,1.0,-0.536301208408,2.83952316895,-9.73003554687,1.0,0.0,0.0,0.0,1.0,0.0,0.0,0.0,1.0
1463663008802388819,768,1463663008668668686,,-5.84843540192,0.946395516396,-139.12638855,0.0102899996564,1.0,0.0,0.0,0.0,1.0,0.0,0.0,0.0,1.0,107.134147644,5.36585378647,55.7317085266,1.0,0.0,0.0,0.0,1.0,0.0,0.0,0.0,1.0,-0.818816967773,2.38462499965,-9.57680722515,1.0,0.0,0.0,0.0,1.0,0.0,0.0,0.0,1.0
1463663008802692459,769,1463663008677828722,,-4.76252555847,0.96169501543,-138.942367554,0.0100269997492,1.0,0.0,0.0,0.0,1.0,0.0,0.0,0.0,1.0,109.329269409,5.36585378647,56.3414649963,1.0,0.0,0.0,0.0,1.0,0.0,0.0,0.0,1.0,-0.675164868164,1.78128603516,-9.30865547017,1.0,0.0,0.0,0.0,1.0,0.0,0.0,0.0,1.0
1463663008802985841,770,1463663008688198736,,-3.67552423477,0.968447387218,-138.746276855,0.00999999977648,1.0,0.0,0.0,0.0,1.0,0.0,0.0,0.0,1.0,110.487808228,3.96341490746,57.3780479431,1.0,0.0,0.0,0.0,1.0,0.0,0.0,0.0,1.0,-0.536301208408,1.73819040527,-9.35175110005,1.0,0.0,0.0,0.0,1.0,0.0,0.0,0.0,1.0
1463663008803299271,771,1463663008698237459,,-2.53880190849,0.957967758179,-138.553939819,0.0101370001212,1.0,0.0,0.0,0.0,1.0,0.0,0.0,0.0,1.0,111.829269409,4.14634132385,56.6463394165,1.0,0.0,0.0,0.0,1.0,0.0,0.0,0.0,1.0,-0.794874951172,1.22583125,-9.57201882183,1.0,0.0,0.0,0.0,1.0,0.0,0.0,0.0,1.0
1463663008803582030,772,1463663008708509054,,-1.40156972408,0.934647381306,-138.380142212,0.0100689996034,1.0,0.0,0.0,0.0,1.0,0.0,0.0,0.0,1.0,111.158538818,3.71951246262,54.817073822,1.0,0.0,0.0,0.0,1.0,0.0,0.0,0.0,1.0,-0.866701000977,0.775721337891,-9.60553764507,1.0,0.0,0.0,0.0,1.0,0.0,0.0,0.0,1.0
1463663008803825526,773,1463663008718830328,,-0.27372905612,0.925216734409,-138.229522705,0.0101100001484,1.0,0.0,0.0,0.0,1.0,0.0,0.0,0.0,1.0,109.512199402,3.96341490746,52.3780517578,1.0,0.0,0.0,0.0,1.0,0.0,0.0,0.0,1.0,-0.598550451572,0.521935925381,-9.44751916645,1.0,0.0,0.0,0.0,1.0,0.0,0.0,0.0,1.0
1463663008803883640,774,1463663008729005900,,0.858001947403,0.902161300182,-138.105758667,0.0101129999384,1.0,0.0,0.0,0.0,1.0,0.0,0.0,0.0,1.0,107.621955872,3.47560977936,49.634147644,1.0,0.0,0.0,0.0,1.0,0.0,0.0,0.0,1.0,-0.689530078125,-0.0478840332031,-9.36132790669,1.0,0.0,0.0,0.0,1.0,0.0,0.0,0.0,1.0
1463663008804077874,775,1463663008739041915,,1.9550344944,0.894363641739,-138.008514404,0.0100729996338,1.0,0.0,0.0,0.0,1.0,0.0,0.0,0.0,1.0,102.439025879,4.02439022064,46.9512214661,1.0,0.0,0.0,0.0,1.0,0.0,0.0,0.0,1.0,-0.502782348633,-0.598550451572,-9.29907866352,1.0,0.0,0.0,0.0,1.0,0.0,0.0,0.0,1.0
1463663008804259402,776,1463663008748536574,,2.99584698677,0.889787137508,-137.926269531,0.0100940000266,1.0,0.0,0.0,0.0,1.0,0.0,0.0,0.0,1.0,95.8536605835,4.32926845551,45.365852356,1.0,0.0,0.0,0.0,1.0,0.0,0.0,0.0,1.0,-0.493205541992,-0.928950244141,-9.4570959731,1.0,0.0,0.0,0.0,1.0,0.0,0.0,0.0,1.0
1463663008804304029,777,1463663008758645857,,3.97473335266,0.888971686363,-137.866470337,0.0101190004498,1.0,0.0,0.0,0.0,1.0,0.0,0.0,0.0,1.0,87.8048782349,4.20731735229,43.0487823486,1.0,0.0,0.0,0.0,1.0,0.0,0.0,0.0,1.0,-0.407014282227,-1.37427175293,-9.32302068013,1.0,0.0,0.0,0.0,1.0,0.0,0.0,0.0,1.0
1463663008804603034,778,1463663008769526347,,4.84552240372,0.88235861063,-137.828125,0.0101319998503,1.0,0.0,0.0,0.0,1.0,0.0,0.0,0.0,1.0,78.1707305908,3.96341490746,40.9146385193,1.0,0.0,0.0,0.0,1.0,0.0,0.0,0.0,1.0,-0.493205541992,-1.40300217285,-9.71088193359,1.0,0.0,0.0,0.0,1.0,0.0,0.0,0.0,1.0
1463663008809501377,779,1463663008779070528,,5.63470220566,0.884660243988,-137.821670532,0.0100969998166,1.0,0.0,0.0,0.0,1.0,0.0,0.0,0.0,1.0,71.2195129395,3.84146332741,37.7439041138,1.0,0.0,0.0,0.0,1.0,0.0,0.0,0.0,1.0,-0.359130249023,-1.40779057617,-9.65821008159,1.0,0.0,0.0,0.0,1.0,0.0,0.0,0.0,1.0
1463663008809907759,780,1463663008789441116,,6.3694319725,0.873051285744,-137.849945068,0.0100990002975,1.0,0.0,0.0,0.0,1.0,0.0,0.0,0.0,1.0,65.0609741211,3.10975623131,34.3292694092,1.0,0.0,0.0,0.0,1.0,0.0,0.0,0.0,1.0,-0.545877978516,-1.72382519531,-9.8784760498,1.0,0.0,0.0,0.0,1.0,0.0,0.0,0.0,1.0
1463663009380031413,781,1463663008800096180,,7.05003499985,0.874088943005,-137.919906616,0.0100940000266,1.0,0.0,0.0,0.0,1.0,0.0,0.0,0.0,1.0,58.7195129395,3.23170733452,30.1219520569,1.0,0.0,0.0,0.0,1.0,0.0,0.0,0.0,1.0,-0.445321508789,-2.05901342773,-9.92157167969,1.0,0.0,0.0,0.0,1.0,0.0,0.0,0.0,1.0
1463663009380127541,782,1463663008811894257,,7.65087032318,0.871405243874,-138.019348145,0.0100640002638,1.0,0.0,0.0,0.0,1.0,0.0,0.0,0.0,1.0,52.6829299927,2.37804889679,27.2560977936,1.0,0.0,0.0,0.0,1.0,0.0,0.0,0.0,1.0,-0.435744702148,-1.87226569824,-9.87368764648,1.0,0.0,0.0,0.0,1.0,0.0,0.0,0.0,1.0
1463663009380176802,783,1463663008819808383,,8.20619297028,0.889109253883,-138.138366699,0.0101579995826,1.0,0.0,0.0,0.0,1.0,0.0,0.0,0.0,1.0,47.0731697083,2.80487799644,25.3048782349,1.0,0.0,0.0,0.0,1.0,0.0,0.0,0.0,1.0,-0.225054956055,-2.13083962367,-10.0700121826,1.0,0.0,0.0,0.0,1.0,0.0,0.0,0.0,1.0
1463663009380235749,784,1463663008829745198,,8.71106433868,0.896550118923,-138.276031494,0.0100570004433,1.0,0.0,0.0,0.0,1.0,0.0,0.0,0.0,1.0,42.3780517578,2.31707310677,23.3536586761,1.0,0.0,0.0,0.0,1.0,0.0,0.0,0.0,1.0,-0.392649072266,-2.29843359375,-10.1418382324,1.0,0.0,0.0,0.0,1.0,0.0,0.0,0.0,1.0
1463663009380298081,785,1463663008839908897,,9.17018795013,0.918663918972,-138.439239502,0.0100910002366,1.0,0.0,0.0,0.0,1.0,0.0,0.0,0.0,1.0,37.5,2.43902444839,20.7926826477,1.0,0.0,0.0,0.0,1.0,0.0,0.0,0.0,1.0,-0.244208569336,-2.45645090332,-10.2376062988,1.0,0.0,0.0,0.0,1.0,0.0,0.0,0.0,1.0
1463663009380339688,786,1463663008850048851,,9.5761756897,0.946618080139,-138.628265381,0.0101840002462,1.0,0.0,0.0,0.0,1.0,0.0,0.0,0.0,1.0,32.1951217651,2.43902444839,18.3536586761,1.0,0.0,0.0,0.0,1.0,0.0,0.0,0.0,1.0,-0.234631762695,-2.49475812988,-10.2615483154,1.0,0.0,0.0,0.0,1.0,0.0,0.0,0.0,1.0
1463663009380376764,787,1463663008861729710,,9.91987609863,0.986928939819,-138.848129272,0.0107969995588,1.0,0.0,0.0,0.0,1.0,0.0,0.0,0.0,1.0,25.8536586761,2.43902444839,16.5243911743,1.0,0.0,0.0,0.0,1.0,0.0,0.0,0.0,1.0,-0.124498486328,-2.25054956055,-10.2376062988,1.0,0.0,0.0,0.0,1.0,0.0,0.0,0.0,1.0
1463663009381349861,788,1463663008870767477,,10.2012910843,1.0230871439,-139.055236816,0.00934300012887,1.0,0.0,0.0,0.0,1.0,0.0,0.0,0.0,1.0,23.5975627899,1.8902438879,14.7560987473,1.0,0.0,0.0,0.0,1.0,0.0,0.0,0.0,1.0,-0.0718260498047,-2.48518132324,-10.4818148682,1.0,0.0,0.0,0.0,1.0,0.0,0.0,0.0,1.0
1463663009381597315,789,1463663008880756991,,10.4620952606,1.07279491425,-139.304092407,0.0100790001452,1.0,0.0,0.0,0.0,1.0,0.0,0.0,0.0,1.0,20.1219520569,2.19512200356,12.1341466904,1.0,0.0,0.0,0.0,1.0,0.0,0.0,0.0,1.0,-0.0287304199219,-2.33674067418,-10.1992990723,1.0,0.0,0.0,0.0,1.0,0.0,0.0,0.0,1.0
1463663009381639390,790,1463663008891918418,,10.7126598358,1.14588570595,-139.620605469,0.0112709999084,1.0,0.0,0.0,0.0,1.0,0.0,0.0,0.0,1.0,16.4634151459,3.23170733452,8.47560977936,1.0,0.0,0.0,0.0,1.0,0.0,0.0,0.0,1.0,-0.067037651051,-2.45645090332,-10.4147772217,1.0,0.0,0.0,0.0,1.0,0.0,0.0,0.0,1.0
1463663009382294943,791,1463663008901410057,,10.8614120483,1.19178211689,-139.880599976,0.00893200002611,1.0,0.0,0.0,0.0,1.0,0.0,0.0,0.0,1.0,12.6219520569,1.64634156227,7.74390268326,1.0,0.0,0.0,0.0,1.0,0.0,0.0,0.0,1.0,-0.0574608398438,-2.17393510742,-10.3908352051,1.0,0.0,0.0,0.0,1.0,0.0,0.0,0.0,1.0
1463663009382865512,792,1463663008910938408,,10.9936485291,1.26946640015,-140.18687439,0.010106000118,1.0,0.0,0.0,0.0,1.0,0.0,0.0,0.0,1.0,9.45121955872,2.56097555161,6.34146356583,1.0,0.0,0.0,0.0,1.0,0.0,0.0,0.0,1.0,0.196324536133,-2.13083962367,-10.3621047852,1.0,0.0,0.0,0.0,1.0,0.0,0.0,0.0,1.0
1463663009384747552,793,1463663008921796871,,11.0892391205,1.32508969307,-140.522293091,0.010482000187,1.0,0.0,0.0,0.0,1.0,0.0,0.0,0.0,1.0,6.34146356583,0.975609779358,4.93902444839,1.0,0.0,0.0,0.0,1.0,0.0,0.0,0.0,1.0,-0.00478840332031,-2.04943662109,-10.5823713379,1.0,0.0,0.0,0.0,1.0,0.0,0.0,0.0,1.0
1463663009384811498,794,1463663008931342562,,11.1478128433,1.38810837269,-140.854385376,0.00972199998796,1.0,0.0,0.0,0.0,1.0,0.0,0.0,0.0,1.0,2.86585378647,0.914634168148,2.74390244484,1.0,0.0,0.0,0.0,1.0,0.0,0.0,0.0,1.0,0.148440512063,-2.10689731481,-10.3333743652,1.0,0.0,0.0,0.0,1.0,0.0,0.0,0.0,1.0
1463663009388108687,795,1463663008941504074,,11.147986412,1.44307637215,-141.206954956,0.0101129999384,1.0,0.0,0.0,0.0,1.0,0.0,0.0,0.0,1.0,-0.609756112099,0.0609756112099,2.25609779358,1.0,0.0,0.0,0.0,1.0,0.0,0.0,0.0,1.0,0.100556469727,-1.67115275879,-10.4626612549,1.0,0.0,0.0,0.0,1.0,0.0,0.0,0.0,1.0
1463663009388563965,796,1463663008951700788,,11.1196260452,1.48494076729,-141.582229614,0.0102869998664,1.0,0.0,0.0,0.0,1.0,0.0,0.0,0.0,1.0,-3.17073178291,-1.40243899822,0.914634168148,1.0,0.0,0.0,0.0,1.0,0.0,0.0,0.0,1.0,0.076614453125,-1.64242233887,-10.4530844482,1.0,0.0,0.0,0.0,1.0,0.0,0.0,0.0,1.0
1463663009388620934,797,1463663008961914791,,11.0643348694,1.52175724506,-141.968383789,0.0100530004129,1.0,0.0,0.0,0.0,1.0,0.0,0.0,0.0,1.0,-5.36585378647,-1.34146344662,-1.03658533096,1.0,0.0,0.0,0.0,1.0,0.0,0.0,0.0,1.0,-0.067037651051,-1.52271225586,-10.285490332,1.0,0.0,0.0,0.0,1.0,0.0,0.0,0.0,1.0
1463663009388965244,798,1463663008971581761,,10.9902935028,1.56003546715,-142.371292114,0.010045000352,1.0,0.0,0.0,0.0,1.0,0.0,0.0,0.0,1.0,-6.89024400711,-1.95121955872,-2.62195134163,1.0,0.0,0.0,0.0,1.0,0.0,0.0,0.0,1.0,0.0287304199219,-1.46525141602,-10.314220752,1.0,0.0,0.0,0.0,1.0,0.0,0.0,0.0,1.0
1463663009389012058,799,1463663008982137209,,10.8800487518,1.59578180313,-142.788360596,0.010271999985,1.0,0.0,0.0,0.0,1.0,0.0,0.0,0.0,1.0,-8.41463470459,-2.62195134163,-2.92682933807,1.0,0.0,0.0,0.0,1.0,0.0,0.0,0.0,1.0,0.0957680664062,-1.11569797363,-10.2902787354,1.0,0.0,0.0,0.0,1.0,0.0,0.0,0.0,1.0
1463663009389089595,800,1463663008995294195,,10.7422008514,1.63391780853,-143.322235107,0.0127720003948,1.0,0.0,0.0,0.0,1.0,0.0,0.0,0.0,1.0,-9.02439117432,-2.92682933807,-4.08536577225,1.0,0.0,0.0,0.0,1.0,0.0,0.0,0.0,1.0,0.0430956298828,-1.20667770978,-10.2807019287,1.0,0.0,0.0,0.0,1.0,0.0,0.0,0.0,1.0
1463663009389481500,801,1463663009001941998,,10.6539535522,1.64952600002,-143.623199463,0.00715899979696,1.0,0.0,0.0,0.0,1.0,0.0,0.0,0.0,1.0,-9.75609779358,-3.04878044128,-4.2682929039,1.0,0.0,0.0,0.0,1.0,0.0,0.0,0.0,1.0,-0.067037651051,-1.04387185076,-10.3333743652,1.0,0.0,0.0,0.0,1.0,0.0,0.0,0.0,1.0
1463663009389522586,802,1463663009011601419,,10.5191316605,1.67287456989,-144.058792114,0.0102120004594,1.0,0.0,0.0,0.0,1.0,0.0,0.0,0.0,1.0,-9.93902492523,-3.29268312454,-4.81707286835,1.0,0.0,0.0,0.0,1.0,0.0,0.0,0.0,1.0,-0.00478840332031,-0.895431420898,-10.2184526855,1.0,0.0,0.0,0.0,1.0,0.0,0.0,0.0,1.0
1463663009389777850,803,1463663009021416804,,10.3860721588,1.69298088551,-144.483581543,0.0100389998406,1.0,0.0,0.0,0.0,1.0,0.0,0.0,0.0,1.0,-10.548781395,-3.41463422775,-4.45121955872,1.0,0.0,0.0,0.0,1.0,0.0,0.0,0.0,1.0,0.0,-0.972045874023,-10.1992990723,1.0,0.0,0.0,0.0,1.0,0.0,0.0,0.0,1.0
1463663009389837266,804,1463663009031812129,,10.2334012985,1.7064319849,-144.914657593,0.0101380003616,1.0,0.0,0.0,0.0,1.0,0.0,0.0,0.0,1.0,-11.0365858078,-3.96341490746,-4.51219558716,1.0,0.0,0.0,0.0,1.0,0.0,0.0,0.0,1.0,-0.00478840332031,-0.718260498047,-10.2950671387,1.0,0.0,0.0,0.0,1.0,0.0,0.0,0.0,1.0
1463663009389899702,805,1463663009042593527,,10.0826978683,1.71774888039,-145.343322754,0.0100320000201,1.0,0.0,0.0,0.0,1.0,0.0,0.0,0.0,1.0,-10.6707315445,-4.32926845551,-4.63414621353,1.0,0.0,0.0,0.0,1.0,0.0,0.0,0.0,1.0,0.0430956298828,-0.632069238281,-10.2807019287,1.0,0.0,0.0,0.0,1.0,0.0,0.0,0.0,1.0
1463663009389965315,806,1463663009052611997,,9.92763996124,1.72030997276,-145.782424927,0.0101009998471,1.0,0.0,0.0,0.0,1.0,0.0,0.0,0.0,1.0,-10.0609760284,-4.57317066193,-5.30487823486,1.0,0.0,0.0,0.0,1.0,0.0,0.0,0.0,1.0,-0.0718260498047,-0.440533105469,-10.3429511719,1.0,0.0,0.0,0.0,1.0,0.0,0.0,0.0,1.0
1463663009390042019,807,1463663009062406498,,9.78168773651,1.72499477863,-146.223815918,0.0100880004466,1.0,0.0,0.0,0.0,1.0,0.0,0.0,0.0,1.0,-9.45121955872,-4.81707286835,-5.54878091812,1.0,0.0,0.0,0.0,1.0,0.0,0.0,0.0,1.0,0.0239420166016,-0.45968671875,-10.2328178955,1.0,0.0,0.0,0.0,1.0,0.0,0.0,0.0,1.0
1463663009390079095,808,1463663009072640135,,9.64684581757,1.72290825844,-146.669036865,0.0101460004225,1.0,0.0,0.0,0.0,1.0,0.0,0.0,0.0,1.0,-8.84146404266,-4.57317066193,-5.73170757294,1.0,0.0,0.0,0.0,1.0,0.0,0.0,0.0,1.0,-0.124498486328,-0.531512805087,-10.1178962158,1.0,0.0,0.0,0.0,1.0,0.0,0.0,0.0,1.0
1463663009390305771,809,1463663009083016141,,9.51395988464,1.72075295448,-147.113876343,0.0101950000972,1.0,0.0,0.0,0.0,1.0,0.0,0.0,0.0,1.0,-8.04878044128,-4.75609779358,-5.42682933807,1.0,0.0,0.0,0.0,1.0,0.0,0.0,0.0,1.0,-0.067037651051,-0.411802685547,-10.180145459,1.0,0.0,0.0,0.0,1.0,0.0,0.0,0.0,1.0
1463663009390353627,810,1463663009092218306,,9.38428783417,1.72273039818,-147.552856445,0.0100459996611,1.0,0.0,0.0,0.0,1.0,0.0,0.0,0.0,1.0,-7.31707334518,-4.63414621353,-5.48780488968,1.0,0.0,0.0,0.0,1.0,0.0,0.0,0.0,1.0,0.0,-0.282515795898,-10.3094323486,1.0,0.0,0.0,0.0,1.0,0.0,0.0,0.0,1.0
1463663009390389558,811,1463663009102588636,,9.26697635651,1.71432721615,-147.98815918,0.0100239999592,1.0,0.0,0.0,0.0,1.0,0.0,0.0,0.0,1.0,-5.85365867615,-5.12195110321,-5.12195110321,1.0,0.0,0.0,0.0,1.0,0.0,0.0,0.0,1.0,-0.0718260498047,-0.205901342773,-10.1466266357,1.0,0.0,0.0,0.0,1.0,0.0,0.0,0.0,1.0
1463663009391014439,812,1463663009112464893,,9.1335773468,1.69662940502,-148.410705566,0.0100940000266,1.0,0.0,0.0,0.0,1.0,0.0,0.0,0.0,1.0,-6.52439069748,-4.63414621353,-3.59756112099,1.0,0.0,0.0,0.0,1.0,0.0,0.0,0.0,1.0,-0.282515795898,-0.0239420166016,-10.8840407471,1.0,0.0,0.0,0.0,1.0,0.0,0.0,0.0,1.0
1463663009391777941,813,1463663009122767163,,9.05990886688,1.69603037834,-148.825057983,0.0100959995762,1.0,0.0,0.0,0.0,1.0,0.0,0.0,0.0,1.0,-3.29268312454,-3.7804877758,-2.98780488968,1.0,0.0,0.0,0.0,1.0,0.0,0.0,0.0,1.0,-0.0814028564453,-0.478840332031,-10.1370498291,1.0,0.0,0.0,0.0,1.0,0.0,0.0,0.0,1.0
1463663009392635956,814,1463663009132714083,,8.96574115753,1.69206571579,-149.230865479,0.0101229995489,1.0,0.0,0.0,0.0,1.0,0.0,0.0,0.0,1.0,-3.53658556938,-3.90243911743,-1.95121955872,1.0,0.0,0.0,0.0,1.0,0.0,0.0,0.0,1.0,-0.0814028564453,-0.143652099609,-10.2232410889,1.0,0.0,0.0,0.0,1.0,0.0,0.0,0.0,1.0
1463663009392710212,815,1463663009143189446,,8.89388751984,1.68798065186,-149.62298584,0.0101380003616,1.0,0.0,0.0,0.0,1.0,0.0,0.0,0.0,1.0,-2.19512200356,-3.17073178291,-0.670731723309,1.0,0.0,0.0,0.0,1.0,0.0,0.0,0.0,1.0,-0.167594116211,-0.277727392578,-10.2232410889,1.0,0.0,0.0,0.0,1.0,0.0,0.0,0.0,1.0
1463663009392769993,816,1463663009153143083,,8.8285484314,1.67659115791,-150.001251221,0.0100360000506,1.0,0.0,0.0,0.0,1.0,0.0,0.0,0.0,1.0,-1.8902438879,-3.47560977936,0.365853667259,1.0,0.0,0.0,0.0,1.0,0.0,0.0,0.0,1.0,-0.210689746094,-0.31124621582,-10.3190091553,1.0,0.0,0.0,0.0,1.0,0.0,0.0,0.0,1.0
1463663009392826805,817,1463663009163303297,,8.76839256287,1.66736602783,-150.377746582,0.0102960001677,1.0,0.0,0.0,0.0,1.0,0.0,0.0,0.0,1.0,-1.09756100178,-3.23170733452,1.46341466904,1.0,0.0,0.0,0.0,1.0,0.0,0.0,0.0,1.0,-0.177170922852,-0.272938989258,-10.4482960449,1.0,0.0,0.0,0.0,1.0,0.0,0.0,0.0,1.0
1463663009392881638,818,1463663009173206476,,8.71736049652,1.6521499157,-150.738357544,0.00998200010508,1.0,0.0,0.0,0.0,1.0,0.0,0.0,0.0,1.0,-0.243902444839,-3.47560977936,1.95121955872,1.0,0.0,0.0,0.0,1.0,0.0,0.0,0.0,1.0,-0.229843359375,-0.234631762695,-10.4291424316,1.0,0.0,0.0,0.0,1.0,0.0,0.0,0.0,1.0
1463663009393048013,819,1463663009183709749,,8.68401813507,1.63358652592,-151.102020264,0.0101269995794,1.0,0.0,0.0,0.0,1.0,0.0,0.0,0.0,1.0,1.58536589146,-3.65853667259,2.19512200356,1.0,0.0,0.0,0.0,1.0,0.0,0.0,0.0,1.0,-0.244208569336,-0.220266552734,-10.4147772217,1.0,0.0,0.0,0.0,1.0,0.0,0.0,0.0,1.0
1463663009393178717,820,1463663009193211233,,8.6651096344,1.61289191246,-151.463043213,0.00999699998647,1.0,0.0,0.0,0.0,1.0,0.0,0.0,0.0,1.0,3.10975623131,-3.7804877758,2.01219511032,1.0,0.0,0.0,0.0,1.0,0.0,0.0,0.0,1.0,-0.272938989258,-0.191536132812,-10.4818148682,1.0,0.0,0.0,0.0,1.0,0.0,0.0,0.0,1.0
1463663009393239591,821,1463663009203208092,,8.65914726257,1.59326887131,-151.825073242,0.0101100001484,1.0,0.0,0.0,0.0,1.0,0.0,0.0,0.0,1.0,4.75609779358,-3.71951246262,2.31707310677,1.0,0.0,0.0,0.0,1.0,0.0,0.0,0.0,1.0,-0.253785375977,-0.119710083008,-10.4626612549,1.0,0.0,0.0,0.0,1.0,0.0,0.0,0.0,1.0
1463663009393279271,822,1463663009213437407,,8.67325878143,1.57455289364,-152.189376831,0.010108999908,1.0,0.0,0.0,0.0,1.0,0.0,0.0,0.0,1.0,7.50000047684,-3.10975623131,2.01219511032,1.0,0.0,0.0,0.0,1.0,0.0,0.0,0.0,1.0,-0.359130249023,0.0239420166016,-10.3860468018,1.0,0.0,0.0,0.0,1.0,0.0,0.0,0.0,1.0
1463663009393316244,823,1463663009223481496,,8.70953655243,1.56049728394,-152.554290771,0.0101190004498,1.0,0.0,0.0,0.0,1.0,0.0,0.0,0.0,1.0,10.7926826477,-2.68292689323,1.95121955872,1.0,0.0,0.0,0.0,1.0,0.0,0.0,0.0,1.0,-0.363918652344,0.229843359375,-10.4818148682,1.0,0.0,0.0,0.0,1.0,0.0,0.0,0.0,1.0
1463663009399375774,824,1463663009233461327,,8.77679347992,1.55270338058,-152.924026489,0.0100990002975,1.0,0.0,0.0,0.0,1.0,0.0,0.0,0.0,1.0,14.6341466904,-2.19512200356,1.34146344662,1.0,0.0,0.0,0.0,1.0,0.0,0.0,0.0,1.0,-0.368707055664,0.368707055664,-10.5775829346,1.0,0.0,0.0,0.0,1.0,0.0,0.0,0.0,1.0
1463663009399563968,825,1463663009243428921,,8.87686443329,1.55716431141,-153.296783447,0.0100640002638,1.0,0.0,0.0,0.0,1.0,0.0,0.0,0.0,1.0,19.817073822,-1.52439022064,0.853658556938,1.0,0.0,0.0,0.0,1.0,0.0,0.0,0.0,1.0,-0.292092584273,0.713472094727,-10.539275708,1.0,0.0,0.0,0.0,1.0,0.0,0.0,0.0,1.0
1463663009399605783,826,1463663009253559452,,9.02768707275,1.55528998375,-153.674362183,0.0101279998198,1.0,0.0,0.0,0.0,1.0,0.0,0.0,0.0,1.0,26.2804889679,-1.2804877758,0.609756112099,1.0,0.0,0.0,0.0,1.0,0.0,0.0,0.0,1.0,-0.478840332031,0.986411083984,-10.5440641113,1.0,0.0,0.0,0.0,1.0,0.0,0.0,0.0,1.0
1463663009399889375,827,1463663009263578599,,9.23398971558,1.56167018414,-154.055725098,0.0100790001452,1.0,0.0,0.0,0.0,1.0,0.0,0.0,0.0,1.0,33.7195129395,-0.731707334518,-0.0,1.0,0.0,0.0,0.0,1.0,0.0,0.0,0.0,1.0,-0.469263525391,1.31202250977,-10.5009684814,1.0,0.0,0.0,0.0,1.0,0.0,0.0,0.0,1.0
1463663009399983576,828,1463663009274336668,,9.51602458954,1.60629379749,-154.450439453,0.0101899998263,1.0,0.0,0.0,0.0,1.0,0.0,0.0,0.0,1.0,43.5975608826,-1.09756100178,-0.792682945728,1.0,0.0,0.0,0.0,1.0,0.0,0.0,0.0,1.0,0.234631762695,1.73340200195,-10.1562034424,1.0,0.0,0.0,0.0,1.0,0.0,0.0,0.0,1.0
1463663009400031379,829,1463663009283945058,,9.88772773743,1.62464821339,-154.838134766,0.0100649995729,1.0,0.0,0.0,0.0,1.0,0.0,0.0,0.0,1.0,52.6219520569,0.487804889679,-0.853658556938,1.0,0.0,0.0,0.0,1.0,0.0,0.0,0.0,1.0,-0.545877978516,1.63284553223,-10.1274730225,1.0,0.0,0.0,0.0,1.0,0.0,0.0,0.0,1.0
1463663009400070851,830,1463663009294798057,,10.3668441772,1.64979124069,-155.221420288,0.010095000267,1.0,0.0,0.0,0.0,1.0,0.0,0.0,0.0,1.0,63.2926826477,0.670731723309,-0.365853667259,1.0,0.0,0.0,0.0,1.0,0.0,0.0,0.0,1.0,-0.502782348633,1.63284553223,-10.405200415,1.0,0.0,0.0,0.0,1.0,0.0,0.0,0.0,1.0
1463663009400150315,831,1463663009304544911,,10.9340524673,1.68207991123,-155.598510742,0.0100600002334,1.0,0.0,0.0,0.0,1.0,0.0,0.0,0.0,1.0,73.3536605835,0.243902444839,0.18292683363,1.0,0.0,0.0,0.0,1.0,0.0,0.0,0.0,1.0,-0.325611425781,1.72382519531,-10.1514150391,1.0,0.0,0.0,0.0,1.0,0.0,0.0,0.0,1.0
1463663009400323303,832,1463663009314986634,,11.6213331223,1.71706092358,-155.970687866,0.0101150004193,1.0,0.0,0.0,0.0,1.0,0.0,0.0,0.0,1.0,85.6097564697,0.487804889679,0.792682945728,1.0,0.0,0.0,0.0,1.0,0.0,0.0,0.0,1.0,-0.363918652344,1.71903679199,-9.93593688965,1.0,0.0,0.0,0.0,1.0,0.0,0.0,0.0,1.0
1463663009400452862,833,1463663009324440158,,12.4158086777,1.73539125919,-156.333328247,0.0100790001452,1.0,0.0,0.0,0.0,1.0,0.0,0.0,0.0,1.0,95.6707305908,-0.670731723309,1.76829278469,1.0,0.0,0.0,0.0,1.0,0.0,0.0,0.0,1.0,-0.488417138672,1.43173259277,-9.85932243652,1.0,0.0,0.0,0.0,1.0,0.0,0.0,0.0,1.0
1463663009400507748,834,1463663009335029093,,13.3412742615,1.7523573637,-156.686645508,0.0101319998503,1.0,0.0,0.0,0.0,1.0,0.0,0.0,0.0,1.0,106.768295288,-0.548780500889,2.74390244484,1.0,0.0,0.0,0.0,1.0,0.0,0.0,0.0,1.0,-0.574608398438,1.01992990723,-9.7348239502,1.0,0.0,0.0,0.0,1.0,0.0,0.0,0.0,1.0
1463663009400544928,835,1463663009344992677,,14.3628568649,1.76620590687,-157.029998779,0.0100790001452,1.0,0.0,0.0,0.0,1.0,0.0,0.0,0.0,1.0,115.365859985,-0.792682945728,3.47560977936,1.0,0.0,0.0,0.0,1.0,0.0,0.0,0.0,1.0,-0.646434448242,0.603338854892,-9.70130512695,1.0,0.0,0.0,0.0,1.0,0.0,0.0,0.0,1.0
1463663009400578099,836,1463663009354880598,,15.4737882614,1.78171718121,-157.36114502,0.0101020000875,1.0,0.0,0.0,0.0,1.0,0.0,0.0,0.0,1.0,122.134147644,-1.58536589146,4.81707286835,1.0,0.0,0.0,0.0,1.0,0.0,0.0,0.0,1.0,-0.521935925381,0.100556469727,-9.60074924175,1.0,0.0,0.0,0.0,1.0,0.0,0.0,0.0,1.0
1463663009401069673,837,1463663009364916512,,16.6622600555,1.79502975941,-157.683547974,0.0100969998166,1.0,0.0,0.0,0.0,1.0,0.0,0.0,0.0,1.0,127.682929993,-2.19512200356,5.67073154449,1.0,0.0,0.0,0.0,1.0,0.0,0.0,0.0,1.0,-0.507570751953,-0.45489831543,-9.31823227681,1.0,0.0,0.0,0.0,1.0,0.0,0.0,0.0,1.0
1463663009401319834,838,1463663009375485450,,17.9265422821,1.82943248749,-158.002304077,0.010216999799,1.0,0.0,0.0,0.0,1.0,0.0,0.0,0.0,1.0,131.402450562,-2.25609779358,6.21951246262,1.0,0.0,0.0,0.0,1.0,0.0,0.0,0.0,1.0,-0.234631762695,-1.02471831055,-9.14106193848,1.0,0.0,0.0,0.0,1.0,0.0,0.0,0.0,1.0
1463663009401511620,839,1463663009385224701,,19.180311203,1.85348916054,-158.311691284,0.0099849998951,1.0,0.0,0.0,0.0,1.0,0.0,0.0,0.0,1.0,133.292694092,-3.29268312454,6.64634132385,1.0,0.0,0.0,0.0,1.0,0.0,0.0,0.0,1.0,-0.31124621582,-1.21146604004,-9.07402429199,1.0,0.0,0.0,0.0,1.0,0.0,0.0,0.0,1.0
1463663009401859784,840,1463663009395405327,,20.4833965302,1.89232778549,-158.621368408,0.010108999908,1.0,0.0,0.0,0.0,1.0,0.0,0.0,0.0,1.0,134.939025879,-2.5,6.52439069748,1.0,0.0,0.0,0.0,1.0,0.0,0.0,0.0,1.0,-0.31124621582,-1.68551796875,-9.00219824219,1.0,0.0,0.0,0.0,1.0,0.0,0.0,0.0,1.0
1463663009452958555,841,1463663009405865692,,21.8096847534,1.91962814331,-158.923324585,0.0101359998807,1.0,0.0,0.0,0.0,1.0,0.0,0.0,0.0,1.0,134.817077637,-2.86585378647,7.31707334518,1.0,0.0,0.0,0.0,1.0,0.0,0.0,0.0,1.0,-0.497993945312,-2.20745393066,-8.84896933594,1.0,0.0,0.0,0.0,1.0,0.0,0.0,0.0,1.0
1463663009453308645,842,1463663009415335880,,23.1257343292,1.96884536743,-159.224746704,0.0100490003824,1.0,0.0,0.0,0.0,1.0,0.0,0.0,0.0,1.0,133.780487061,-2.07317066193,6.52439069748,1.0,0.0,0.0,0.0,1.0,0.0,0.0,0.0,1.0,-0.426167895508,-2.67192905273,-9.00219824219,1.0,0.0,0.0,0.0,1.0,0.0,0.0,0.0,1.0
1463663009453656183,843,1463663009425564987,,24.469581604,2.0135653019,-159.507751465,0.0101990001276,1.0,0.0,0.0,0.0,1.0,0.0,0.0,0.0,1.0,130.487808228,-0.426829278469,7.86585378647,1.0,0.0,0.0,0.0,1.0,0.0,0.0,0.0,1.0,-0.756567724609,-3.4189199707,-8.48505126812,1.0,0.0,0.0,0.0,1.0,0.0,0.0,0.0,1.0
1463663009454035903,844,1463663009435873558,,25.761138916,2.0671350956,-159.776687622,0.0100229997188,1.0,0.0,0.0,0.0,1.0,0.0,0.0,0.0,1.0,127.56098175,0.0609756112099,8.35365867615,1.0,0.0,0.0,0.0,1.0,0.0,0.0,0.0,1.0,-0.756567724609,-3.7253777832,-8.64785698101,1.0,0.0,0.0,0.0,1.0,0.0,0.0,0.0,1.0
1463663009480912173,845,1463663009445772518,,27.0883960724,2.12842035294,-160.041717529,0.010098000057,1.0,0.0,0.0,0.0,1.0,0.0,0.0,0.0,1.0,127.012199402,0.243902444839,8.47560977936,1.0,0.0,0.0,0.0,1.0,0.0,0.0,0.0,1.0,-0.727837304687,-4.29040966726,-8.14507404785,1.0,0.0,0.0,0.0,1.0,0.0,0.0,0.0,1.0
1463663009480968152,846,1463663009455750058,,28.468996048,2.19601964951,-160.318252563,0.0101180002093,1.0,0.0,0.0,0.0,1.0,0.0,0.0,0.0,1.0,128.292678833,-0.12195122242,6.95121955872,1.0,0.0,0.0,0.0,1.0,0.0,0.0,0.0,1.0,-0.861912597656,-5.51145222168,-8.49462807476,1.0,0.0,0.0,0.0,1.0,0.0,0.0,0.0,1.0
1463663009481022465,847,1463663009465937610,,29.7609157562,2.28405928612,-160.565841675,0.0101640000939,1.0,0.0,0.0,0.0,1.0,0.0,0.0,0.0,1.0,118.475616455,-0.975609779358,10.3658542633,1.0,0.0,0.0,0.0,1.0,0.0,0.0,0.0,1.0,-0.172382519531,-5.68862314453,-8.2025348877,1.0,0.0,0.0,0.0,1.0,0.0,0.0,0.0,1.0
1463663009481061572,848,1463663009476147085,,31.0507392883,2.36369132996,-160.821868896,0.0100339995697,1.0,0.0,0.0,0.0,1.0,0.0,0.0,0.0,1.0,115.000007629,-1.8902438879,9.02439117432,1.0,0.0,0.0,0.0,1.0,0.0,0.0,0.0,1.0,-0.392649072266,-7.01979926758,-8.03494077148,1.0,0.0,0.0,0.0,1.0,0.0,0.0,0.0,1.0
1463663009531651220,849,1463663009485963717,,32.2445831299,2.43965673447,-161.061889648,0.0101370001212,1.0,0.0,0.0,0.0,1.0,0.0,0.0,0.0,1.0,104.268295288,-4.32926845551,12.3170728683,1.0,0.0,0.0,0.0,1.0,0.0,0.0,0.0,1.0,0.15322890625,-7.31668027344,-8.03015236816,1.0,0.0,0.0,0.0,1.0,0.0,0.0,0.0,1.0
1463663009531691525,850,1463663009495908190,,33.3003120422,2.52460074425,-161.305603027,0.0100459996611,1.0,0.0,0.0,0.0,1.0,0.0,0.0,0.0,1.0,93.3536605835,-5.54878091812,12.2560977936,1.0,0.0,0.0,0.0,1.0,0.0,0.0,0.0,1.0,0.46447512207,-7.40765993652,-8.28872556294,1.0,0.0,0.0,0.0,1.0,0.0,0.0,0.0,1.0
1463663009531730164,851,1463663009506435678,,34.2553215027,2.57357978821,-161.553573608,0.010106000118,1.0,0.0,0.0,0.0,1.0,0.0,0.0,0.0,1.0,83.2926864624,-9.39024448395,14.3292694092,1.0,0.0,0.0,0.0,1.0,0.0,0.0,0.0,1.0,0.541089611728,-7.48906279297,-8.21690009766,1.0,0.0,0.0,0.0,1.0,0.0,0.0,0.0,1.0
1463663009531771614,852,1463663009516290116,,35.1029129028,2.61131119728,-161.81590271,0.0101269995794,1.0,0.0,0.0,0.0,1.0,0.0,0.0,0.0,1.0,73.5975646973,-11.0365858078,13.7804880142,1.0,0.0,0.0,0.0,1.0,0.0,0.0,0.0,1.0,0.469263525391,-7.64229169922,-8.41322404927,1.0,0.0,0.0,0.0,1.0,0.0,0.0,0.0,1.0
1463663009658302210,853,1463663009526615142,,35.8469543457,2.59975552559,-162.091781616,0.0100819999352,1.0,0.0,0.0,0.0,1.0,0.0,0.0,0.0,1.0,62.6219520569,-14.8170728683,14.5731706619,1.0,0.0,0.0,0.0,1.0,0.0,0.0,0.0,1.0,0.134075302102,-7.94874951172,-8.15465085449,1.0,0.0,0.0,0.0,1.0,0.0,0.0,0.0,1.0
1463663009658626367,854,1463663009536656159,,36.4742355347,2.56053209305,-162.368972778,0.0100910002366,1.0,0.0,0.0,0.0,1.0,0.0,0.0,0.0,1.0,50.9146347046,-15.6707315445,15.0609760284,1.0,0.0,0.0,0.0,1.0,0.0,0.0,0.0,1.0,-0.296881024126,-8.25520732422,-8.23126530762,1.0,0.0,0.0,0.0,1.0,0.0,0.0,0.0,1.0
1463663009658923394,855,1463663009546564753,,36.9780693054,2.52818250656,-162.660964966,0.0100969998166,1.0,0.0,0.0,0.0,1.0,0.0,0.0,0.0,1.0,38.1707305908,-15.9146347046,13.4146347046,1.0,0.0,0.0,0.0,1.0,0.0,0.0,0.0,1.0,-0.407014282227,-8.90164177246,-8.51857009136,1.0,0.0,0.0,0.0,1.0,0.0,0.0,0.0,1.0
1463663009659405439,856,1463663009556878063,,37.3277130127,2.48955559731,-162.958404541,0.0101309996098,1.0,0.0,0.0,0.0,1.0,0.0,0.0,0.0,1.0,23.7195129395,-16.5853652954,13.4146347046,1.0,0.0,0.0,0.0,1.0,0.0,0.0,0.0,1.0,-0.46447512207,-8.61433815776,-8.3749168227,1.0,0.0,0.0,0.0,1.0,0.0,0.0,0.0,1.0
1463663009659713193,857,1463663009566599036,,37.533908844,2.445489645,-163.252365112,0.0100840004161,1.0,0.0,0.0,0.0,1.0,0.0,0.0,0.0,1.0,12.2560977936,-16.4634151459,13.7195129395,1.0,0.0,0.0,0.0,1.0,0.0,0.0,0.0,1.0,-0.584185168546,-8.05409438477,-8.49462807476,1.0,0.0,0.0,0.0,1.0,0.0,0.0,0.0,1.0
1463663009660009647,858,1463663009581342081,,37.6009140015,2.40571069717,-163.549087524,0.010098000057,1.0,0.0,0.0,0.0,1.0,0.0,0.0,0.0,1.0,-1.95121955872,-15.8536596298,12.9268293381,1.0,0.0,0.0,0.0,1.0,0.0,0.0,0.0,1.0,-0.751779321289,-8.49941647808,-8.77714328613,1.0,0.0,0.0,0.0,1.0,0.0,0.0,0.0,1.0
1463663009660336669,859,1463663009590050746,,37.5947608948,2.36843156815,-163.858596802,0.0102150002494,1.0,0.0,0.0,0.0,1.0,0.0,0.0,0.0,1.0,-9.81707286835,-15.7317075729,11.6463422775,1.0,0.0,0.0,0.0,1.0,0.0,0.0,0.0,1.0,-0.900219824219,-8.68137521973,-8.73883605957,1.0,0.0,0.0,0.0,1.0,0.0,0.0,0.0,1.0
1463663009660656244,860,1463663009597366497,,37.4893264771,2.33977842331,-164.169586182,0.00999999977648,1.0,0.0,0.0,0.0,1.0,0.0,0.0,0.0,1.0,-18.7804889679,-15.3048791885,10.3658542633,1.0,0.0,0.0,0.0,1.0,0.0,0.0,0.0,1.0,-0.967257470703,-8.46589648579,-8.82023891602,1.0,0.0,0.0,0.0,1.0,0.0,0.0,0.0,1.0
1463663009660998783,861,1463663009607577014,,37.2622795105,2.34487271309,-164.512695312,0.0104229999706,1.0,0.0,0.0,0.0,1.0,0.0,0.0,0.0,1.0,-28.9024410248,-14.4512205124,7.50000047684,1.0,0.0,0.0,0.0,1.0,0.0,0.0,0.0,1.0,-0.756567724609,-8.36534001606,-9.08360109863,1.0,0.0,0.0,0.0,1.0,0.0,0.0,0.0,1.0
1463663009661335490,862,1463663009617588662,,36.9619789124,2.37902927399,-164.856918335,0.00977899972349,1.0,0.0,0.0,0.0,1.0,0.0,0.0,0.0,1.0,-38.2926864624,-13.5365858078,3.96341490746,1.0,0.0,0.0,0.0,1.0,0.0,0.0,0.0,1.0,-0.699106884766,-8.5042048814,-9.1219083252,1.0,0.0,0.0,0.0,1.0,0.0,0.0,0.0,1.0
1463663009661654024,863,1463663009627702530,,36.5340423584,2.44535112381,-165.245544434,0.0101229995489,1.0,0.0,0.0,0.0,1.0,0.0,0.0,0.0,1.0,-49.4512176514,-12.8658542633,-0.426829278469,1.0,0.0,0.0,0.0,1.0,0.0,0.0,0.0,1.0,-0.660799658203,-8.3509748061,-9.13148513184,1.0,0.0,0.0,0.0,1.0,0.0,0.0,0.0,1.0
1463663009661946729,864,1463663009638007195,,35.9895133972,2.54349970818,-165.664733887,0.0100880004466,1.0,0.0,0.0,0.0,1.0,0.0,0.0,0.0,1.0,-59.0853652954,-12.0731716156,-4.69512224197,1.0,0.0,0.0,0.0,1.0,0.0,0.0,0.0,1.0,-0.541089611728,-7.56088884277,-8.97825622559,1.0,0.0,0.0,0.0,1.0,0.0,0.0,0.0,1.0
1463663009708860614,865,1463663009647677136,,35.368270874,2.66511940956,-166.122329712,0.0100830001757,1.0,0.0,0.0,0.0,1.0,0.0,0.0,0.0,1.0,-66.2804946899,-10.9756097794,-10.0,1.0,0.0,0.0,0.0,1.0,0.0,0.0,0.0,1.0,-0.76614453125,-7.3310454834,-8.9351605957,1.0,0.0,0.0,0.0,1.0,0.0,0.0,0.0,1.0
1463663009709310113,866,1463663009658422500,,34.6718177795,2.80692458153,-166.610443115,0.0101140001789,1.0,0.0,0.0,0.0,1.0,0.0,0.0,0.0,1.0,-74.5731735229,-8.96341514587,-14.7560987473,1.0,0.0,0.0,0.0,1.0,0.0,0.0,0.0,1.0,-1.13485158691,-7.43639035645,-8.84418093262,1.0,0.0,0.0,0.0,1.0,0.0,0.0,0.0,1.0
1463663009709648590,867,1463663009668141078,,33.882610321,2.98504734039,-167.114822388,0.0101070003584,1.0,0.0,0.0,0.0,1.0,0.0,0.0,0.0,1.0,-83.8414611816,-6.21951246262,-18.2926826477,1.0,0.0,0.0,0.0,1.0,0.0,0.0,0.0,1.0,-1.08696755371,-7.20654699707,-8.70531723633,1.0,0.0,0.0,0.0,1.0,0.0,0.0,0.0,1.0
1463663009709939994,868,1463663009677954898,,33.0113487244,3.1968421936,-167.636184692,0.0100840004161,1.0,0.0,0.0,0.0,1.0,0.0,0.0,0.0,1.0,-91.1585388184,-4.39024400711,-21.158536911,1.0,0.0,0.0,0.0,1.0,0.0,0.0,0.0,1.0,-0.837970581055,-6.88572397461,-8.79150849609,1.0,0.0,0.0,0.0,1.0,0.0,0.0,0.0,1.0
1463663009727597174,869,1463663009687897965,,32.0464782715,3.42923283577,-168.184936523,0.0100790001452,1.0,0.0,0.0,0.0,1.0,0.0,0.0,0.0,1.0,-99.207321167,-3.47560977936,-24.3902435303,1.0,0.0,0.0,0.0,1.0,0.0,0.0,0.0,1.0,-0.699106884766,-6.40688364258,-8.73883605957,1.0,0.0,0.0,0.0,1.0,0.0,0.0,0.0,1.0
1463663009727671795,870,1463663009698639006,,30.9848670959,3.6730992794,-168.775695801,0.0102270003408,1.0,0.0,0.0,0.0,1.0,0.0,0.0,0.0,1.0,-105.914634705,-3.41463422775,-27.6219520569,1.0,0.0,0.0,0.0,1.0,0.0,0.0,0.0,1.0,-0.636857641602,-5.96635053711,-8.73883605957,1.0,0.0,0.0,0.0,1.0,0.0,0.0,0.0,1.0
1463663009727712152,871,1463663009708326913,,29.8743228912,3.9058868885,-169.388641357,0.010053999722,1.0,0.0,0.0,0.0,1.0,0.0,0.0,0.0,1.0,-111.585365295,-4.02439022064,-30.2439022064,1.0,0.0,0.0,0.0,1.0,0.0,0.0,0.0,1.0,-0.670376464844,-5.7508723877,-8.95431420898,1.0,0.0,0.0,0.0,1.0,0.0,0.0,0.0,1.0
1463663009728240073,872,1463663009718906631,,28.6983242035,4.14050579071,-170.036834717,0.0100720003247,1.0,0.0,0.0,0.0,1.0,0.0,0.0,0.0,1.0,-117.256103516,-4.20731735229,-33.2926826477,1.0,0.0,0.0,0.0,1.0,0.0,0.0,0.0,1.0,-0.612915625,-5.4683565918,-8.94473740234,1.0,0.0,0.0,0.0,1.0,0.0,0.0,0.0,1.0
1463663009751979124,873,1463663009728401657,,27.4610729218,4.36668491364,-170.709960938,0.0100570004433,1.0,0.0,0.0,0.0,1.0,0.0,0.0,0.0,1.0,-122.987808228,-4.93902444839,-35.0609741211,1.0,0.0,0.0,0.0,1.0,0.0,0.0,0.0,1.0,-0.493205541992,-5.17626398926,-8.90643017578,1.0,0.0,0.0,0.0,1.0,0.0,0.0,0.0,1.0
1463663009753170982,874,1463663009739635418,,26.1241416931,4.5827703476,-171.417480469,0.0101309996098,1.0,0.0,0.0,0.0,1.0,0.0,0.0,0.0,1.0,-128.048782349,-5.54878091812,-36.9512214661,1.0,0.0,0.0,0.0,1.0,0.0,0.0,0.0,1.0,-0.430956298828,-4.27125605398,-8.96867941895,1.0,0.0,0.0,0.0,1.0,0.0,0.0,0.0,1.0
1463663009753589601,875,1463663009748855601,,24.7541637421,4.78579711914,-172.141799927,0.010095000267,1.0,0.0,0.0,0.0,1.0,0.0,0.0,0.0,1.0,-130.182922363,-5.73170757294,-38.1097564697,1.0,0.0,0.0,0.0,1.0,0.0,0.0,0.0,1.0,-0.363918652344,-3.72058937988,-8.81066210937,1.0,0.0,0.0,0.0,1.0,0.0,0.0,0.0,1.0
1463663009821611577,876,1463663009759426986,,23.3171825409,4.95235919952,-172.887435913,0.0101830000058,1.0,0.0,0.0,0.0,1.0,0.0,0.0,0.0,1.0,-131.829269409,-6.34146356583,-38.4146347046,1.0,0.0,0.0,0.0,1.0,0.0,0.0,0.0,1.0,-0.598550451572,-2.94007963867,-9.03571706543,1.0,0.0,0.0,0.0,1.0,0.0,0.0,0.0,1.0
1463663009821918758,877,1463663009769047875,,21.913936615,5.11937379837,-173.632171631,0.0100640002638,1.0,0.0,0.0,0.0,1.0,0.0,0.0,0.0,1.0,-131.341461182,-5.67073154449,-38.9634132385,1.0,0.0,0.0,0.0,1.0,0.0,0.0,0.0,1.0,-0.363918652344,-2.94965644531,-9.03092866211,1.0,0.0,0.0,0.0,1.0,0.0,0.0,0.0,1.0
1463663009822278482,878,1463663009779329784,,20.5060634613,5.2409734726,-174.372787476,0.0100579997525,1.0,0.0,0.0,0.0,1.0,0.0,0.0,0.0,1.0,-131.89024353,-5.67073154449,-37.9878044128,1.0,0.0,0.0,0.0,1.0,0.0,0.0,0.0,1.0,-0.727837304687,-2.71981308594,-8.99740983887,1.0,0.0,0.0,0.0,1.0,0.0,0.0,0.0,1.0
1463663009822928880,879,1463663009789041957,,19.0778617859,5.35446453094,-175.113677979,0.0100849997252,1.0,0.0,0.0,0.0,1.0,0.0,0.0,0.0,1.0,-131.829269409,-5.97560977936,-36.9512214661,1.0,0.0,0.0,0.0,1.0,0.0,0.0,0.0,1.0,-0.440533105469,-2.25054956055,-9.16021555176,1.0,0.0,0.0,0.0,1.0,0.0,0.0,0.0,1.0
1463663009823251006,880,1463663009801632544,,17.6361217499,5.42141151428,-175.851135254,0.010106000118,1.0,0.0,0.0,0.0,1.0,0.0,0.0,0.0,1.0,-130.487808228,-7.56097555161,-35.1829299927,1.0,0.0,0.0,0.0,1.0,0.0,0.0,0.0,1.0,-0.550666381836,-1.62805712891,-9.25598361816,1.0,0.0,0.0,0.0,1.0,0.0,0.0,0.0,1.0
1463663009823543139,881,1463663009809400866,,16.2002944946,5.47432518005,-176.581878662,0.0100999996066,1.0,0.0,0.0,0.0,1.0,0.0,0.0,0.0,1.0,-128.780487061,-6.95121955872,-34.2073173523,1.0,0.0,0.0,0.0,1.0,0.0,0.0,0.0,1.0,-0.531512805087,-1.21146604004,-9.47146118306,1.0,0.0,0.0,0.0,1.0,0.0,0.0,0.0,1.0
1463663009823864276,882,1463663009819661477,,14.78510952,5.47141551971,-177.307189941,0.0101269995794,1.0,0.0,0.0,0.0,1.0,0.0,0.0,0.0,1.0,-124.512199402,-9.39024448395,-32.2560958862,1.0,0.0,0.0,0.0,1.0,0.0,0.0,0.0,1.0,-0.665588061523,-0.632069238281,-9.32780908345,1.0,0.0,0.0,0.0,1.0,0.0,0.0,0.0,1.0
1463663009874528702,883,1463663009829651150,,13.4110898972,5.44763660431,-178.01524353,0.0100739998743,1.0,0.0,0.0,0.0,1.0,0.0,0.0,0.0,1.0,-119.268287659,-9.81707286835,-30.3658542633,1.0,0.0,0.0,0.0,1.0,0.0,0.0,0.0,1.0,-0.593762048251,-0.0526724365234,-9.42357714985,1.0,0.0,0.0,0.0,1.0,0.0,0.0,0.0,1.0
1463663009874566455,884,1463663009840889284,,12.039481163,5.45508909225,-178.695419312,0.0101370001212,1.0,0.0,0.0,0.0,1.0,0.0,0.0,0.0,1.0,-118.231712341,-8.59756088257,-27.1951236725,1.0,0.0,0.0,0.0,1.0,0.0,0.0,0.0,1.0,0.114921679688,0.215478149414,-9.42357714985,1.0,0.0,0.0,0.0,1.0,0.0,0.0,0.0,1.0
1463663009874601657,885,1463663009850610310,,10.7709779739,5.34496068954,-179.344207764,0.0100880004466,1.0,0.0,0.0,0.0,1.0,0.0,0.0,0.0,1.0,-111.89024353,-12.1951217651,-23.9024391174,1.0,0.0,0.0,0.0,1.0,0.0,0.0,0.0,1.0,-0.871489404297,-0.0478840332031,-9.34217429341,1.0,0.0,0.0,0.0,1.0,0.0,0.0,0.0,1.0
1463663009899848496,886,1463663009860883679,,9.51080131531,5.23753643036,-179.965377808,0.0100769996643,1.0,0.0,0.0,0.0,1.0,0.0,0.0,0.0,1.0,-107.926834106,-12.4390249252,-20.8536586761,1.0,0.0,0.0,0.0,1.0,0.0,0.0,0.0,1.0,-0.493205541992,0.77093293457,-9.27513723145,1.0,0.0,0.0,0.0,1.0,0.0,0.0,0.0,1.0
1463663009903006023,887,1463663009870391932,,8.30504608154,5.11367464066,179.440963745,0.0101100001484,1.0,0.0,0.0,0.0,1.0,0.0,0.0,0.0,1.0,-102.743904114,-12.8048782349,-17.9878044128,1.0,0.0,0.0,0.0,1.0,0.0,0.0,0.0,1.0,-0.435744702148,0.957680664062,-9.44273076313,1.0,0.0,0.0,0.0,1.0,0.0,0.0,0.0,1.0
1463663009904219596,888,1463663009880813399,,7.18032360077,4.93432569504,178.870040894,0.0101460004225,1.0,0.0,0.0,0.0,1.0,0.0,0.0,0.0,1.0,-97.7439041138,-14.2682924271,-15.7926826477,1.0,0.0,0.0,0.0,1.0,0.0,0.0,0.0,1.0,-0.91458503418,0.665588061523,-9.90720646973,1.0,0.0,0.0,0.0,1.0,0.0,0.0,0.0,1.0
1463663009904269847,889,1463663009890712255,,6.10353183746,4.78017377853,178.308441162,0.0100649995729,1.0,0.0,0.0,0.0,1.0,0.0,0.0,0.0,1.0,-92.8658599854,-12.5,-15.6097564697,1.0,0.0,0.0,0.0,1.0,0.0,0.0,0.0,1.0,-0.622492431641,1.02950671387,-9.45230756977,1.0,0.0,0.0,0.0,1.0,0.0,0.0,0.0,1.0
