%time,field.header.seq,field.header.stamp,field.header.frame_id,field.orientation.x,field.orientation.y,field.orientation.z,field.orientation.w,field.orientation_covariance0,field.orientation_covariance1,field.orientation_covariance2,field.orientation_covariance3,field.orientation_covariance4,field.orientation_covariance5,field.orientation_covariance6,field.orientation_covariance7,field.orientation_covariance8,field.angular_velocity.x,field.angular_velocity.y,field.angular_velocity.z,field.angular_velocity_covariance0,field.angular_velocity_covariance1,field.angular_velocity_covariance2,field.angular_velocity_covariance3,field.angular_velocity_covariance4,field.angular_velocity_covariance5,field.angular_velocity_covariance6,field.angular_velocity_covariance7,field.angular_velocity_covariance8,field.linear_acceleration.x,field.linear_acceleration.y,field.linear_acceleration.z,field.linear_acceleration_covariance0,field.linear_acceleration_covariance1,field.linear_acceleration_covariance2,field.linear_acceleration_covariance3,field.linear_acceleration_covariance4,field.linear_acceleration_covariance5,field.linear_acceleration_covariance6,field.linear_acceleration_covariance7,field.linear_acceleration_covariance8
1480508886206675796,436,1480508885937553093,,-1.82792329788,-1.38414239883,175.272689819,0.00165400002152,1.0,0.0,0.0,0.0,1.0,0.0,0.0,0.0,1.0,-0.12195122242,0.548780500889,-0.12195122242,1.0,0.0,0.0,0.0,1.0,0.0,0.0,0.0,1.0,1.28329208984,-0.272938989258,10.0843773926,1.0,0.0,0.0,0.0,1.0,0.0,0.0,0.0,1.0
1480508886206751525,437,1480508885958698052,,-1.86598920822,-1.38363862038,175.26260376,0.00157199997921,1.0,0.0,0.0,0.0,1.0,0.0,0.0,0.0,1.0,0.0,1.34146344662,-0.0609756112099,1.0,0.0,0.0,0.0,1.0,0.0,0.0,0.0,1.0,1.30723410645,-0.181959326172,10.1322614258,1.0,0.0,0.0,0.0,1.0,0.0,0.0,0.0,1.0
1480508886206793816,438,1480508885979020616,,-1.89229381084,-1.38111591339,175.2474823,0.00181399995927,1.0,0.0,0.0,0.0,1.0,0.0,0.0,0.0,1.0,-0.12195122242,2.19512200356,-0.304878056049,1.0,0.0,0.0,0.0,1.0,0.0,0.0,0.0,1.0,1.28329208984,-0.148440512063,10.2567599121,1.0,0.0,0.0,0.0,1.0,0.0,0.0,0.0,1.0
1480508886206835118,439,1480508885999699534,,-1.89835035801,-1.38346159458,175.227767944,0.00140299997292,1.0,0.0,0.0,0.0,1.0,0.0,0.0,0.0,1.0,-0.243902444839,2.56097555161,-0.609756112099,1.0,0.0,0.0,0.0,1.0,0.0,0.0,0.0,1.0,1.14921679688,-0.205901342773,10.2376062988,1.0,0.0,0.0,0.0,1.0,0.0,0.0,0.0,1.0
1480508886207968866,440,1480508886020815691,,-1.89462733269,-1.38593697548,175.210617065,0.00142200000118,1.0,0.0,0.0,0.0,1.0,0.0,0.0,0.0,1.0,-0.487804889679,2.56097555161,-0.18292683363,1.0,0.0,0.0,0.0,1.0,0.0,0.0,0.0,1.0,1.21146604004,-0.15801730957,10.1897222656,1.0,0.0,0.0,0.0,1.0,0.0,0.0,0.0,1.0
1480508886208019335,441,1480508886042243774,,-1.88026595116,-1.38300848007,175.191741943,0.0051959999837,1.0,0.0,0.0,0.0,1.0,0.0,0.0,0.0,1.0,-0.426829278469,2.13414645195,-0.426829278469,1.0,0.0,0.0,0.0,1.0,0.0,0.0,0.0,1.0,0.972045874023,-0.143652099609,10.1226846191,1.0,0.0,0.0,0.0,1.0,0.0,0.0,0.0,1.0
1480508886208055637,442,1480508886062917379,,-1.87606418133,-1.3825289011,175.174224854,0.00132999999914,1.0,0.0,0.0,0.0,1.0,0.0,0.0,0.0,1.0,0.12195122242,0.975609779358,-0.243902444839,1.0,0.0,0.0,0.0,1.0,0.0,0.0,0.0,1.0,0.962469067383,-0.162805712891,10.1178962158,1.0,0.0,0.0,0.0,1.0,0.0,0.0,0.0,1.0
1480508886208149699,443,1480508886084887388,,-1.90199005604,-1.38309383392,175.157211304,0.00174400000833,1.0,0.0,0.0,0.0,1.0,0.0,0.0,0.0,1.0,-0.18292683363,-0.853658556938,-0.548780500889,1.0,0.0,0.0,0.0,1.0,0.0,0.0,0.0,1.0,0.991199487305,-0.067037651051,10.1897222656,1.0,0.0,0.0,0.0,1.0,0.0,0.0,0.0,1.0
1480508886208189126,444,1480508886105657087,,-1.96096789837,-1.38360488415,175.143188477,0.0013190000318,1.0,0.0,0.0,0.0,1.0,0.0,0.0,0.0,1.0,-0.12195122242,-0.670731723309,-0.0609756112099,1.0,0.0,0.0,0.0,1.0,0.0,0.0,0.0,1.0,1.20667770978,-0.167594116211,10.1226846191,1.0,0.0,0.0,0.0,1.0,0.0,0.0,0.0,1.0
1480508886208242303,445,1480508886127148764,,-2.02892541885,-1.3851121664,175.131790161,0.00128500000574,1.0,0.0,0.0,0.0,1.0,0.0,0.0,0.0,1.0,-0.792682945728,-0.304878056049,-0.304878056049,1.0,0.0,0.0,0.0,1.0,0.0,0.0,0.0,1.0,1.29286889648,-0.124498486328,10.1514150391,1.0,0.0,0.0,0.0,1.0,0.0,0.0,0.0,1.0
1480508886208287147,446,1480508886148268254,,-2.08270049095,-1.41424500942,175.118118286,0.00743900006637,1.0,0.0,0.0,0.0,1.0,0.0,0.0,0.0,1.0,-1.03658533096,0.0609756112099,-0.0609756112099,1.0,0.0,0.0,0.0,1.0,0.0,0.0,0.0,1.0,1.21146604004,-0.363918652344,10.2088758789,1.0,0.0,0.0,0.0,1.0,0.0,0.0,0.0,1.0
1480508886208324803,447,1480508886169628993,,-2.12943911552,-1.43801605701,175.100784302,0.00124799995683,1.0,0.0,0.0,0.0,1.0,0.0,0.0,0.0,1.0,-1.2195122242,-0.365853667259,0.0609756112099,1.0,0.0,0.0,0.0,1.0,0.0,0.0,0.0,1.0,1.0534486574,-0.220266552734,10.1035310059,1.0,0.0,0.0,0.0,1.0,0.0,0.0,0.0,1.0
1480508886208383813,448,1480508886190813275,,-2.17512512207,-1.44643211365,175.097244263,0.00118400005158,1.0,0.0,0.0,0.0,1.0,0.0,0.0,0.0,1.0,-0.426829278469,-1.2804877758,0.365853667259,1.0,0.0,0.0,0.0,1.0,0.0,0.0,0.0,1.0,0.852335791016,-0.497993945312,9.36132790669,1.0,0.0,0.0,0.0,1.0,0.0,0.0,0.0,1.0
1480508886216770099,449,1480508886211520838,,-2.24176430702,-1.44947421551,175.100814819,0.00117099995259,1.0,0.0,0.0,0.0,1.0,0.0,0.0,0.0,1.0,-0.426829278469,-1.70731711388,0.609756112099,1.0,0.0,0.0,0.0,1.0,0.0,0.0,0.0,1.0,1.21146604004,-0.210689746094,10.1753570557,1.0,0.0,0.0,0.0,1.0,0.0,0.0,0.0,1.0
1480508886237517558,450,1480508886234976470,,-2.32537913322,-1.4529645443,175.112228394,0.00109100004192,1.0,0.0,0.0,0.0,1.0,0.0,0.0,0.0,1.0,-0.548780500889,-1.15853655338,1.2195122242,1.0,0.0,0.0,0.0,1.0,0.0,0.0,0.0,1.0,1.38863696289,-0.177170922852,10.1370498291,1.0,0.0,0.0,0.0,1.0,0.0,0.0,0.0,1.0
1480508886259356266,451,1480508886253464715,,-2.40666627884,-1.46293914318,175.120773315,0.00144400005229,1.0,0.0,0.0,0.0,1.0,0.0,0.0,0.0,1.0,-0.731707334518,0.365853667259,0.548780500889,1.0,0.0,0.0,0.0,1.0,0.0,0.0,0.0,1.0,1.44130939941,-0.253785375977,10.2471831055,1.0,0.0,0.0,0.0,1.0,0.0,0.0,0.0,1.0
1480508886276476440,452,1480508886273852175,,-2.46316719055,-1.48220956326,175.123123169,0.0013490000274,1.0,0.0,0.0,0.0,1.0,0.0,0.0,0.0,1.0,-0.853658556938,0.304878056049,0.0,1.0,0.0,0.0,0.0,1.0,0.0,0.0,0.0,1.0,1.37427175293,-0.177170922852,10.1609918457,1.0,0.0,0.0,0.0,1.0,0.0,0.0,0.0,1.0
1480508886313325795,453,1480508886302257067,,-2.56039500237,-1.37160468102,175.116195679,0.00770699977875,1.0,0.0,0.0,0.0,1.0,0.0,0.0,0.0,1.0,0.792682945728,1.15853655338,-0.243902444839,1.0,0.0,0.0,0.0,1.0,0.0,0.0,0.0,1.0,1.14442839355,-0.186747729492,10.2088758789,1.0,0.0,0.0,0.0,1.0,0.0,0.0,0.0,1.0
1480508886324399367,454,1480508886322437653,,-2.59506845474,-1.36402869225,175.101196289,0.00122400000691,1.0,0.0,0.0,0.0,1.0,0.0,0.0,0.0,1.0,0.792682945728,0.243902444839,-0.548780500889,1.0,0.0,0.0,0.0,1.0,0.0,0.0,0.0,1.0,1.17315874041,-0.253785375977,10.1945106689,1.0,0.0,0.0,0.0,1.0,0.0,0.0,0.0,1.0
1480508886345350368,455,1480508886343283393,,-2.63069248199,-1.37045192719,175.087127686,0.000982000026852,1.0,0.0,0.0,0.0,1.0,0.0,0.0,0.0,1.0,-0.12195122242,0.792682945728,-0.0609756112099,1.0,0.0,0.0,0.0,1.0,0.0,0.0,0.0,1.0,1.32638771973,-0.134075302102,10.1945106689,1.0,0.0,0.0,0.0,1.0,0.0,0.0,0.0,1.0
1480508886366558295,456,1480508886364418508,,-2.66105389595,-1.36118853092,175.080215454,0.0010450000409,1.0,0.0,0.0,0.0,1.0,0.0,0.0,0.0,1.0,-0.609756112099,2.43902444839,0.304878056049,1.0,0.0,0.0,0.0,1.0,0.0,0.0,0.0,1.0,1.40300217285,-0.114921679688,10.0795889893,1.0,0.0,0.0,0.0,1.0,0.0,0.0,0.0,1.0
1480508886388254659,457,1480508886384840239,,-2.68802428246,-1.36396241188,175.067352295,0.000960999983363,1.0,0.0,0.0,0.0,1.0,0.0,0.0,0.0,1.0,0.426829278469,3.17073178291,-0.18292683363,1.0,0.0,0.0,0.0,1.0,0.0,0.0,0.0,1.0,1.63763393555,-0.0622492431641,10.1370498291,1.0,0.0,0.0,0.0,1.0,0.0,0.0,0.0,1.0
1480508886407918944,458,1480508886405602646,,-2.6778345108,-1.35695946217,175.037139893,0.0010969999712,1.0,0.0,0.0,0.0,1.0,0.0,0.0,0.0,1.0,0.243902444839,4.69512224197,-1.2195122242,1.0,0.0,0.0,0.0,1.0,0.0,0.0,0.0,1.0,1.32159931641,-0.272938989258,10.2423947021,1.0,0.0,0.0,0.0,1.0,0.0,0.0,0.0,1.0
1480508886429277756,459,1480508886426566147,,-2.62905192375,-1.34796380997,175.00289917,0.00107400002889,1.0,0.0,0.0,0.0,1.0,0.0,0.0,0.0,1.0,0.0609756112099,5.54878091812,-1.40243899822,1.0,0.0,0.0,0.0,1.0,0.0,0.0,0.0,1.0,1.37427175293,-0.138863696289,10.285490332,1.0,0.0,0.0,0.0,1.0,0.0,0.0,0.0,1.0
1480508886450093288,460,1480508886447078294,,-2.5593996048,-1.34049057961,174.966445923,0.000969999993686,1.0,0.0,0.0,0.0,1.0,0.0,0.0,0.0,1.0,-0.18292683363,6.82926845551,-1.34146344662,1.0,0.0,0.0,0.0,1.0,0.0,0.0,0.0,1.0,1.32638771973,-0.248996972656,10.2184526855,1.0,0.0,0.0,0.0,1.0,0.0,0.0,0.0,1.0
1480508886472232620,461,1480508886467897628,,-2.47406482697,-1.33560371399,174.924026489,0.000960999983363,1.0,0.0,0.0,0.0,1.0,0.0,0.0,0.0,1.0,-0.12195122242,7.43902492523,-1.09756100178,1.0,0.0,0.0,0.0,1.0,0.0,0.0,0.0,1.0,1.39342536621,-0.15801730957,10.2615483154,1.0,0.0,0.0,0.0,1.0,0.0,0.0,0.0,1.0
1480508886490503157,462,1480508886488644463,,-2.37212443352,-1.33415234089,174.887664795,0.000966000021435,1.0,0.0,0.0,0.0,1.0,0.0,0.0,0.0,1.0,0.304878056049,7.19512224197,-1.34146344662,1.0,0.0,0.0,0.0,1.0,0.0,0.0,0.0,1.0,1.28808049316,-0.335188232422,9.89284125977,1.0,0.0,0.0,0.0,1.0,0.0,0.0,0.0,1.0
1480508886513763997,463,1480508886509876609,,-2.26076054573,-1.32693433762,174.857818604,0.00100699998438,1.0,0.0,0.0,0.0,1.0,0.0,0.0,0.0,1.0,0.670731723309,5.60975599289,-0.18292683363,1.0,0.0,0.0,0.0,1.0,0.0,0.0,0.0,1.0,1.16837033709,-0.0814028564453,10.5296989014,1.0,0.0,0.0,0.0,1.0,0.0,0.0,0.0,1.0
1480508886537219211,464,1480508886531019536,,-2.16556286812,-1.31907045841,174.82975769,0.00102700002026,1.0,0.0,0.0,0.0,1.0,0.0,0.0,0.0,1.0,0.0609756112099,4.39024400711,-0.914634168148,1.0,0.0,0.0,0.0,1.0,0.0,0.0,0.0,1.0,0.804451757813,-0.124498486328,10.1131078125,1.0,0.0,0.0,0.0,1.0,0.0,0.0,0.0,1.0
1480508886557084954,465,1480508886552220849,,-2.10602474213,-1.30049395561,174.804977417,0.001007999992,1.0,0.0,0.0,0.0,1.0,0.0,0.0,0.0,1.0,-0.12195122242,2.98780488968,-0.487804889679,1.0,0.0,0.0,0.0,1.0,0.0,0.0,0.0,1.0,0.76614453125,0.067037651051,10.0795889893,1.0,0.0,0.0,0.0,1.0,0.0,0.0,0.0,1.0
1480508886575724448,466,1480508886573301589,,-2.08550858498,-1.30401611328,174.788711548,0.00126900000032,1.0,0.0,0.0,0.0,1.0,0.0,0.0,0.0,1.0,0.18292683363,2.56097555161,0.0609756112099,1.0,0.0,0.0,0.0,1.0,0.0,0.0,0.0,1.0,0.972045874023,-0.282515795898,10.0939541992,1.0,0.0,0.0,0.0,1.0,0.0,0.0,0.0,1.0
1480508886597598989,467,1480508886594906182,,-2.10245943069,-1.3117672205,174.773681641,0.00121200003196,1.0,0.0,0.0,0.0,1.0,0.0,0.0,0.0,1.0,0.243902444839,1.95121955872,-0.609756112099,1.0,0.0,0.0,0.0,1.0,0.0,0.0,0.0,1.0,1.31202250977,-0.239420166016,10.0700121826,1.0,0.0,0.0,0.0,1.0,0.0,0.0,0.0,1.0
1480508886622057327,468,1480508886615456454,,-2.11148309708,-1.31331133842,174.753112793,0.00135200005025,1.0,0.0,0.0,0.0,1.0,0.0,0.0,0.0,1.0,-0.0609756112099,2.5,-0.731707334518,1.0,0.0,0.0,0.0,1.0,0.0,0.0,0.0,1.0,1.1875240965,-0.134075302102,10.1705686523,1.0,0.0,0.0,0.0,1.0,0.0,0.0,0.0,1.0
1480508886641215310,469,1480508886636157143,,-2.1037375927,-1.30943262577,174.730331421,0.0014530000044,1.0,0.0,0.0,0.0,1.0,0.0,0.0,0.0,1.0,0.18292683363,1.52439022064,-0.365853667259,1.0,0.0,0.0,0.0,1.0,0.0,0.0,0.0,1.0,0.986411083984,-0.272938989258,10.1035310059,1.0,0.0,0.0,0.0,1.0,0.0,0.0,0.0,1.0
1480508886660216314,470,1480508886657260278,,-2.10248804092,-1.30799400806,174.720596313,0.00116500002332,1.0,0.0,0.0,0.0,1.0,0.0,0.0,0.0,1.0,0.365853667259,0.365853667259,0.304878056049,1.0,0.0,0.0,0.0,1.0,0.0,0.0,0.0,1.0,1.00077629395,-0.301669427446,10.1418382324,1.0,0.0,0.0,0.0,1.0,0.0,0.0,0.0,1.0
1480508886683000020,471,1480508886678168779,,-2.14319062233,-1.29491281509,174.721237183,0.00121100002434,1.0,0.0,0.0,0.0,1.0,0.0,0.0,0.0,1.0,0.365853667259,0.0,0.304878056049,1.0,0.0,0.0,0.0,1.0,0.0,0.0,0.0,1.0,1.31202250977,-0.0622492431641,10.2088758789,1.0,0.0,0.0,0.0,1.0,0.0,0.0,0.0,1.0
1480508886701772639,472,1480508886698860249,,-2.2036318779,-1.27844333649,174.716293335,0.0011040000245,1.0,0.0,0.0,0.0,1.0,0.0,0.0,0.0,1.0,0.792682945728,1.8902438879,0.0,1.0,0.0,0.0,0.0,1.0,0.0,0.0,0.0,1.0,1.63284553223,-0.282515795898,10.1083194092,1.0,0.0,0.0,0.0,1.0,0.0,0.0,0.0,1.0
1480508886723398639,473,1480508886720598800,,-2.23523211479,-1.27951049805,174.694259644,0.00115100003313,1.0,0.0,0.0,0.0,1.0,0.0,0.0,0.0,1.0,0.0,4.2682929039,-1.03658533096,1.0,0.0,0.0,0.0,1.0,0.0,0.0,0.0,1.0,1.69030637207,-0.205901342773,10.1897222656,1.0,0.0,0.0,0.0,1.0,0.0,0.0,0.0,1.0
1480508886744149379,474,1480508886741362874,,-2.20258331299,-1.28235161304,174.663131714,0.00112899998203,1.0,0.0,0.0,0.0,1.0,0.0,0.0,0.0,1.0,0.365853667259,5.12195110321,-0.670731723309,1.0,0.0,0.0,0.0,1.0,0.0,0.0,0.0,1.0,1.1540052002,-0.3064578125,10.2040874756,1.0,0.0,0.0,0.0,1.0,0.0,0.0,0.0,1.0
1480508886765179338,475,1480508886762357052,,-2.12477064133,-1.2667722702,174.638961792,0.00102099997457,1.0,0.0,0.0,0.0,1.0,0.0,0.0,0.0,1.0,0.426829278469,4.08536577225,-0.365853667259,1.0,0.0,0.0,0.0,1.0,0.0,0.0,0.0,1.0,0.857124194336,-0.15801730957,10.0795889893,1.0,0.0,0.0,0.0,1.0,0.0,0.0,0.0,1.0
1480508886786501484,476,1480508886783784562,,-2.06411743164,-1.23599004745,174.631347656,0.00107999995816,1.0,0.0,0.0,0.0,1.0,0.0,0.0,0.0,1.0,-4.32926845551,5.60975599289,0.609756112099,1.0,0.0,0.0,0.0,1.0,0.0,0.0,0.0,1.0,0.991199487305,0.325611425781,10.4387192383,1.0,0.0,0.0,0.0,1.0,0.0,0.0,0.0,1.0
1480508886807545818,477,1480508886804699834,,-2.0361328125,-1.26271736622,174.623123169,0.00136800005566,1.0,0.0,0.0,0.0,1.0,0.0,0.0,0.0,1.0,-0.426829278469,2.01219511032,0.0,1.0,0.0,0.0,0.0,1.0,0.0,0.0,0.0,1.0,1.0534486574,-0.679953271484,10.3094323486,1.0,0.0,0.0,0.0,1.0,0.0,0.0,0.0,1.0
1480508886828662912,478,1480508886825921823,,-2.05334687233,-1.26007795334,174.618759155,0.000980000011623,1.0,0.0,0.0,0.0,1.0,0.0,0.0,0.0,1.0,-0.914634168148,2.80487799644,0.0609756112099,1.0,0.0,0.0,0.0,1.0,0.0,0.0,0.0,1.0,1.2737152832,-0.339976635742,10.1274730225,1.0,0.0,0.0,0.0,1.0,0.0,0.0,0.0,1.0
1480508886849547142,479,1480508886846818970,,-2.07164335251,-1.25624608994,174.613845825,0.00109200004954,1.0,0.0,0.0,0.0,1.0,0.0,0.0,0.0,1.0,0.853658556938,3.10975623131,0.243902444839,1.0,0.0,0.0,0.0,1.0,0.0,0.0,0.0,1.0,1.44609780273,-0.292092584273,10.2711251221,1.0,0.0,0.0,0.0,1.0,0.0,0.0,0.0,1.0
1480508886872194597,480,1480508886867700908,,-2.05862307549,-1.24908936024,174.595657349,0.000976999988779,1.0,0.0,0.0,0.0,1.0,0.0,0.0,0.0,1.0,-0.548780500889,4.57317066193,-0.609756112099,1.0,0.0,0.0,0.0,1.0,0.0,0.0,0.0,1.0,1.52750065918,0.00478840332031,10.299855542,1.0,0.0,0.0,0.0,1.0,0.0,0.0,0.0,1.0
1480508886891469976,481,1480508886888569565,,-2.01197290421,-1.26407408714,174.557128906,0.000988999963738,1.0,0.0,0.0,0.0,1.0,0.0,0.0,0.0,1.0,-0.487804889679,4.63414621353,-1.52439022064,1.0,0.0,0.0,0.0,1.0,0.0,0.0,0.0,1.0,1.14442839355,-0.229843359375,10.0843773926,1.0,0.0,0.0,0.0,1.0,0.0,0.0,0.0,1.0
1480508886912508008,482,1480508886909562337,,-1.95596396923,-1.28247284889,174.52456665,0.00118200003635,1.0,0.0,0.0,0.0,1.0,0.0,0.0,0.0,1.0,-0.243902444839,4.32926845551,-0.670731723309,1.0,0.0,0.0,0.0,1.0,0.0,0.0,0.0,1.0,1.08696755371,-0.282515795898,10.2423947021,1.0,0.0,0.0,0.0,1.0,0.0,0.0,0.0,1.0
1480508886936036399,483,1480508886932566719,,-1.89796447754,-1.27481245995,174.503036499,0.000981000019237,1.0,0.0,0.0,0.0,1.0,0.0,0.0,0.0,1.0,-0.0609756112099,3.23170733452,-0.365853667259,1.0,0.0,0.0,0.0,1.0,0.0,0.0,0.0,1.0,0.909796630859,-0.0478840332031,9.95509050293,1.0,0.0,0.0,0.0,1.0,0.0,0.0,0.0,1.0
1480508886958969063,484,1480508886954437666,,-1.86977636814,-1.26137256622,174.481506348,0.0010969999712,1.0,0.0,0.0,0.0,1.0,0.0,0.0,0.0,1.0,-0.487804889679,1.58536589146,-0.914634168148,1.0,0.0,0.0,0.0,1.0,0.0,0.0,0.0,1.0,0.842758984375,-0.172382519531,10.1562034424,1.0,0.0,0.0,0.0,1.0,0.0,0.0,0.0,1.0
1480508886980426052,485,1480508886977276215,,-1.86620533466,-1.27930617332,174.464477539,0.00512799993157,1.0,0.0,0.0,0.0,1.0,0.0,0.0,0.0,1.0,-0.304878056049,0.18292683363,0.304878056049,1.0,0.0,0.0,0.0,1.0,0.0,0.0,0.0,1.0,0.857124194336,-0.3064578125,10.0891657959,1.0,0.0,0.0,0.0,1.0,0.0,0.0,0.0,1.0
1480508886999302890,486,1480508886997169926,,-1.89985406399,-1.28521728516,174.458343506,0.00231199990958,1.0,0.0,0.0,0.0,1.0,0.0,0.0,0.0,1.0,-0.548780500889,-0.792682945728,0.0609756112099,1.0,0.0,0.0,0.0,1.0,0.0,0.0,0.0,1.0,1.14442839355,-0.124498486328,10.3190091553,1.0,0.0,0.0,0.0,1.0,0.0,0.0,0.0,1.0
1480508887021948783,487,1480508887019281549,,-1.96355485916,-1.28220021725,174.45199585,0.00484200008214,1.0,0.0,0.0,0.0,1.0,0.0,0.0,0.0,1.0,-0.365853667259,-0.670731723309,0.0,1.0,0.0,0.0,0.0,1.0,0.0,0.0,0.0,1.0,1.32159931641,-0.15801730957,10.3477395752,1.0,0.0,0.0,0.0,1.0,0.0,0.0,0.0,1.0
1480508887043265252,488,1480508887039480989,,-2.03088402748,-1.2938824892,174.438262939,0.00282400008291,1.0,0.0,0.0,0.0,1.0,0.0,0.0,0.0,1.0,-0.487804889679,-0.304878056049,-0.487804889679,1.0,0.0,0.0,0.0,1.0,0.0,0.0,0.0,1.0,1.21146604004,-0.349553442383,10.1514150391,1.0,0.0,0.0,0.0,1.0,0.0,0.0,0.0,1.0
1480508887063801774,489,1480508887061018342,,-2.09347724915,-1.30120420456,174.425094604,0.00150300003588,1.0,0.0,0.0,0.0,1.0,0.0,0.0,0.0,1.0,0.0,0.304878056049,0.0,1.0,0.0,0.0,0.0,1.0,0.0,0.0,0.0,1.0,1.30244570312,-0.143652099609,10.165780249,1.0,0.0,0.0,0.0,1.0,0.0,0.0,0.0,1.0
1480508887084407828,490,1480508887081908718,,-2.13164901733,-1.302272439,174.413024902,0.00548599986359,1.0,0.0,0.0,0.0,1.0,0.0,0.0,0.0,1.0,-0.304878056049,1.09756100178,-0.0609756112099,1.0,0.0,0.0,0.0,1.0,0.0,0.0,0.0,1.0,1.32638771973,-0.15801730957,10.060435376,1.0,0.0,0.0,0.0,1.0,0.0,0.0,0.0,1.0
1480508887104213466,491,1480508887102521594,,-2.16581654549,-1.30213844776,174.39630127,0.00115100003313,1.0,0.0,0.0,0.0,1.0,0.0,0.0,0.0,1.0,-0.12195122242,1.64634156227,-0.426829278469,1.0,0.0,0.0,0.0,1.0,0.0,0.0,0.0,1.0,1.30723410645,-0.172382519531,10.0700121826,1.0,0.0,0.0,0.0,1.0,0.0,0.0,0.0,1.0
1480508887126517589,492,1480508887124238531,,-2.17930030823,-1.30707359314,174.379470825,0.00118200003635,1.0,0.0,0.0,0.0,1.0,0.0,0.0,0.0,1.0,-0.0609756112099,2.43902444839,-0.243902444839,1.0,0.0,0.0,0.0,1.0,0.0,0.0,0.0,1.0,1.24019645996,-0.181959326172,10.1466266357,1.0,0.0,0.0,0.0,1.0,0.0,0.0,0.0,1.0
1480508887146060936,493,1480508887144614116,,-2.18186378479,-1.31039786339,174.361740112,0.00195099995472,1.0,0.0,0.0,0.0,1.0,0.0,0.0,0.0,1.0,-0.12195122242,2.98780488968,-0.487804889679,1.0,0.0,0.0,0.0,1.0,0.0,0.0,0.0,1.0,1.2976572998,-0.215478149414,10.2471831055,1.0,0.0,0.0,0.0,1.0,0.0,0.0,0.0,1.0
1480508887166960218,494,1480508887165229492,,-2.17445874214,-1.30893301964,174.339416504,0.00101799995173,1.0,0.0,0.0,0.0,1.0,0.0,0.0,0.0,1.0,0.0,3.10975623131,-0.548780500889,1.0,0.0,0.0,0.0,1.0,0.0,0.0,0.0,1.0,1.21625444336,-0.201112939453,10.0939541992,1.0,0.0,0.0,0.0,1.0,0.0,0.0,0.0,1.0
1480508887189202258,495,1480508887186236066,,-2.14911198616,-1.31391644478,174.319992065,0.000968999986071,1.0,0.0,0.0,0.0,1.0,0.0,0.0,0.0,1.0,0.0,3.41463422775,-0.365853667259,1.0,0.0,0.0,0.0,1.0,0.0,0.0,0.0,1.0,1.23540805664,-0.253785375977,10.0652237793,1.0,0.0,0.0,0.0,1.0,0.0,0.0,0.0,1.0
1480508887212868358,496,1480508887207700034,,-2.12580060959,-1.31725287437,174.295669556,0.00109899998643,1.0,0.0,0.0,0.0,1.0,0.0,0.0,0.0,1.0,-0.18292683363,3.29268312454,-0.853658556938,1.0,0.0,0.0,0.0,1.0,0.0,0.0,0.0,1.0,1.24498486328,-0.0909796630859,10.1753570557,1.0,0.0,0.0,0.0,1.0,0.0,0.0,0.0,1.0
1480508887230366240,497,1480508887228790983,,-2.09966897964,-1.31241428852,174.275192261,0.00101699994411,1.0,0.0,0.0,0.0,1.0,0.0,0.0,0.0,1.0,-0.18292683363,3.53658556938,-0.670731723309,1.0,0.0,0.0,0.0,1.0,0.0,0.0,0.0,1.0,1.13485158691,-0.167594116211,10.2615483154,1.0,0.0,0.0,0.0,1.0,0.0,0.0,0.0,1.0
1480508887251952812,498,1480508887249546932,,-2.07494974136,-1.31108808517,174.255905151,0.000979000004008,1.0,0.0,0.0,0.0,1.0,0.0,0.0,0.0,1.0,0.0,3.10975623131,-0.487804889679,1.0,0.0,0.0,0.0,1.0,0.0,0.0,0.0,1.0,1.17794714373,-0.138863696289,10.1274730225,1.0,0.0,0.0,0.0,1.0,0.0,0.0,0.0,1.0
1480508887274332925,499,1480508887272658605,,-2.05901312828,-1.31071841717,174.233505249,0.00361300003715,1.0,0.0,0.0,0.0,1.0,0.0,0.0,0.0,1.0,-0.18292683363,2.37804889679,-0.426829278469,1.0,0.0,0.0,0.0,1.0,0.0,0.0,0.0,1.0,1.17315874041,-0.0526724365234,10.180145459,1.0,0.0,0.0,0.0,1.0,0.0,0.0,0.0,1.0
1480508887300109020,500,1480508887298573346,,-2.04771924019,-1.31243395805,174.215927124,0.0010529999854,1.0,0.0,0.0,0.0,1.0,0.0,0.0,0.0,1.0,-0.304878056049,2.25609779358,-0.426829278469,1.0,0.0,0.0,0.0,1.0,0.0,0.0,0.0,1.0,1.09175595703,-0.239420166016,10.165780249,1.0,0.0,0.0,0.0,1.0,0.0,0.0,0.0,1.0
1480508887316007843,501,1480508887313653525,,-2.05143213272,-1.31378531456,174.196228027,0.00190300005488,1.0,0.0,0.0,0.0,1.0,0.0,0.0,0.0,1.0,0.0609756112099,1.8292683363,-0.243902444839,1.0,0.0,0.0,0.0,1.0,0.0,0.0,0.0,1.0,1.17315874041,-0.162805712891,10.180145459,1.0,0.0,0.0,0.0,1.0,0.0,0.0,0.0,1.0
1480508887348039551,502,1480508887334596557,,-2.06108021736,-1.31486856937,174.177581787,0.00119199999608,1.0,0.0,0.0,0.0,1.0,0.0,0.0,0.0,1.0,-0.304878056049,1.46341466904,-0.18292683363,1.0,0.0,0.0,0.0,1.0,0.0,0.0,0.0,1.0,1.14921679688,-0.201112939453,10.1514150391,1.0,0.0,0.0,0.0,1.0,0.0,0.0,0.0,1.0
1480508887361562337,503,1480508887358885416,,-2.07836532593,-1.31564664841,174.159545898,0.00384499994107,1.0,0.0,0.0,0.0,1.0,0.0,0.0,0.0,1.0,-0.365853667259,1.15853655338,-0.304878056049,1.0,0.0,0.0,0.0,1.0,0.0,0.0,0.0,1.0,1.14442839355,-0.191536132812,10.2136642822,1.0,0.0,0.0,0.0,1.0,0.0,0.0,0.0,1.0
1480508887383512711,504,1480508887380145374,,-2.09523034096,-1.31310629845,174.142227173,0.00222999998368,1.0,0.0,0.0,0.0,1.0,0.0,0.0,0.0,1.0,-0.243902444839,1.58536589146,-0.243902444839,1.0,0.0,0.0,0.0,1.0,0.0,0.0,0.0,1.0,1.19231249982,-0.191536132812,10.2376062988,1.0,0.0,0.0,0.0,1.0,0.0,0.0,0.0,1.0
1480508887404225275,505,1480508887401159968,,-2.1117079258,-1.31689250469,174.125564575,0.00174600002356,1.0,0.0,0.0,0.0,1.0,0.0,0.0,0.0,1.0,-0.365853667259,1.76829278469,-0.426829278469,1.0,0.0,0.0,0.0,1.0,0.0,0.0,0.0,1.0,1.26413847656,-0.239420166016,10.1370498291,1.0,0.0,0.0,0.0,1.0,0.0,0.0,0.0,1.0
1480508887424465548,506,1480508887422221802,,-2.12827396393,-1.32169187069,174.108825684,0.00105600000825,1.0,0.0,0.0,0.0,1.0,0.0,0.0,0.0,1.0,-0.304878056049,1.76829278469,-0.243902444839,1.0,0.0,0.0,0.0,1.0,0.0,0.0,0.0,1.0,1.28808049316,-0.15801730957,10.0891657959,1.0,0.0,0.0,0.0,1.0,0.0,0.0,0.0,1.0
1480508887446622119,507,1480508887443407125,,-2.13411474228,-1.32411873341,174.090240479,0.00181699998211,1.0,0.0,0.0,0.0,1.0,0.0,0.0,0.0,1.0,-0.243902444839,2.37804889679,-0.426829278469,1.0,0.0,0.0,0.0,1.0,0.0,0.0,0.0,1.0,1.1540052002,-0.119710083008,10.1370498291,1.0,0.0,0.0,0.0,1.0,0.0,0.0,0.0,1.0
1480508887467067808,508,1480508887463888595,,-2.13424444199,-1.32222628593,174.071334839,0.00144100002944,1.0,0.0,0.0,0.0,1.0,0.0,0.0,0.0,1.0,-0.0609756112099,2.74390244484,-0.548780500889,1.0,0.0,0.0,0.0,1.0,0.0,0.0,0.0,1.0,1.12048637695,-0.225054956055,10.1992990723,1.0,0.0,0.0,0.0,1.0,0.0,0.0,0.0,1.0
1480508887486983342,509,1480508887484936679,,-2.12890720367,-1.32478249073,174.053009033,0.00104700005613,1.0,0.0,0.0,0.0,1.0,0.0,0.0,0.0,1.0,-0.18292683363,2.74390244484,-0.487804889679,1.0,0.0,0.0,0.0,1.0,0.0,0.0,0.0,1.0,1.26892687988,-0.239420166016,10.1274730225,1.0,0.0,0.0,0.0,1.0,0.0,0.0,0.0,1.0
1480508887508890382,510,1480508887506506481,,-2.11853837967,-1.32517957687,174.032653809,0.00140700000338,1.0,0.0,0.0,0.0,1.0,0.0,0.0,0.0,1.0,-0.12195122242,2.86585378647,-0.548780500889,1.0,0.0,0.0,0.0,1.0,0.0,0.0,0.0,1.0,1.24498486328,-0.143652099609,10.180145459,1.0,0.0,0.0,0.0,1.0,0.0,0.0,0.0,1.0
1480508887537017775,511,1480508887527513367,,-2.10284471512,-1.32522881031,174.013137817,0.00101300003007,1.0,0.0,0.0,0.0,1.0,0.0,0.0,0.0,1.0,0.12195122242,2.98780488968,-0.18292683363,1.0,0.0,0.0,0.0,1.0,0.0,0.0,0.0,1.0,1.11090957031,-0.258573779297,10.1274730225,1.0,0.0,0.0,0.0,1.0,0.0,0.0,0.0,1.0
1480508887552791390,512,1480508887548085722,,-2.09185409546,-1.32647657394,173.994338989,0.00104000000283,1.0,0.0,0.0,0.0,1.0,0.0,0.0,0.0,1.0,-0.243902444839,2.86585378647,-0.670731723309,1.0,0.0,0.0,0.0,1.0,0.0,0.0,0.0,1.0,1.17794714373,-0.220266552734,10.046070166,1.0,0.0,0.0,0.0,1.0,0.0,0.0,0.0,1.0
1480508887574294056,513,1480508887569280733,,-2.07691979408,-1.32696044445,173.975067139,0.00101899995934,1.0,0.0,0.0,0.0,1.0,0.0,0.0,0.0,1.0,-0.304878056049,2.56097555161,-0.487804889679,1.0,0.0,0.0,0.0,1.0,0.0,0.0,0.0,1.0,1.22104284668,-0.114921679688,10.1753570557,1.0,0.0,0.0,0.0,1.0,0.0,0.0,0.0,1.0
1480508887597781719,514,1480508887589128038,,-2.06674456596,-1.32908844948,173.956069946,0.000975999981165,1.0,0.0,0.0,0.0,1.0,0.0,0.0,0.0,1.0,-0.0609756112099,2.56097555161,-0.487804889679,1.0,0.0,0.0,0.0,1.0,0.0,0.0,0.0,1.0,1.14442839355,-0.172382519531,10.0891657959,1.0,0.0,0.0,0.0,1.0,0.0,0.0,0.0,1.0
1480508887614021635,515,1480508887610267111,,-2.0604159832,-1.32895290852,173.938369751,0.001304000034,1.0,0.0,0.0,0.0,1.0,0.0,0.0,0.0,1.0,-0.12195122242,2.25609779358,-0.609756112099,1.0,0.0,0.0,0.0,1.0,0.0,0.0,0.0,1.0,1.14442839355,-0.201112939453,10.165780249,1.0,0.0,0.0,0.0,1.0,0.0,0.0,0.0,1.0
1480508887635745134,516,1480508887630687540,,-2.05673933029,-1.32620513439,173.922470093,0.0010969999712,1.0,0.0,0.0,0.0,1.0,0.0,0.0,0.0,1.0,0.0609756112099,2.13414645195,-0.365853667259,1.0,0.0,0.0,0.0,1.0,0.0,0.0,0.0,1.0,1.17794714373,-0.0574608398438,10.2519715088,1.0,0.0,0.0,0.0,1.0,0.0,0.0,0.0,1.0
1480508887655168534,517,1480508887651755884,,-2.06111311913,-1.32669186592,173.904129028,0.00107300002128,1.0,0.0,0.0,0.0,1.0,0.0,0.0,0.0,1.0,-0.12195122242,1.95121955872,-0.365853667259,1.0,0.0,0.0,0.0,1.0,0.0,0.0,0.0,1.0,1.13963999023,-0.172382519531,10.0891657959,1.0,0.0,0.0,0.0,1.0,0.0,0.0,0.0,1.0
1480508887674698599,518,1480508887672512666,,-2.07125854492,-1.32579040527,173.887786865,0.00150999997277,1.0,0.0,0.0,0.0,1.0,0.0,0.0,0.0,1.0,-0.18292683363,1.8902438879,-0.365853667259,1.0,0.0,0.0,0.0,1.0,0.0,0.0,0.0,1.0,1.16837033709,-0.205901342773,10.1274730225,1.0,0.0,0.0,0.0,1.0,0.0,0.0,0.0,1.0
1480508887701224745,519,1480508887693853666,,-2.08013725281,-1.32726490498,173.871322632,0.00118499994278,1.0,0.0,0.0,0.0,1.0,0.0,0.0,0.0,1.0,-0.0609756112099,1.64634156227,-0.365853667259,1.0,0.0,0.0,0.0,1.0,0.0,0.0,0.0,1.0,1.11090957031,-0.248996972656,10.1609918457,1.0,0.0,0.0,0.0,1.0,0.0,0.0,0.0,1.0
1480508887720976842,520,1480508887714378886,,-2.09427809715,-1.32918047905,173.855819702,0.00122800003737,1.0,0.0,0.0,0.0,1.0,0.0,0.0,0.0,1.0,-0.0609756112099,1.8902438879,-0.426829278469,1.0,0.0,0.0,0.0,1.0,0.0,0.0,0.0,1.0,1.28329208984,-0.229843359375,10.1370498291,1.0,0.0,0.0,0.0,1.0,0.0,0.0,0.0,1.0
1480508887742309353,521,1480508887736089781,,-2.10603094101,-1.33371627331,173.839065552,0.00182400003541,1.0,0.0,0.0,0.0,1.0,0.0,0.0,0.0,1.0,0.0609756112099,1.76829278469,-0.12195122242,1.0,0.0,0.0,0.0,1.0,0.0,0.0,0.0,1.0,1.22583125,-0.320823022461,10.3285859619,1.0,0.0,0.0,0.0,1.0,0.0,0.0,0.0,1.0
1480508887763784363,522,1480508887757130157,,-2.11401820183,-1.3348801136,173.820541382,0.00197100010701,1.0,0.0,0.0,0.0,1.0,0.0,0.0,0.0,1.0,-0.0609756112099,2.25609779358,-0.426829278469,1.0,0.0,0.0,0.0,1.0,0.0,0.0,0.0,1.0,1.20667770978,-0.229843359375,10.165780249,1.0,0.0,0.0,0.0,1.0,0.0,0.0,0.0,1.0
1480508887786468433,523,1480508887779024697,,-2.1185028553,-1.33609366417,173.8019104,0.00240899994969,1.0,0.0,0.0,0.0,1.0,0.0,0.0,0.0,1.0,-0.18292683363,2.5,-0.365853667259,1.0,0.0,0.0,0.0,1.0,0.0,0.0,0.0,1.0,1.25456166992,-0.234631762695,10.1035310059,1.0,0.0,0.0,0.0,1.0,0.0,0.0,0.0,1.0
1480508887810468282,524,1480508887800988352,,-2.11705327034,-1.33559036255,173.782424927,0.00755099998787,1.0,0.0,0.0,0.0,1.0,0.0,0.0,0.0,1.0,-0.304878056049,2.86585378647,-0.365853667259,1.0,0.0,0.0,0.0,1.0,0.0,0.0,0.0,1.0,1.26413847656,-0.138863696289,10.1131078125,1.0,0.0,0.0,0.0,1.0,0.0,0.0,0.0,1.0
1480508887825303565,525,1480508887822246384,,-2.1123893261,-1.33640229702,173.762908936,0.00115799997002,1.0,0.0,0.0,0.0,1.0,0.0,0.0,0.0,1.0,-0.304878056049,2.68292689323,-0.487804889679,1.0,0.0,0.0,0.0,1.0,0.0,0.0,0.0,1.0,1.26892687988,-0.234631762695,10.2232410889,1.0,0.0,0.0,0.0,1.0,0.0,0.0,0.0,1.0
1480508887845864306,526,1480508887842604052,,-2.10297131538,-1.33766949177,173.743377686,0.00115200004075,1.0,0.0,0.0,0.0,1.0,0.0,0.0,0.0,1.0,-0.18292683363,2.56097555161,-0.487804889679,1.0,0.0,0.0,0.0,1.0,0.0,0.0,0.0,1.0,1.17794714373,-0.172382519531,10.2136642822,1.0,0.0,0.0,0.0,1.0,0.0,0.0,0.0,1.0
1480508887867237129,527,1480508887863322761,,-2.09417128563,-1.33630418777,173.723434448,0.00124000001233,1.0,0.0,0.0,0.0,1.0,0.0,0.0,0.0,1.0,-0.18292683363,2.5,-0.609756112099,1.0,0.0,0.0,0.0,1.0,0.0,0.0,0.0,1.0,1.20667770978,-0.148440512063,10.0700121826,1.0,0.0,0.0,0.0,1.0,0.0,0.0,0.0,1.0
1480508887886993236,528,1480508887883935325,,-2.08611035347,-1.33575320244,173.704849243,0.00115799997002,1.0,0.0,0.0,0.0,1.0,0.0,0.0,0.0,1.0,-0.365853667259,2.37804889679,-0.609756112099,1.0,0.0,0.0,0.0,1.0,0.0,0.0,0.0,1.0,1.14921679688,-0.191536132812,10.1035310059,1.0,0.0,0.0,0.0,1.0,0.0,0.0,0.0,1.0
1480508887907810539,529,1480508887905255961,,-2.07902693748,-1.33589744568,173.685134888,0.00107600004412,1.0,0.0,0.0,0.0,1.0,0.0,0.0,0.0,1.0,-0.0609756112099,2.43902444839,-0.670731723309,1.0,0.0,0.0,0.0,1.0,0.0,0.0,0.0,1.0,1.1540052002,-0.143652099609,10.180145459,1.0,0.0,0.0,0.0,1.0,0.0,0.0,0.0,1.0
1480508887935246735,530,1480508887926574981,,-2.07629609108,-1.34005308151,173.669128418,0.00122900004499,1.0,0.0,0.0,0.0,1.0,0.0,0.0,0.0,1.0,-0.0609756112099,2.13414645195,-0.18292683363,1.0,0.0,0.0,0.0,1.0,0.0,0.0,0.0,1.0,1.1540052002,-0.186747729492,10.1274730225,1.0,0.0,0.0,0.0,1.0,0.0,0.0,0.0,1.0
1480508887954937218,531,1480508887947940513,,-2.08031535149,-1.34103751183,173.652496338,0.00104300002567,1.0,0.0,0.0,0.0,1.0,0.0,0.0,0.0,1.0,-0.243902444839,2.13414645195,-0.243902444839,1.0,0.0,0.0,0.0,1.0,0.0,0.0,0.0,1.0,1.20667770978,-0.177170922852,10.1226846191,1.0,0.0,0.0,0.0,1.0,0.0,0.0,0.0,1.0
1480508887971128592,532,1480508887968569170,,-2.08371043205,-1.34108877182,173.634689331,0.00101799995173,1.0,0.0,0.0,0.0,1.0,0.0,0.0,0.0,1.0,-0.365853667259,2.07317066193,-0.426829278469,1.0,0.0,0.0,0.0,1.0,0.0,0.0,0.0,1.0,1.22104284668,-0.119710083008,10.1131078125,1.0,0.0,0.0,0.0,1.0,0.0,0.0,0.0,1.0
1480508887991972978,533,1480508887989105588,,-2.09325671196,-1.34173166752,173.616424561,0.00103299994953,1.0,0.0,0.0,0.0,1.0,0.0,0.0,0.0,1.0,-0.18292683363,1.76829278469,-0.12195122242,1.0,0.0,0.0,0.0,1.0,0.0,0.0,0.0,1.0,1.12527478027,-0.124498486328,10.0748005859,1.0,0.0,0.0,0.0,1.0,0.0,0.0,0.0,1.0
1480508888018519541,534,1480508888010304870,,-2.10172724724,-1.34247303009,173.600372314,0.00101100001484,1.0,0.0,0.0,0.0,1.0,0.0,0.0,0.0,1.0,-0.365853667259,2.13414645195,-0.18292683363,1.0,0.0,0.0,0.0,1.0,0.0,0.0,0.0,1.0,1.21146604004,-0.167594116211,10.2184526855,1.0,0.0,0.0,0.0,1.0,0.0,0.0,0.0,1.0
1480508888034838988,535,1480508888030853840,,-2.11207294464,-1.34423387051,173.583053589,0.00101400003769,1.0,0.0,0.0,0.0,1.0,0.0,0.0,0.0,1.0,-0.243902444839,1.8902438879,-0.365853667259,1.0,0.0,0.0,0.0,1.0,0.0,0.0,0.0,1.0,1.22104284668,-0.220266552734,10.180145459,1.0,0.0,0.0,0.0,1.0,0.0,0.0,0.0,1.0
1480508888057033320,536,1480508888052212496,,-2.11870574951,-1.34012925625,173.56362915,0.00121100002434,1.0,0.0,0.0,0.0,1.0,0.0,0.0,0.0,1.0,-0.487804889679,2.01219511032,-0.304878056049,1.0,0.0,0.0,0.0,1.0,0.0,0.0,0.0,1.0,1.23061965332,-0.15801730957,10.1514150391,1.0,0.0,0.0,0.0,1.0,0.0,0.0,0.0,1.0
1480508888077413228,537,1480508888073314434,,-2.12539863586,-1.34594082832,173.544540405,0.00145900005009,1.0,0.0,0.0,0.0,1.0,0.0,0.0,0.0,1.0,-0.243902444839,2.01219511032,-0.426829278469,1.0,0.0,0.0,0.0,1.0,0.0,0.0,0.0,1.0,1.1540052002,-0.220266552734,10.1705686523,1.0,0.0,0.0,0.0,1.0,0.0,0.0,0.0,1.0
1480508888105773016,538,1480508888098736624,,-2.12805271149,-1.34883737564,173.523864746,0.00642699981108,1.0,0.0,0.0,0.0,1.0,0.0,0.0,0.0,1.0,-0.243902444839,2.56097555161,-0.487804889679,1.0,0.0,0.0,0.0,1.0,0.0,0.0,0.0,1.0,1.16358193377,-0.191536132812,10.165780249,1.0,0.0,0.0,0.0,1.0,0.0,0.0,0.0,1.0
1480508888122499025,539,1480508888120696164,,-2.12525272369,-1.34995830059,173.501602173,0.0020530000329,1.0,0.0,0.0,0.0,1.0,0.0,0.0,0.0,1.0,-0.0609756112099,2.31707310677,-0.426829278469,1.0,0.0,0.0,0.0,1.0,0.0,0.0,0.0,1.0,1.1540052002,-0.124498486328,10.1945106689,1.0,0.0,0.0,0.0,1.0,0.0,0.0,0.0,1.0
1480508888143392838,540,1480508888141813727,,-2.12044048309,-1.35048949718,173.483016968,0.00109200004954,1.0,0.0,0.0,0.0,1.0,0.0,0.0,0.0,1.0,-0.0609756112099,2.56097555161,-0.426829278469,1.0,0.0,0.0,0.0,1.0,0.0,0.0,0.0,1.0,1.14442839355,-0.138863696289,10.2040874756,1.0,0.0,0.0,0.0,1.0,0.0,0.0,0.0,1.0
1480508888164462797,541,1480508888162896081,,-2.11410498619,-1.35139894485,173.463119507,0.000991999986582,1.0,0.0,0.0,0.0,1.0,0.0,0.0,0.0,1.0,-0.18292683363,2.62195134163,-0.548780500889,1.0,0.0,0.0,0.0,1.0,0.0,0.0,0.0,1.0,1.24498486328,-0.15322890625,10.1466266357,1.0,0.0,0.0,0.0,1.0,0.0,0.0,0.0,1.0
1480508888188648479,542,1480508888184622810,,-2.10741615295,-1.3494284153,173.443084717,0.00121300003957,1.0,0.0,0.0,0.0,1.0,0.0,0.0,0.0,1.0,-0.304878056049,2.43902444839,-0.426829278469,1.0,0.0,0.0,0.0,1.0,0.0,0.0,0.0,1.0,1.08217922346,-0.162805712891,10.1274730225,1.0,0.0,0.0,0.0,1.0,0.0,0.0,0.0,1.0
1480508888208961304,543,1480508888204615375,,-2.10049653053,-1.34846365452,173.422027588,0.00116099999286,1.0,0.0,0.0,0.0,1.0,0.0,0.0,0.0,1.0,-0.0609756112099,2.25609779358,-0.365853667259,1.0,0.0,0.0,0.0,1.0,0.0,0.0,0.0,1.0,1.11090957031,-0.162805712891,10.2280294922,1.0,0.0,0.0,0.0,1.0,0.0,0.0,0.0,1.0
1480508888239309421,544,1480508888225343772,,-2.09995102882,-1.35086905956,173.40675354,0.00105199997779,1.0,0.0,0.0,0.0,1.0,0.0,0.0,0.0,1.0,0.0,2.37804889679,-0.609756112099,1.0,0.0,0.0,0.0,1.0,0.0,0.0,0.0,1.0,1.22104284668,-0.234631762695,10.1131078125,1.0,0.0,0.0,0.0,1.0,0.0,0.0,0.0,1.0
1480508888247984144,545,1480508888246174668,,-2.09638547897,-1.35151278973,173.387893677,0.00105900003109,1.0,0.0,0.0,0.0,1.0,0.0,0.0,0.0,1.0,0.18292683363,2.19512200356,-0.304878056049,1.0,0.0,0.0,0.0,1.0,0.0,0.0,0.0,1.0,1.1875240965,-0.234631762695,10.1322614258,1.0,0.0,0.0,0.0,1.0,0.0,0.0,0.0,1.0
1480508888271325140,546,1480508888267228065,,-2.09832859039,-1.35443651676,173.366516113,0.00102800002787,1.0,0.0,0.0,0.0,1.0,0.0,0.0,0.0,1.0,0.0,2.13414645195,-0.487804889679,1.0,0.0,0.0,0.0,1.0,0.0,0.0,0.0,1.0,1.21625444336,-0.15801730957,10.180145459,1.0,0.0,0.0,0.0,1.0,0.0,0.0,0.0,1.0
1480508888298473993,547,1480508888287861514,,-2.10431075096,-1.3564478159,173.346481323,0.000969999993686,1.0,0.0,0.0,0.0,1.0,0.0,0.0,0.0,1.0,-0.365853667259,2.19512200356,-0.365853667259,1.0,0.0,0.0,0.0,1.0,0.0,0.0,0.0,1.0,1.20188930646,-0.177170922852,10.0891657959,1.0,0.0,0.0,0.0,1.0,0.0,0.0,0.0,1.0
1480508888315421772,548,1480508888308894129,,-2.10540699959,-1.35515403748,173.326828003,0.000977999996394,1.0,0.0,0.0,0.0,1.0,0.0,0.0,0.0,1.0,-0.0609756112099,1.8902438879,-0.365853667259,1.0,0.0,0.0,0.0,1.0,0.0,0.0,0.0,1.0,1.17794714373,-0.258573779297,10.2184526855,1.0,0.0,0.0,0.0,1.0,0.0,0.0,0.0,1.0
1480508888335025797,549,1480508888330072837,,-2.11132597923,-1.35377120972,173.309555054,0.00097499997355,1.0,0.0,0.0,0.0,1.0,0.0,0.0,0.0,1.0,-0.426829278469,2.25609779358,-0.365853667259,1.0,0.0,0.0,0.0,1.0,0.0,0.0,0.0,1.0,1.14442839355,-0.148440512063,10.2423947021,1.0,0.0,0.0,0.0,1.0,0.0,0.0,0.0,1.0
1480508888359085229,550,1480508888355921954,,-2.11603593826,-1.35567820072,173.290740967,0.00115899997763,1.0,0.0,0.0,0.0,1.0,0.0,0.0,0.0,1.0,-0.18292683363,2.37804889679,-0.548780500889,1.0,0.0,0.0,0.0,1.0,0.0,0.0,0.0,1.0,1.21625444336,-0.177170922852,10.285490332,1.0,0.0,0.0,0.0,1.0,0.0,0.0,0.0,1.0
1480508888385136376,551,1480508888377412849,,-2.12375473976,-1.35441625118,173.270050049,0.00641900021583,1.0,0.0,0.0,0.0,1.0,0.0,0.0,0.0,1.0,-0.18292683363,2.19512200356,-0.18292683363,1.0,0.0,0.0,0.0,1.0,0.0,0.0,0.0,1.0,1.29286889648,-0.181959326172,10.1370498291,1.0,0.0,0.0,0.0,1.0,0.0,0.0,0.0,1.0
1480508888404888472,552,1480508888398800307,,-2.12780356407,-1.35604798794,173.249633789,0.00774100003764,1.0,0.0,0.0,0.0,1.0,0.0,0.0,0.0,1.0,-0.426829278469,2.19512200356,-0.548780500889,1.0,0.0,0.0,0.0,1.0,0.0,0.0,0.0,1.0,1.24019645996,-0.201112939453,10.1514150391,1.0,0.0,0.0,0.0,1.0,0.0,0.0,0.0,1.0
1480508888424214684,553,1480508888420130370,,-2.12421393394,-1.35377323627,173.230773926,0.00249200011604,1.0,0.0,0.0,0.0,1.0,0.0,0.0,0.0,1.0,-0.18292683363,2.5,-0.365853667259,1.0,0.0,0.0,0.0,1.0,0.0,0.0,0.0,1.0,1.23540805664,-0.162805712891,10.2807019287,1.0,0.0,0.0,0.0,1.0,0.0,0.0,0.0,1.0
1480508888445194643,554,1480508888441334182,,-2.12211751938,-1.35052919388,173.211715698,0.00106699997559,1.0,0.0,0.0,0.0,1.0,0.0,0.0,0.0,1.0,-0.18292683363,2.5,-0.487804889679,1.0,0.0,0.0,0.0,1.0,0.0,0.0,0.0,1.0,1.23540805664,-0.143652099609,10.1466266357,1.0,0.0,0.0,0.0,1.0,0.0,0.0,0.0,1.0
1480508888464949136,555,1480508888461917840,,-2.11531543732,-1.34791254997,173.194366455,0.00117399997544,1.0,0.0,0.0,0.0,1.0,0.0,0.0,0.0,1.0,-0.0609756112099,2.5,-0.304878056049,1.0,0.0,0.0,0.0,1.0,0.0,0.0,0.0,1.0,1.23061965332,-0.138863696289,10.2136642822,1.0,0.0,0.0,0.0,1.0,0.0,0.0,0.0,1.0
1480508888486122324,556,1480508888483392485,,-2.10738897324,-1.35257565975,173.174438477,0.00106499996036,1.0,0.0,0.0,0.0,1.0,0.0,0.0,0.0,1.0,0.0,2.56097555161,-0.304878056049,1.0,0.0,0.0,0.0,1.0,0.0,0.0,0.0,1.0,1.22104284668,-0.210689746094,10.1226846191,1.0,0.0,0.0,0.0,1.0,0.0,0.0,0.0,1.0
1480508888507191501,557,1480508888504154215,,-2.10106801987,-1.3503177166,173.155838013,0.00106000003871,1.0,0.0,0.0,0.0,1.0,0.0,0.0,0.0,1.0,-0.12195122242,2.5,-0.365853667259,1.0,0.0,0.0,0.0,1.0,0.0,0.0,0.0,1.0,1.24019645996,-0.201112939453,10.1514150391,1.0,0.0,0.0,0.0,1.0,0.0,0.0,0.0,1.0
1480508888529340625,558,1480508888525621101,,-2.0990986824,-1.3484723568,173.138656616,0.00106299994513,1.0,0.0,0.0,0.0,1.0,0.0,0.0,0.0,1.0,-0.12195122242,2.25609779358,-0.426829278469,1.0,0.0,0.0,0.0,1.0,0.0,0.0,0.0,1.0,1.13006318359,-0.0718260498047,10.0029745361,1.0,0.0,0.0,0.0,1.0,0.0,0.0,0.0,1.0
1480508888549188711,559,1480508888546949340,,-2.10115456581,-1.34934878349,173.118728638,0.00103699997999,1.0,0.0,0.0,0.0,1.0,0.0,0.0,0.0,1.0,-0.18292683363,2.5,-0.609756112099,1.0,0.0,0.0,0.0,1.0,0.0,0.0,0.0,1.0,1.17794714373,-0.234631762695,10.2184526855,1.0,0.0,0.0,0.0,1.0,0.0,0.0,0.0,1.0
1480508888569612369,560,1480508888567686383,,-2.10186314583,-1.34997463226,173.102401733,0.00101799995173,1.0,0.0,0.0,0.0,1.0,0.0,0.0,0.0,1.0,0.0609756112099,2.31707310677,-0.304878056049,1.0,0.0,0.0,0.0,1.0,0.0,0.0,0.0,1.0,1.23540805664,-0.148440512063,10.2423947021,1.0,0.0,0.0,0.0,1.0,0.0,0.0,0.0,1.0
1480508888594900600,561,1480508888588332801,,-2.10058283806,-1.35135149956,173.084381104,0.00102199998219,1.0,0.0,0.0,0.0,1.0,0.0,0.0,0.0,1.0,-0.243902444839,2.25609779358,-0.18292683363,1.0,0.0,0.0,0.0,1.0,0.0,0.0,0.0,1.0,1.12048637695,-0.248996972656,10.2519715088,1.0,0.0,0.0,0.0,1.0,0.0,0.0,0.0,1.0
1480508888616221965,562,1480508888608885365,,-2.10587286949,-1.35381662846,173.068939209,0.00100899999961,1.0,0.0,0.0,0.0,1.0,0.0,0.0,0.0,1.0,0.0609756112099,2.13414645195,-0.18292683363,1.0,0.0,0.0,0.0,1.0,0.0,0.0,0.0,1.0,1.25456166992,-0.15801730957,10.1322614258,1.0,0.0,0.0,0.0,1.0,0.0,0.0,0.0,1.0
1480508888634978126,563,1480508888629385481,,-2.11083722115,-1.3516753912,173.052062988,0.00105600000825,1.0,0.0,0.0,0.0,1.0,0.0,0.0,0.0,1.0,-0.18292683363,1.95121955872,-0.243902444839,1.0,0.0,0.0,0.0,1.0,0.0,0.0,0.0,1.0,1.22583125,-0.172382519531,10.1226846191,1.0,0.0,0.0,0.0,1.0,0.0,0.0,0.0,1.0
1480508888656606886,564,1480508888650305127,,-2.11688613892,-1.34958863258,173.035614014,0.00101300003007,1.0,0.0,0.0,0.0,1.0,0.0,0.0,0.0,1.0,-0.243902444839,2.19512200356,-0.304878056049,1.0,0.0,0.0,0.0,1.0,0.0,0.0,0.0,1.0,1.1875240965,-0.205901342773,10.2615483154,1.0,0.0,0.0,0.0,1.0,0.0,0.0,0.0,1.0
1480508888679062467,565,1480508888671062951,,-2.11913108826,-1.35042774677,173.017150879,0.00118699995801,1.0,0.0,0.0,0.0,1.0,0.0,0.0,0.0,1.0,-0.12195122242,2.19512200356,-0.243902444839,1.0,0.0,0.0,0.0,1.0,0.0,0.0,0.0,1.0,1.25935007324,-0.129286889648,10.1609918457,1.0,0.0,0.0,0.0,1.0,0.0,0.0,0.0,1.0
1480508888697863472,566,1480508888691621557,,-2.12242150307,-1.35190165043,173.000244141,0.00122500001453,1.0,0.0,0.0,0.0,1.0,0.0,0.0,0.0,1.0,-0.12195122242,2.31707310677,-0.670731723309,1.0,0.0,0.0,0.0,1.0,0.0,0.0,0.0,1.0,1.22583125,-0.191536132812,10.1083194092,1.0,0.0,0.0,0.0,1.0,0.0,0.0,0.0,1.0
1480508888716922757,567,1480508888712276152,,-2.12557196617,-1.34915733337,172.98336792,0.00130899995565,1.0,0.0,0.0,0.0,1.0,0.0,0.0,0.0,1.0,-0.0609756112099,2.25609779358,-0.365853667259,1.0,0.0,0.0,0.0,1.0,0.0,0.0,0.0,1.0,1.21625444336,-0.148440512063,10.0269165527,1.0,0.0,0.0,0.0,1.0,0.0,0.0,0.0,1.0
1480508888741105418,568,1480508888735860949,,-2.12446713448,-1.34970211983,172.965408325,0.00123299995903,1.0,0.0,0.0,0.0,1.0,0.0,0.0,0.0,1.0,0.0,2.37804889679,-0.487804889679,1.0,0.0,0.0,0.0,1.0,0.0,0.0,0.0,1.0,1.1875240965,-0.148440512063,10.3190091553,1.0,0.0,0.0,0.0,1.0,0.0,0.0,0.0,1.0
1480508888759723299,569,1480508888757260908,,-2.12257623672,-1.35216772556,172.944137573,0.00501300022006,1.0,0.0,0.0,0.0,1.0,0.0,0.0,0.0,1.0,-0.243902444839,2.37804889679,-0.548780500889,1.0,0.0,0.0,0.0,1.0,0.0,0.0,0.0,1.0,1.21146604004,-0.15801730957,10.2376062988,1.0,0.0,0.0,0.0,1.0,0.0,0.0,0.0,1.0
1480508888781314038,570,1480508888777808888,,-2.11881804466,-1.35005056858,172.926254272,0.00156100001186,1.0,0.0,0.0,0.0,1.0,0.0,0.0,0.0,1.0,-0.0609756112099,2.68292689323,-0.365853667259,1.0,0.0,0.0,0.0,1.0,0.0,0.0,0.0,1.0,1.24498486328,-0.148440512063,10.1466266357,1.0,0.0,0.0,0.0,1.0,0.0,0.0,0.0,1.0
1480508888800472438,571,1480508888798889889,,-2.11466026306,-1.34897530079,172.906555176,0.00118799996562,1.0,0.0,0.0,0.0,1.0,0.0,0.0,0.0,1.0,-0.304878056049,2.56097555161,-0.548780500889,1.0,0.0,0.0,0.0,1.0,0.0,0.0,0.0,1.0,1.28808049316,-0.177170922852,10.1274730225,1.0,0.0,0.0,0.0,1.0,0.0,0.0,0.0,1.0
1480508888823067029,572,1480508888820222138,,-2.10969567299,-1.3476831913,172.889862061,0.0010450000409,1.0,0.0,0.0,0.0,1.0,0.0,0.0,0.0,1.0,-0.12195122242,2.37804889679,-0.304878056049,1.0,0.0,0.0,0.0,1.0,0.0,0.0,0.0,1.0,1.12048637695,-0.186747729492,10.0891657959,1.0,0.0,0.0,0.0,1.0,0.0,0.0,0.0,1.0
1480508888844322925,573,1480508888841293503,,-2.1045358181,-1.34884333611,172.870269775,0.00103699997999,1.0,0.0,0.0,0.0,1.0,0.0,0.0,0.0,1.0,0.0609756112099,2.37804889679,-0.548780500889,1.0,0.0,0.0,0.0,1.0,0.0,0.0,0.0,1.0,1.17794714373,-0.162805712891,10.1131078125,1.0,0.0,0.0,0.0,1.0,0.0,0.0,0.0,1.0
1480508888865323613,574,1480508888862004817,,-2.10156726837,-1.34844458103,172.852478027,0.00115999998525,1.0,0.0,0.0,0.0,1.0,0.0,0.0,0.0,1.0,0.18292683363,2.43902444839,-0.243902444839,1.0,0.0,0.0,0.0,1.0,0.0,0.0,0.0,1.0,1.11569797363,-0.186747729492,10.2711251221,1.0,0.0,0.0,0.0,1.0,0.0,0.0,0.0,1.0
1480508888886103832,575,1480508888882720089,,-2.10018587112,-1.34718692303,172.834915161,0.0012150000548,1.0,0.0,0.0,0.0,1.0,0.0,0.0,0.0,1.0,-0.304878056049,2.13414645195,-0.243902444839,1.0,0.0,0.0,0.0,1.0,0.0,0.0,0.0,1.0,1.08696755371,-0.201112939453,10.165780249,1.0,0.0,0.0,0.0,1.0,0.0,0.0,0.0,1.0
1480508888906689261,576,1480508888903575048,,-2.09519982338,-1.34793233871,172.816757202,0.0012009999482,1.0,0.0,0.0,0.0,1.0,0.0,0.0,0.0,1.0,-0.243902444839,2.25609779358,-0.243902444839,1.0,0.0,0.0,0.0,1.0,0.0,0.0,0.0,1.0,1.17315874041,-0.110133276367,10.1274730225,1.0,0.0,0.0,0.0,1.0,0.0,0.0,0.0,1.0
1480508888927697709,577,1480508888924325008,,-2.09509921074,-1.35016453266,172.800231934,0.00121200003196,1.0,0.0,0.0,0.0,1.0,0.0,0.0,0.0,1.0,-0.12195122242,2.07317066193,-0.304878056049,1.0,0.0,0.0,0.0,1.0,0.0,0.0,0.0,1.0,1.18273554705,-0.186747729492,10.0556469727,1.0,0.0,0.0,0.0,1.0,0.0,0.0,0.0,1.0
1480508888947867045,578,1480508888944721947,,-2.09570002556,-1.35108208656,172.783065796,0.00120900000911,1.0,0.0,0.0,0.0,1.0,0.0,0.0,0.0,1.0,-0.12195122242,2.07317066193,-0.304878056049,1.0,0.0,0.0,0.0,1.0,0.0,0.0,0.0,1.0,1.10612116699,-0.215478149414,10.2184526855,1.0,0.0,0.0,0.0,1.0,0.0,0.0,0.0,1.0
1480508888968071172,579,1480508888965191282,,-2.1012597084,-1.35273730755,172.765792847,0.00118899997324,1.0,0.0,0.0,0.0,1.0,0.0,0.0,0.0,1.0,-0.12195122242,2.19512200356,-0.243902444839,1.0,0.0,0.0,0.0,1.0,0.0,0.0,0.0,1.0,1.2737152832,-0.215478149414,10.1466266357,1.0,0.0,0.0,0.0,1.0,0.0,0.0,0.0,1.0
1480508888988866756,580,1480508888985699315,,-2.10417342186,-1.35219538212,172.749862671,0.00107700005174,1.0,0.0,0.0,0.0,1.0,0.0,0.0,0.0,1.0,-0.18292683363,2.13414645195,-0.18292683363,1.0,0.0,0.0,0.0,1.0,0.0,0.0,0.0,1.0,1.16358193377,-0.210689746094,10.3046439453,1.0,0.0,0.0,0.0,1.0,0.0,0.0,0.0,1.0
1480508889011124786,581,1480508889007219897,,-2.10681962967,-1.35050237179,172.731658936,0.00105199997779,1.0,0.0,0.0,0.0,1.0,0.0,0.0,0.0,1.0,-0.0609756112099,2.43902444839,-0.18292683363,1.0,0.0,0.0,0.0,1.0,0.0,0.0,0.0,1.0,1.26892687988,-0.186747729492,10.1897222656,1.0,0.0,0.0,0.0,1.0,0.0,0.0,0.0,1.0
1480508889030622716,582,1480508889027663764,,-2.10750603676,-1.35169148445,172.713973999,0.00113999994937,1.0,0.0,0.0,0.0,1.0,0.0,0.0,0.0,1.0,-0.365853667259,2.25609779358,-0.243902444839,1.0,0.0,0.0,0.0,1.0,0.0,0.0,0.0,1.0,1.1540052002,-0.177170922852,10.1514150391,1.0,0.0,0.0,0.0,1.0,0.0,0.0,0.0,1.0
1480508889053482203,583,1480508889048991743,,-2.10777497292,-1.3517343998,172.694747925,0.00107400002889,1.0,0.0,0.0,0.0,1.0,0.0,0.0,0.0,1.0,-0.0609756112099,2.43902444839,-0.365853667259,1.0,0.0,0.0,0.0,1.0,0.0,0.0,0.0,1.0,1.23061965332,-0.181959326172,10.2376062988,1.0,0.0,0.0,0.0,1.0,0.0,0.0,0.0,1.0
1480508889075230129,584,1480508889071819927,,-2.11099076271,-1.35370445251,172.674713135,0.00114099995699,1.0,0.0,0.0,0.0,1.0,0.0,0.0,0.0,1.0,0.0,2.5,-0.487804889679,1.0,0.0,0.0,0.0,1.0,0.0,0.0,0.0,1.0,1.29286889648,-0.186747729492,10.2328178955,1.0,0.0,0.0,0.0,1.0,0.0,0.0,0.0,1.0
1480508889095474933,585,1480508889091002494,,-2.10925626755,-1.35465431213,172.657531738,0.00127300003078,1.0,0.0,0.0,0.0,1.0,0.0,0.0,0.0,1.0,-0.365853667259,2.43902444839,-0.426829278469,1.0,0.0,0.0,0.0,1.0,0.0,0.0,0.0,1.0,1.17794714373,-0.143652099609,10.2088758789,1.0,0.0,0.0,0.0,1.0,0.0,0.0,0.0,1.0
1480508889118074160,586,1480508889113137659,,-2.10500574112,-1.35242187977,172.638336182,0.00104999996256,1.0,0.0,0.0,0.0,1.0,0.0,0.0,0.0,1.0,-0.12195122242,2.43902444839,-0.18292683363,1.0,0.0,0.0,0.0,1.0,0.0,0.0,0.0,1.0,1.19231249982,-0.181959326172,10.2423947021,1.0,0.0,0.0,0.0,1.0,0.0,0.0,0.0,1.0
1480508889141305468,587,1480508889137736465,,-2.10229802132,-1.35291814804,172.618118286,0.00401399983093,1.0,0.0,0.0,0.0,1.0,0.0,0.0,0.0,1.0,-0.0609756112099,2.37804889679,-0.243902444839,1.0,0.0,0.0,0.0,1.0,0.0,0.0,0.0,1.0,1.19710090314,-0.167594116211,10.2471831055,1.0,0.0,0.0,0.0,1.0,0.0,0.0,0.0,1.0
1480508889159639964,588,1480508889156815178,,-2.09992551804,-1.35108721256,172.599746704,0.0048170001246,1.0,0.0,0.0,0.0,1.0,0.0,0.0,0.0,1.0,-0.0609756112099,2.07317066193,-0.426829278469,1.0,0.0,0.0,0.0,1.0,0.0,0.0,0.0,1.0,1.13006318359,-0.220266552734,10.1322614258,1.0,0.0,0.0,0.0,1.0,0.0,0.0,0.0,1.0
1480508889180980547,589,1480508889177345294,,-2.0992436409,-1.35180056095,172.581970215,0.00339099997655,1.0,0.0,0.0,0.0,1.0,0.0,0.0,0.0,1.0,-0.304878056049,2.25609779358,-0.18292683363,1.0,0.0,0.0,0.0,1.0,0.0,0.0,0.0,1.0,1.20667770978,-0.167594116211,10.1753570557,1.0,0.0,0.0,0.0,1.0,0.0,0.0,0.0,1.0
1480508889201208164,590,1480508889198263169,,-2.09889984131,-1.35275375843,172.562316895,0.00125099997967,1.0,0.0,0.0,0.0,1.0,0.0,0.0,0.0,1.0,-0.304878056049,2.25609779358,-0.304878056049,1.0,0.0,0.0,0.0,1.0,0.0,0.0,0.0,1.0,1.08217922346,-0.229843359375,10.1226846191,1.0,0.0,0.0,0.0,1.0,0.0,0.0,0.0,1.0
1480508889223863848,591,1480508889220654011,,-2.09976100922,-1.35289609432,172.542449951,0.00347999995574,1.0,0.0,0.0,0.0,1.0,0.0,0.0,0.0,1.0,-0.12195122242,1.95121955872,-0.304878056049,1.0,0.0,0.0,0.0,1.0,0.0,0.0,0.0,1.0,1.24019645996,-0.186747729492,10.1897222656,1.0,0.0,0.0,0.0,1.0,0.0,0.0,0.0,1.0
1480508889243835632,592,1480508889240397306,,-2.09962105751,-1.35206151009,172.524429321,0.00139400002081,1.0,0.0,0.0,0.0,1.0,0.0,0.0,0.0,1.0,-0.243902444839,2.01219511032,-0.365853667259,1.0,0.0,0.0,0.0,1.0,0.0,0.0,0.0,1.0,1.22104284668,-0.167594116211,10.2423947021,1.0,0.0,0.0,0.0,1.0,0.0,0.0,0.0,1.0
1480508889264519967,593,1480508889261280598,,-2.10232925415,-1.35021317005,172.50630188,0.00106399995275,1.0,0.0,0.0,0.0,1.0,0.0,0.0,0.0,1.0,-0.12195122242,2.31707310677,-0.12195122242,1.0,0.0,0.0,0.0,1.0,0.0,0.0,0.0,1.0,1.1540052002,-0.225054956055,10.2615483154,1.0,0.0,0.0,0.0,1.0,0.0,0.0,0.0,1.0
1480508889285808675,594,1480508889282465713,,-2.10122227669,-1.34989774227,172.489364624,0.00117399997544,1.0,0.0,0.0,0.0,1.0,0.0,0.0,0.0,1.0,-0.12195122242,2.19512200356,-0.365853667259,1.0,0.0,0.0,0.0,1.0,0.0,0.0,0.0,1.0,1.1540052002,-0.229843359375,10.1945106689,1.0,0.0,0.0,0.0,1.0,0.0,0.0,0.0,1.0
1480508889305932854,595,1480508889303024631,,-2.10660672188,-1.34935152531,172.472335815,0.00104700005613,1.0,0.0,0.0,0.0,1.0,0.0,0.0,0.0,1.0,-0.12195122242,2.01219511032,-0.18292683363,1.0,0.0,0.0,0.0,1.0,0.0,0.0,0.0,1.0,1.2497732666,-0.167594116211,10.0795889893,1.0,0.0,0.0,0.0,1.0,0.0,0.0,0.0,1.0
1480508889326641460,596,1480508889323743757,,-2.10927534103,-1.34987878799,172.453323364,0.00102199998219,1.0,0.0,0.0,0.0,1.0,0.0,0.0,0.0,1.0,-0.18292683363,2.37804889679,-0.304878056049,1.0,0.0,0.0,0.0,1.0,0.0,0.0,0.0,1.0,1.17794714373,-0.210689746094,10.1897222656,1.0,0.0,0.0,0.0,1.0,0.0,0.0,0.0,1.0
1480508889348205636,597,1480508889345322673,,-2.10821557045,-1.34951782227,172.436248779,0.00106000003871,1.0,0.0,0.0,0.0,1.0,0.0,0.0,0.0,1.0,-0.0609756112099,2.37804889679,-0.548780500889,1.0,0.0,0.0,0.0,1.0,0.0,0.0,0.0,1.0,1.24019645996,-0.134075302102,10.165780249,1.0,0.0,0.0,0.0,1.0,0.0,0.0,0.0,1.0
1480508889372793505,598,1480508889366014143,,-2.10801696777,-1.35105764866,172.417358398,0.00102600001264,1.0,0.0,0.0,0.0,1.0,0.0,0.0,0.0,1.0,-0.0609756112099,2.43902444839,-0.365853667259,1.0,0.0,0.0,0.0,1.0,0.0,0.0,0.0,1.0,1.25456166992,-0.215478149414,10.2184526855,1.0,0.0,0.0,0.0,1.0,0.0,0.0,0.0,1.0
1480508889389973315,599,1480508889386688998,,-2.11048817635,-1.35488367081,172.399383545,0.000983000034466,1.0,0.0,0.0,0.0,1.0,0.0,0.0,0.0,1.0,-0.12195122242,2.25609779358,-0.487804889679,1.0,0.0,0.0,0.0,1.0,0.0,0.0,0.0,1.0,1.17794714373,-0.172382519531,10.2471831055,1.0,0.0,0.0,0.0,1.0,0.0,0.0,0.0,1.0
1480508889413029207,600,1480508889407394687,,-2.11235451698,-1.35333311558,172.379760742,0.000969999993686,1.0,0.0,0.0,0.0,1.0,0.0,0.0,0.0,1.0,-0.365853667259,2.43902444839,-0.243902444839,1.0,0.0,0.0,0.0,1.0,0.0,0.0,0.0,1.0,1.25935007324,-0.181959326172,10.165780249,1.0,0.0,0.0,0.0,1.0,0.0,0.0,0.0,1.0
1480508889432849325,601,1480508889428061938,,-2.11157727242,-1.3489831686,172.360702515,0.00118100002874,1.0,0.0,0.0,0.0,1.0,0.0,0.0,0.0,1.0,-0.12195122242,2.43902444839,-0.487804889679,1.0,0.0,0.0,0.0,1.0,0.0,0.0,0.0,1.0,1.13963999023,-0.119710083008,10.1083194092,1.0,0.0,0.0,0.0,1.0,0.0,0.0,0.0,1.0
1480508889454017512,602,1480508889448974241,,-2.11042165756,-1.34777438641,172.342407227,0.000969999993686,1.0,0.0,0.0,0.0,1.0,0.0,0.0,0.0,1.0,-0.548780500889,2.43902444839,-0.304878056049,1.0,0.0,0.0,0.0,1.0,0.0,0.0,0.0,1.0,1.20667770978,-0.220266552734,10.2040874756,1.0,0.0,0.0,0.0,1.0,0.0,0.0,0.0,1.0
1480508889476491218,603,1480508889473364402,,-2.10841798782,-1.34809243679,172.324447632,0.00106499996036,1.0,0.0,0.0,0.0,1.0,0.0,0.0,0.0,1.0,0.0,2.19512200356,-0.365853667259,1.0,0.0,0.0,0.0,1.0,0.0,0.0,0.0,1.0,1.1875240965,-0.167594116211,10.2232410889,1.0,0.0,0.0,0.0,1.0,0.0,0.0,0.0,1.0
1480508889498155395,604,1480508889495768577,,-2.10702824593,-1.3440990448,172.305130005,0.00123299995903,1.0,0.0,0.0,0.0,1.0,0.0,0.0,0.0,1.0,-0.243902444839,2.43902444839,-0.243902444839,1.0,0.0,0.0,0.0,1.0,0.0,0.0,0.0,1.0,1.20188930646,-0.129286889648,10.2376062988,1.0,0.0,0.0,0.0,1.0,0.0,0.0,0.0,1.0
1480508889521356027,605,1480508889517674419,,-2.108522892,-1.34891414642,172.283004761,0.00582600012422,1.0,0.0,0.0,0.0,1.0,0.0,0.0,0.0,1.0,-0.18292683363,2.25609779358,-0.304878056049,1.0,0.0,0.0,0.0,1.0,0.0,0.0,0.0,1.0,1.19710090314,-0.292092584273,10.1945106689,1.0,0.0,0.0,0.0,1.0,0.0,0.0,0.0,1.0
1480508889542640933,606,1480508889539491356,,-2.11207771301,-1.34898424149,172.263290405,0.00225299992599,1.0,0.0,0.0,0.0,1.0,0.0,0.0,0.0,1.0,-0.0609756112099,2.07317066193,-0.365853667259,1.0,0.0,0.0,0.0,1.0,0.0,0.0,0.0,1.0,1.1875240965,-0.220266552734,10.2280294922,1.0,0.0,0.0,0.0,1.0,0.0,0.0,0.0,1.0
1480508889565319222,607,1480508889559749962,,-2.11400651932,-1.34697198868,172.246368408,0.0023729999084,1.0,0.0,0.0,0.0,1.0,0.0,0.0,0.0,1.0,-0.243902444839,2.19512200356,-0.365853667259,1.0,0.0,0.0,0.0,1.0,0.0,0.0,0.0,1.0,1.19231249982,-0.201112939453,10.2328178955,1.0,0.0,0.0,0.0,1.0,0.0,0.0,0.0,1.0
1480508889586429285,608,1480508889581254295,,-2.11381459236,-1.34801447392,172.228439331,0.0011269999668,1.0,0.0,0.0,0.0,1.0,0.0,0.0,0.0,1.0,0.0,2.31707310677,-0.304878056049,1.0,0.0,0.0,0.0,1.0,0.0,0.0,0.0,1.0,1.1540052002,-0.134075302102,10.1514150391,1.0,0.0,0.0,0.0,1.0,0.0,0.0,0.0,1.0
1480508889604833936,609,1480508889602037223,,-2.11590075493,-1.35020518303,172.211227417,0.00101400003769,1.0,0.0,0.0,0.0,1.0,0.0,0.0,0.0,1.0,-0.12195122242,2.07317066193,-0.243902444839,1.0,0.0,0.0,0.0,1.0,0.0,0.0,0.0,1.0,1.13963999023,-0.215478149414,10.0891657959,1.0,0.0,0.0,0.0,1.0,0.0,0.0,0.0,1.0
1480508889626033113,610,1480508889623118379,,-2.11613225937,-1.34840619564,172.191345215,0.0011040000245,1.0,0.0,0.0,0.0,1.0,0.0,0.0,0.0,1.0,-0.0609756112099,2.31707310677,-0.548780500889,1.0,0.0,0.0,0.0,1.0,0.0,0.0,0.0,1.0,1.09175595703,-0.15801730957,10.1609918457,1.0,0.0,0.0,0.0,1.0,0.0,0.0,0.0,1.0
1480508889648159632,611,1480508889643785943,,-2.11583280563,-1.35128772259,172.172042847,0.000974000024144,1.0,0.0,0.0,0.0,1.0,0.0,0.0,0.0,1.0,-0.365853667259,2.25609779358,-0.487804889679,1.0,0.0,0.0,0.0,1.0,0.0,0.0,0.0,1.0,1.20667770978,-0.210689746094,10.1562034424,1.0,0.0,0.0,0.0,1.0,0.0,0.0,0.0,1.0
1480508889668789540,612,1480508889664904808,,-2.11385297775,-1.35471689701,172.15335083,0.000967999978457,1.0,0.0,0.0,0.0,1.0,0.0,0.0,0.0,1.0,-0.12195122242,2.43902444839,-0.12195122242,1.0,0.0,0.0,0.0,1.0,0.0,0.0,0.0,1.0,1.18273554705,-0.215478149414,10.180145459,1.0,0.0,0.0,0.0,1.0,0.0,0.0,0.0,1.0
1480508889690170800,613,1480508889685937527,,-2.11450386047,-1.35359740257,172.13508606,0.000989999971353,1.0,0.0,0.0,0.0,1.0,0.0,0.0,0.0,1.0,-0.12195122242,2.31707310677,-0.487804889679,1.0,0.0,0.0,0.0,1.0,0.0,0.0,0.0,1.0,1.20188930646,-0.181959326172,10.1945106689,1.0,0.0,0.0,0.0,1.0,0.0,0.0,0.0,1.0
1480508889710396438,614,1480508889706838580,,-2.11021637917,-1.3547757864,172.114868164,0.0009710000013,1.0,0.0,0.0,0.0,1.0,0.0,0.0,0.0,1.0,0.0,2.5,-0.243902444839,1.0,0.0,0.0,0.0,1.0,0.0,0.0,0.0,1.0,1.20188930646,-0.15801730957,10.2088758789,1.0,0.0,0.0,0.0,1.0,0.0,0.0,0.0,1.0
1480508889735358160,615,1480508889728121716,,-2.10639071465,-1.3572357893,172.095397949,0.00113200000487,1.0,0.0,0.0,0.0,1.0,0.0,0.0,0.0,1.0,-0.0609756112099,2.62195134163,-0.365853667259,1.0,0.0,0.0,0.0,1.0,0.0,0.0,0.0,1.0,1.17794714373,-0.191536132812,10.1945106689,1.0,0.0,0.0,0.0,1.0,0.0,0.0,0.0,1.0
1480508889755662912,616,1480508889749249539,,-2.10492682457,-1.3588296175,172.076034546,0.000984000042081,1.0,0.0,0.0,0.0,1.0,0.0,0.0,0.0,1.0,-0.12195122242,2.31707310677,-0.18292683363,1.0,0.0,0.0,0.0,1.0,0.0,0.0,0.0,1.0,1.19710090314,-0.201112939453,10.1418382324,1.0,0.0,0.0,0.0,1.0,0.0,0.0,0.0,1.0
1480508889775425373,617,1480508889771382933,,-2.10106086731,-1.35858929157,172.059143066,0.00102500000503,1.0,0.0,0.0,0.0,1.0,0.0,0.0,0.0,1.0,0.12195122242,2.37804889679,-0.243902444839,1.0,0.0,0.0,0.0,1.0,0.0,0.0,0.0,1.0,1.16837033709,-0.234631762695,10.1753570557,1.0,0.0,0.0,0.0,1.0,0.0,0.0,0.0,1.0
1480508889798616890,618,1480508889795481532,,-2.10025691986,-1.36322665215,172.039520264,0.00112399994396,1.0,0.0,0.0,0.0,1.0,0.0,0.0,0.0,1.0,-0.426829278469,2.37804889679,-0.426829278469,1.0,0.0,0.0,0.0,1.0,0.0,0.0,0.0,1.0,1.20188930646,-0.258573779297,10.1322614258,1.0,0.0,0.0,0.0,1.0,0.0,0.0,0.0,1.0
1480508889818043935,619,1480508889816242324,,-2.09671401978,-1.36310791969,172.020111084,0.00289299990982,1.0,0.0,0.0,0.0,1.0,0.0,0.0,0.0,1.0,-0.365853667259,2.37804889679,-0.304878056049,1.0,0.0,0.0,0.0,1.0,0.0,0.0,0.0,1.0,1.17794714373,-0.191536132812,10.3046439453,1.0,0.0,0.0,0.0,1.0,0.0,0.0,0.0,1.0
1480508889842134722,620,1480508889836789211,,-2.09785914421,-1.3597086668,172.002319336,0.00108099996578,1.0,0.0,0.0,0.0,1.0,0.0,0.0,0.0,1.0,-0.0609756112099,2.37804889679,-0.426829278469,1.0,0.0,0.0,0.0,1.0,0.0,0.0,0.0,1.0,1.1875240965,-0.15801730957,10.1322614258,1.0,0.0,0.0,0.0,1.0,0.0,0.0,0.0,1.0
1480508889858115263,621,1480508889855495060,,-2.09942412376,-1.35840988159,171.984588623,0.0011490000179,1.0,0.0,0.0,0.0,1.0,0.0,0.0,0.0,1.0,-0.243902444839,2.25609779358,-0.243902444839,1.0,0.0,0.0,0.0,1.0,0.0,0.0,0.0,1.0,1.24498486328,-0.172382519531,10.2232410889,1.0,0.0,0.0,0.0,1.0,0.0,0.0,0.0,1.0
1480508889889572181,622,1480508889880645167,,-2.10067558289,-1.35707426071,171.965316772,0.00277899997309,1.0,0.0,0.0,0.0,1.0,0.0,0.0,0.0,1.0,0.12195122242,2.25609779358,-0.18292683363,1.0,0.0,0.0,0.0,1.0,0.0,0.0,0.0,1.0,1.13485158691,-0.15801730957,10.1945106689,1.0,0.0,0.0,0.0,1.0,0.0,0.0,0.0,1.0
1480508889903136738,623,1480508889900214816,,-2.09856915474,-1.35423636436,171.948944092,0.00128199998289,1.0,0.0,0.0,0.0,1.0,0.0,0.0,0.0,1.0,-0.243902444839,2.07317066193,-0.487804889679,1.0,0.0,0.0,0.0,1.0,0.0,0.0,0.0,1.0,1.20188930646,-0.177170922852,10.1562034424,1.0,0.0,0.0,0.0,1.0,0.0,0.0,0.0,1.0
1480508889922980188,624,1480508889920845922,,-2.10137581825,-1.3550773859,171.931121826,0.00135399994906,1.0,0.0,0.0,0.0,1.0,0.0,0.0,0.0,1.0,-0.18292683363,2.25609779358,-0.18292683363,1.0,0.0,0.0,0.0,1.0,0.0,0.0,0.0,1.0,1.21146604004,-0.110133276367,10.1992990723,1.0,0.0,0.0,0.0,1.0,0.0,0.0,0.0,1.0
1480508889942941555,625,1480508889941281038,,-2.1006925106,-1.36013746262,171.913360596,0.00108600000385,1.0,0.0,0.0,0.0,1.0,0.0,0.0,0.0,1.0,-0.18292683363,2.19512200356,-0.18292683363,1.0,0.0,0.0,0.0,1.0,0.0,0.0,0.0,1.0,1.12527478027,-0.263362164351,10.1418382324,1.0,0.0,0.0,0.0,1.0,0.0,0.0,0.0,1.0
1480508889964800315,626,1480508889962244799,,-2.10270452499,-1.35779225826,171.895370483,0.00100899999961,1.0,0.0,0.0,0.0,1.0,0.0,0.0,0.0,1.0,0.0609756112099,2.07317066193,-0.304878056049,1.0,0.0,0.0,0.0,1.0,0.0,0.0,0.0,1.0,1.20667770978,-0.138863696289,10.2184526855,1.0,0.0,0.0,0.0,1.0,0.0,0.0,0.0,1.0
1480508889984947775,627,1480508889982742050,,-2.10218048096,-1.35727465153,171.87689209,0.00100199994631,1.0,0.0,0.0,0.0,1.0,0.0,0.0,0.0,1.0,-0.487804889679,2.43902444839,-0.487804889679,1.0,0.0,0.0,0.0,1.0,0.0,0.0,0.0,1.0,1.1540052002,-0.15322890625,10.1370498291,1.0,0.0,0.0,0.0,1.0,0.0,0.0,0.0,1.0
1480508890006391431,628,1480508890004042269,,-2.10655808449,-1.36003577709,171.858444214,0.000982000026852,1.0,0.0,0.0,0.0,1.0,0.0,0.0,0.0,1.0,-0.304878056049,2.13414645195,-0.243902444839,1.0,0.0,0.0,0.0,1.0,0.0,0.0,0.0,1.0,1.28808049316,-0.143652099609,10.2807019287,1.0,0.0,0.0,0.0,1.0,0.0,0.0,0.0,1.0
1480508890028268368,629,1480508890024828010,,-2.10803985596,-1.35783660412,171.841156006,0.00101200002246,1.0,0.0,0.0,0.0,1.0,0.0,0.0,0.0,1.0,-0.243902444839,2.25609779358,-0.304878056049,1.0,0.0,0.0,0.0,1.0,0.0,0.0,0.0,1.0,1.2737152832,-0.134075302102,10.285490332,1.0,0.0,0.0,0.0,1.0,0.0,0.0,0.0,1.0
1480508890048392391,630,1480508890045608490,,-2.10828113556,-1.35753262043,171.821640015,0.000968999986071,1.0,0.0,0.0,0.0,1.0,0.0,0.0,0.0,1.0,-0.243902444839,2.43902444839,-0.487804889679,1.0,0.0,0.0,0.0,1.0,0.0,0.0,0.0,1.0,1.22104284668,-0.177170922852,10.1274730225,1.0,0.0,0.0,0.0,1.0,0.0,0.0,0.0,1.0
1480508890069548860,631,1480508890066480585,,-2.10647845268,-1.35718941689,171.804473877,0.000960999983363,1.0,0.0,0.0,0.0,1.0,0.0,0.0,0.0,1.0,0.0609756112099,2.37804889679,-0.12195122242,1.0,0.0,0.0,0.0,1.0,0.0,0.0,0.0,1.0,1.22583125,-0.186747729492,10.180145459,1.0,0.0,0.0,0.0,1.0,0.0,0.0,0.0,1.0
1480508890089638664,632,1480508890087772991,,-2.10677933693,-1.35456967354,171.784744263,0.00111399998423,1.0,0.0,0.0,0.0,1.0,0.0,0.0,0.0,1.0,-0.0609756112099,2.56097555161,-0.304878056049,1.0,0.0,0.0,0.0,1.0,0.0,0.0,0.0,1.0,1.23061965332,-0.167594116211,10.2040874756,1.0,0.0,0.0,0.0,1.0,0.0,0.0,0.0,1.0
1480508890111348101,633,1480508890108655658,,-2.10999798775,-1.35355591774,171.768692017,0.000965000013821,1.0,0.0,0.0,0.0,1.0,0.0,0.0,0.0,1.0,-0.243902444839,2.37804889679,-0.426829278469,1.0,0.0,0.0,0.0,1.0,0.0,0.0,0.0,1.0,1.22583125,-0.181959326172,10.2711251221,1.0,0.0,0.0,0.0,1.0,0.0,0.0,0.0,1.0
1480508890132387226,634,1480508890130068012,,-2.1080930233,-1.35530412197,171.751266479,0.000990999978967,1.0,0.0,0.0,0.0,1.0,0.0,0.0,0.0,1.0,0.0,2.31707310677,-0.243902444839,1.0,0.0,0.0,0.0,1.0,0.0,0.0,0.0,1.0,1.24019645996,-0.225054956055,10.1753570557,1.0,0.0,0.0,0.0,1.0,0.0,0.0,0.0,1.0
1480508890154190882,635,1480508890150642972,,-2.11046671867,-1.35321712494,171.734375,0.000967999978457,1.0,0.0,0.0,0.0,1.0,0.0,0.0,0.0,1.0,-0.0609756112099,2.31707310677,-0.304878056049,1.0,0.0,0.0,0.0,1.0,0.0,0.0,0.0,1.0,1.1875240965,-0.191536132812,10.2088758789,1.0,0.0,0.0,0.0,1.0,0.0,0.0,0.0,1.0
1480508890174501675,636,1480508890172851678,,-2.11396169662,-1.35363268852,171.715301514,0.00372299994342,1.0,0.0,0.0,0.0,1.0,0.0,0.0,0.0,1.0,-0.243902444839,2.01219511032,-0.365853667259,1.0,0.0,0.0,0.0,1.0,0.0,0.0,0.0,1.0,1.2497732666,-0.15801730957,10.2136642822,1.0,0.0,0.0,0.0,1.0,0.0,0.0,0.0,1.0
1480508890197266214,637,1480508890194290855,,-2.11573719978,-1.35305440426,171.695999146,0.00112100003753,1.0,0.0,0.0,0.0,1.0,0.0,0.0,0.0,1.0,-0.12195122242,2.19512200356,-0.365853667259,1.0,0.0,0.0,0.0,1.0,0.0,0.0,0.0,1.0,1.19710090314,-0.148440512063,10.1418382324,1.0,0.0,0.0,0.0,1.0,0.0,0.0,0.0,1.0
1480508890224000328,638,1480508890221145282,,-2.1123278141,-1.35416579247,171.674224854,0.00879099965096,1.0,0.0,0.0,0.0,1.0,0.0,0.0,0.0,1.0,-0.12195122242,2.25609779358,-0.304878056049,1.0,0.0,0.0,0.0,1.0,0.0,0.0,0.0,1.0,1.13963999023,-0.186747729492,10.3381627686,1.0,0.0,0.0,0.0,1.0,0.0,0.0,0.0,1.0
1480508890241930241,639,1480508890240182120,,-2.11012125015,-1.35566401482,171.655700684,0.00133300002199,1.0,0.0,0.0,0.0,1.0,0.0,0.0,0.0,1.0,-0.426829278469,2.43902444839,-0.243902444839,1.0,0.0,0.0,0.0,1.0,0.0,0.0,0.0,1.0,1.19231249982,-0.205901342773,10.3285859619,1.0,0.0,0.0,0.0,1.0,0.0,0.0,0.0,1.0
1480508890265469362,640,1480508890261677442,,-2.11148500443,-1.35399103165,171.637237549,0.00128099997528,1.0,0.0,0.0,0.0,1.0,0.0,0.0,0.0,1.0,0.0,2.37804889679,-0.365853667259,1.0,0.0,0.0,0.0,1.0,0.0,0.0,0.0,1.0,1.24019645996,-0.210689746094,10.1466266357,1.0,0.0,0.0,0.0,1.0,0.0,0.0,0.0,1.0
1480508890287009892,641,1480508890283354379,,-2.11014938354,-1.35530591011,171.618759155,0.00105900003109,1.0,0.0,0.0,0.0,1.0,0.0,0.0,0.0,1.0,0.0609756112099,2.13414645195,-0.243902444839,1.0,0.0,0.0,0.0,1.0,0.0,0.0,0.0,1.0,1.23540805664,-0.191536132812,10.2184526855,1.0,0.0,0.0,0.0,1.0,0.0,0.0,0.0,1.0
1480508890307295894,642,1480508890304349806,,-2.11010980606,-1.35490822792,171.598739624,0.000976999988779,1.0,0.0,0.0,0.0,1.0,0.0,0.0,0.0,1.0,-0.304878056049,2.43902444839,-0.487804889679,1.0,0.0,0.0,0.0,1.0,0.0,0.0,0.0,1.0,1.22104284668,-0.181959326172,10.0939541992,1.0,0.0,0.0,0.0,1.0,0.0,0.0,0.0,1.0
1480508890328821581,643,1480508890325612838,,-2.10958981514,-1.35617983341,171.580657959,0.00097499997355,1.0,0.0,0.0,0.0,1.0,0.0,0.0,0.0,1.0,-0.12195122242,2.37804889679,-0.609756112099,1.0,0.0,0.0,0.0,1.0,0.0,0.0,0.0,1.0,1.23540805664,-0.272938989258,10.180145459,1.0,0.0,0.0,0.0,1.0,0.0,0.0,0.0,1.0
1480508890349942998,644,1480508890347070296,,-2.10804009438,-1.35340452194,171.561965942,0.00111299997661,1.0,0.0,0.0,0.0,1.0,0.0,0.0,0.0,1.0,-0.18292683363,2.19512200356,-0.670731723309,1.0,0.0,0.0,0.0,1.0,0.0,0.0,0.0,1.0,1.26892687988,-0.15322890625,10.1035310059,1.0,0.0,0.0,0.0,1.0,0.0,0.0,0.0,1.0
1480508890375794302,645,1480508890367943484,,-2.1087884903,-1.35312604904,171.54335022,0.000973000016529,1.0,0.0,0.0,0.0,1.0,0.0,0.0,0.0,1.0,0.0,2.13414645195,-0.426829278469,1.0,0.0,0.0,0.0,1.0,0.0,0.0,0.0,1.0,1.24498486328,-0.186747729492,10.1992990723,1.0,0.0,0.0,0.0,1.0,0.0,0.0,0.0,1.0
1480508890394465828,646,1480508890389279119,,-2.1077542305,-1.35189926624,171.525192261,0.00108800001908,1.0,0.0,0.0,0.0,1.0,0.0,0.0,0.0,1.0,0.0,2.31707310677,-0.304878056049,1.0,0.0,0.0,0.0,1.0,0.0,0.0,0.0,1.0,1.20667770978,-0.220266552734,10.2423947021,1.0,0.0,0.0,0.0,1.0,0.0,0.0,0.0,1.0
1480508890412450324,647,1480508890409915433,,-2.10641121864,-1.35351133347,171.506652832,0.00106999999844,1.0,0.0,0.0,0.0,1.0,0.0,0.0,0.0,1.0,-0.18292683363,2.37804889679,-0.243902444839,1.0,0.0,0.0,0.0,1.0,0.0,0.0,0.0,1.0,1.17794714373,-0.181959326172,10.1322614258,1.0,0.0,0.0,0.0,1.0,0.0,0.0,0.0,1.0
1480508890433614397,648,1480508890430781799,,-2.10693287849,-1.35172653198,171.48828125,0.00115100003313,1.0,0.0,0.0,0.0,1.0,0.0,0.0,0.0,1.0,0.0,2.5,-0.426829278469,1.0,0.0,0.0,0.0,1.0,0.0,0.0,0.0,1.0,1.23540805664,-0.138863696289,10.1753570557,1.0,0.0,0.0,0.0,1.0,0.0,0.0,0.0,1.0
1480508890453461650,649,1480508890450906655,,-2.10363888741,-1.35322248936,171.471694946,0.00122400000691,1.0,0.0,0.0,0.0,1.0,0.0,0.0,0.0,1.0,-0.12195122242,2.37804889679,-0.426829278469,1.0,0.0,0.0,0.0,1.0,0.0,0.0,0.0,1.0,1.19231249982,-0.134075302102,10.2615483154,1.0,0.0,0.0,0.0,1.0,0.0,0.0,0.0,1.0
1480508890476705250,650,1480508890473246351,,-2.10183262825,-1.35317826271,171.452178955,0.00139999995008,1.0,0.0,0.0,0.0,1.0,0.0,0.0,0.0,1.0,-0.365853667259,2.31707310677,-0.426829278469,1.0,0.0,0.0,0.0,1.0,0.0,0.0,0.0,1.0,1.18273554705,-0.234631762695,10.2040874756,1.0,0.0,0.0,0.0,1.0,0.0,0.0,0.0,1.0
1480508890496406983,651,1480508890493673394,,-2.10156965256,-1.35141277313,171.433944702,0.00125600001775,1.0,0.0,0.0,0.0,1.0,0.0,0.0,0.0,1.0,0.0,2.13414645195,-0.243902444839,1.0,0.0,0.0,0.0,1.0,0.0,0.0,0.0,1.0,1.14442839355,-0.181959326172,10.1083194092,1.0,0.0,0.0,0.0,1.0,0.0,0.0,0.0,1.0
1480508890524957968,652,1480508890520106259,,-2.10054111481,-1.35057425499,171.413864136,0.00325899990276,1.0,0.0,0.0,0.0,1.0,0.0,0.0,0.0,1.0,-0.0609756112099,2.37804889679,-0.365853667259,1.0,0.0,0.0,0.0,1.0,0.0,0.0,0.0,1.0,1.19710090314,-0.15801730957,10.1897222656,1.0,0.0,0.0,0.0,1.0,0.0,0.0,0.0,1.0
1480508890541744238,653,1480508890539294399,,-2.10091662407,-1.3542137146,171.395278931,0.00135000003502,1.0,0.0,0.0,0.0,1.0,0.0,0.0,0.0,1.0,-0.426829278469,2.43902444839,-0.365853667259,1.0,0.0,0.0,0.0,1.0,0.0,0.0,0.0,1.0,1.23061965332,-0.215478149414,10.1705686523,1.0,0.0,0.0,0.0,1.0,0.0,0.0,0.0,1.0
1480508890563802788,654,1480508890559937848,,-2.10251688957,-1.3570305109,171.376434326,0.00129899999592,1.0,0.0,0.0,0.0,1.0,0.0,0.0,0.0,1.0,-0.18292683363,2.01219511032,-0.12195122242,1.0,0.0,0.0,0.0,1.0,0.0,0.0,0.0,1.0,1.28808049316,-0.239420166016,10.2040874756,1.0,0.0,0.0,0.0,1.0,0.0,0.0,0.0,1.0
1480508890584295092,655,1480508890581458118,,-2.10204577446,-1.35710835457,171.356063843,0.00188300001901,1.0,0.0,0.0,0.0,1.0,0.0,0.0,0.0,1.0,-0.18292683363,2.25609779358,-0.426829278469,1.0,0.0,0.0,0.0,1.0,0.0,0.0,0.0,1.0,1.18273554705,-0.220266552734,10.2519715088,1.0,0.0,0.0,0.0,1.0,0.0,0.0,0.0,1.0
1480508890605478071,656,1480508890602117244,,-2.10156083107,-1.35592401028,171.33833313,0.00127500004601,1.0,0.0,0.0,0.0,1.0,0.0,0.0,0.0,1.0,-0.0609756112099,2.25609779358,-0.487804889679,1.0,0.0,0.0,0.0,1.0,0.0,0.0,0.0,1.0,1.1540052002,-0.167594116211,10.1897222656,1.0,0.0,0.0,0.0,1.0,0.0,0.0,0.0,1.0
1480508890626219489,657,1480508890623247568,,-2.10058569908,-1.35356211662,171.320831299,0.00101899995934,1.0,0.0,0.0,0.0,1.0,0.0,0.0,0.0,1.0,-0.0609756112099,2.19512200356,-0.243902444839,1.0,0.0,0.0,0.0,1.0,0.0,0.0,0.0,1.0,1.21146604004,-0.177170922852,10.1992990723,1.0,0.0,0.0,0.0,1.0,0.0,0.0,0.0,1.0
1480508890648090175,658,1480508890644437109,,-2.10286140442,-1.35258281231,171.303726196,0.00101899995934,1.0,0.0,0.0,0.0,1.0,0.0,0.0,0.0,1.0,-0.243902444839,2.43902444839,-0.243902444839,1.0,0.0,0.0,0.0,1.0,0.0,0.0,0.0,1.0,1.19231249982,-0.172382519531,10.180145459,1.0,0.0,0.0,0.0,1.0,0.0,0.0,0.0,1.0
1480508890668305865,659,1480508890665452381,,-2.10159301758,-1.35197126865,171.286071777,0.00102600001264,1.0,0.0,0.0,0.0,1.0,0.0,0.0,0.0,1.0,-0.0609756112099,2.37804889679,-0.243902444839,1.0,0.0,0.0,0.0,1.0,0.0,0.0,0.0,1.0,1.21625444336,-0.15322890625,10.1370498291,1.0,0.0,0.0,0.0,1.0,0.0,0.0,0.0,1.0
1480508890689615302,660,1480508890686106351,,-2.10320997238,-1.34979963303,171.267883301,0.00101000000723,1.0,0.0,0.0,0.0,1.0,0.0,0.0,0.0,1.0,0.0609756112099,2.19512200356,-0.243902444839,1.0,0.0,0.0,0.0,1.0,0.0,0.0,0.0,1.0,1.24019645996,-0.15322890625,10.1753570557,1.0,0.0,0.0,0.0,1.0,0.0,0.0,0.0,1.0
1480508890709923179,661,1480508890707320320,,-2.10244083405,-1.35043978691,171.250106812,0.00118899997324,1.0,0.0,0.0,0.0,1.0,0.0,0.0,0.0,1.0,-0.12195122242,2.31707310677,-0.609756112099,1.0,0.0,0.0,0.0,1.0,0.0,0.0,0.0,1.0,1.18273554705,-0.15801730957,10.1609918457,1.0,0.0,0.0,0.0,1.0,0.0,0.0,0.0,1.0
1480508890730584285,662,1480508890728708142,,-2.10160541534,-1.3524711132,171.232116699,0.0010150000453,1.0,0.0,0.0,0.0,1.0,0.0,0.0,0.0,1.0,-0.243902444839,2.37804889679,-0.426829278469,1.0,0.0,0.0,0.0,1.0,0.0,0.0,0.0,1.0,1.12527478027,-0.129286889648,10.2519715088,1.0,0.0,0.0,0.0,1.0,0.0,0.0,0.0,1.0
1480508890755894287,663,1480508890749692633,,-2.10050606728,-1.35085713863,171.213760376,0.00104400003329,1.0,0.0,0.0,0.0,1.0,0.0,0.0,0.0,1.0,-0.0609756112099,2.37804889679,-0.548780500889,1.0,0.0,0.0,0.0,1.0,0.0,0.0,0.0,1.0,1.21625444336,-0.234631762695,10.180145459,1.0,0.0,0.0,0.0,1.0,0.0,0.0,0.0,1.0
1480508890777171381,664,1480508890771177278,,-2.10224819183,-1.34973359108,171.195495605,0.00192800001241,1.0,0.0,0.0,0.0,1.0,0.0,0.0,0.0,1.0,-0.243902444839,2.19512200356,-0.426829278469,1.0,0.0,0.0,0.0,1.0,0.0,0.0,0.0,1.0,1.19231249982,-0.167594116211,10.1897222656,1.0,0.0,0.0,0.0,1.0,0.0,0.0,0.0,1.0
1480508890797252279,665,1480508890792048904,,-2.0924487114,-1.35032486916,171.173614502,0.00107100000605,1.0,0.0,0.0,0.0,1.0,0.0,0.0,0.0,1.0,-0.243902444839,2.31707310677,-0.365853667259,1.0,0.0,0.0,0.0,1.0,0.0,0.0,0.0,1.0,1.0534486574,-0.282515795898,10.1226846191,1.0,0.0,0.0,0.0,1.0,0.0,0.0,0.0,1.0
1480508890817222032,666,1480508890813301466,,-2.090726614,-1.34962153435,171.158660889,0.00105500000063,1.0,0.0,0.0,0.0,1.0,0.0,0.0,0.0,1.0,0.18292683363,0.975609779358,-0.365853667259,1.0,0.0,0.0,0.0,1.0,0.0,0.0,0.0,1.0,1.13485158691,-0.129286889648,10.2711251221,1.0,0.0,0.0,0.0,1.0,0.0,0.0,0.0,1.0
1480508890837737981,667,1480508890834224134,,-2.10372805595,-1.3508605957,171.15184021,0.00113300001249,1.0,0.0,0.0,0.0,1.0,0.0,0.0,0.0,1.0,-0.426829278469,0.487804889679,-0.12195122242,1.0,0.0,0.0,0.0,1.0,0.0,0.0,0.0,1.0,1.13963999023,-0.186747729492,10.1562034424,1.0,0.0,0.0,0.0,1.0,0.0,0.0,0.0,1.0
1480508890857937681,668,1480508890855588467,,-2.13729476929,-1.34996592999,171.130599976,0.00113500002772,1.0,0.0,0.0,0.0,1.0,0.0,0.0,0.0,1.0,-0.12195122242,0.426829278469,-0.304878056049,1.0,0.0,0.0,0.0,1.0,0.0,0.0,0.0,1.0,0.852335791016,-0.162805712891,10.2423947021,1.0,0.0,0.0,0.0,1.0,0.0,0.0,0.0,1.0
1480508890883012059,669,1480508890876912957,,-2.20251464844,-1.35263180733,171.111297607,0.00124600005802,1.0,0.0,0.0,0.0,1.0,0.0,0.0,0.0,1.0,-0.0609756112099,1.70731711388,-1.40243899822,1.0,0.0,0.0,0.0,1.0,0.0,0.0,0.0,1.0,1.31202250977,-0.301669427446,10.3333743652,1.0,0.0,0.0,0.0,1.0,0.0,0.0,0.0,1.0
1480508890899690099,670,1480508890897149844,,-2.21705937386,-1.35872268677,171.101119995,0.00119199999608,1.0,0.0,0.0,0.0,1.0,0.0,0.0,0.0,1.0,0.18292683363,2.07317066193,0.304878056049,1.0,0.0,0.0,0.0,1.0,0.0,0.0,0.0,1.0,1.35032973633,-0.186747729492,10.0891657959,1.0,0.0,0.0,0.0,1.0,0.0,0.0,0.0,1.0
1480508890921103964,671,1480508890917798501,,-2.23074865341,-1.35439276695,171.071563721,0.00126100005582,1.0,0.0,0.0,0.0,1.0,0.0,0.0,0.0,1.0,-0.670731723309,3.10975623131,-0.670731723309,1.0,0.0,0.0,0.0,1.0,0.0,0.0,0.0,1.0,1.49877023926,-0.253785375977,10.4530844482,1.0,0.0,0.0,0.0,1.0,0.0,0.0,0.0,1.0
1480508890941792257,672,1480508890938445649,,-2.2150490284,-1.35413074493,171.054901123,0.00124899996445,1.0,0.0,0.0,0.0,1.0,0.0,0.0,0.0,1.0,-0.0609756112099,5.18292713165,-0.18292683363,1.0,0.0,0.0,0.0,1.0,0.0,0.0,0.0,1.0,1.31681091309,-0.119710083008,10.1705686523,1.0,0.0,0.0,0.0,1.0,0.0,0.0,0.0,1.0
1480508890964124140,673,1480508890960376960,,-2.14765763283,-1.34757685661,171.034622192,0.00154800002929,1.0,0.0,0.0,0.0,1.0,0.0,0.0,0.0,1.0,0.0,5.18292713165,-0.365853667259,1.0,0.0,0.0,0.0,1.0,0.0,0.0,0.0,1.0,1.11090957031,-0.129286889648,10.1705686523,1.0,0.0,0.0,0.0,1.0,0.0,0.0,0.0,1.0
1480508890984706183,674,1480508890981528429,,-2.08708405495,-1.34934043884,171.006820679,0.00147000001743,1.0,0.0,0.0,0.0,1.0,0.0,0.0,0.0,1.0,0.12195122242,4.45121955872,-0.853658556938,1.0,0.0,0.0,0.0,1.0,0.0,0.0,0.0,1.0,1.08217922346,-0.177170922852,10.180145459,1.0,0.0,0.0,0.0,1.0,0.0,0.0,0.0,1.0
1480508891006025933,675,1480508891002714689,,-2.04057717323,-1.34495007992,170.984985352,0.0010229999898,1.0,0.0,0.0,0.0,1.0,0.0,0.0,0.0,1.0,-0.0609756112099,4.14634132385,-0.548780500889,1.0,0.0,0.0,0.0,1.0,0.0,0.0,0.0,1.0,1.09654436035,-0.167594116211,10.1514150391,1.0,0.0,0.0,0.0,1.0,0.0,0.0,0.0,1.0
1480508891027492714,676,1480508891024162720,,-1.99644696712,-1.34221184254,170.965087891,0.00102600001264,1.0,0.0,0.0,0.0,1.0,0.0,0.0,0.0,1.0,-0.18292683363,2.92682933807,-0.12195122242,1.0,0.0,0.0,0.0,1.0,0.0,0.0,0.0,1.0,1.04866025408,-0.210689746094,10.1945106689,1.0,0.0,0.0,0.0,1.0,0.0,0.0,0.0,1.0
1480508891048079444,677,1480508891044963982,,-1.98072969913,-1.33974158764,170.941726685,0.00103899999522,1.0,0.0,0.0,0.0,1.0,0.0,0.0,0.0,1.0,-0.12195122242,1.70731711388,-0.304878056049,1.0,0.0,0.0,0.0,1.0,0.0,0.0,0.0,1.0,1.06781401349,-0.177170922852,10.0843773926,1.0,0.0,0.0,0.0,1.0,0.0,0.0,0.0,1.0
1480508891068915810,678,1480508891065853628,,-1.98335969448,-1.33923518658,170.920700073,0.000975999981165,1.0,0.0,0.0,0.0,1.0,0.0,0.0,0.0,1.0,-0.304878056049,1.64634156227,-1.40243899822,1.0,0.0,0.0,0.0,1.0,0.0,0.0,0.0,1.0,1.35032973633,-0.0718260498047,10.165780249,1.0,0.0,0.0,0.0,1.0,0.0,0.0,0.0,1.0
1480508891090609049,679,1480508891087264055,,-1.98811733723,-1.33468854427,170.913589478,0.00103599997237,1.0,0.0,0.0,0.0,1.0,0.0,0.0,0.0,1.0,0.18292683363,0.0,1.15853655338,1.0,0.0,0.0,0.0,1.0,0.0,0.0,0.0,1.0,1.21146604004,-0.143652099609,10.1370498291,1.0,0.0,0.0,0.0,1.0,0.0,0.0,0.0,1.0
1480508891116052228,680,1480508891107885317,,-2.02717113495,-1.33648979664,170.891616821,0.00101799995173,1.0,0.0,0.0,0.0,1.0,0.0,0.0,0.0,1.0,-0.670731723309,-0.243902444839,-0.365853667259,1.0,0.0,0.0,0.0,1.0,0.0,0.0,0.0,1.0,1.03908344744,-0.119710083008,10.1562034424,1.0,0.0,0.0,0.0,1.0,0.0,0.0,0.0,1.0
1480508891130866470,681,1480508891128408662,,-2.09117031097,-1.33689534664,170.891311646,0.00107300002128,1.0,0.0,0.0,0.0,1.0,0.0,0.0,0.0,1.0,-0.243902444839,0.18292683363,0.243902444839,1.0,0.0,0.0,0.0,1.0,0.0,0.0,0.0,1.0,1.36469494629,-0.119710083008,10.0077629395,1.0,0.0,0.0,0.0,1.0,0.0,0.0,0.0,1.0
1480508891155386995,682,1480508891149320392,,-2.13123345375,-1.34490609169,170.880752563,0.00122800003737,1.0,0.0,0.0,0.0,1.0,0.0,0.0,0.0,1.0,-0.0609756112099,0.426829278469,0.792682945728,1.0,0.0,0.0,0.0,1.0,0.0,0.0,0.0,1.0,1.08696755371,-0.244208569336,10.1370498291,1.0,0.0,0.0,0.0,1.0,0.0,0.0,0.0,1.0
1480508891177726430,683,1480508891170411965,,-2.19628620148,-1.34503996372,170.873886108,0.00152499997057,1.0,0.0,0.0,0.0,1.0,0.0,0.0,0.0,1.0,-0.304878056049,2.07317066193,-1.2804877758,1.0,0.0,0.0,0.0,1.0,0.0,0.0,0.0,1.0,1.43652099609,-0.114921679688,10.3812583984,1.0,0.0,0.0,0.0,1.0,0.0,0.0,0.0,1.0
1480508891197689360,684,1480508891191204425,,-2.18708658218,-1.35038256645,170.859817505,0.00113999994937,1.0,0.0,0.0,0.0,1.0,0.0,0.0,0.0,1.0,-0.609756112099,0.609756112099,1.95121955872,1.0,0.0,0.0,0.0,1.0,0.0,0.0,0.0,1.0,1.30723410645,-0.344765039063,9.96466730957,1.0,0.0,0.0,0.0,1.0,0.0,0.0,0.0,1.0
1480508891222689103,685,1480508891214424223,,-2.21455287933,-1.35269582272,170.840454102,0.0059019997716,1.0,0.0,0.0,0.0,1.0,0.0,0.0,0.0,1.0,-0.487804889679,3.04878044128,-1.40243899822,1.0,0.0,0.0,0.0,1.0,0.0,0.0,0.0,1.0,0.957680664062,-0.268150604204,10.2711251221,1.0,0.0,0.0,0.0,1.0,0.0,0.0,0.0,1.0
1480508891239565424,686,1480508891236400795,,-2.23340749741,-1.35503637791,170.830169678,0.00122700002976,1.0,0.0,0.0,0.0,1.0,0.0,0.0,0.0,1.0,-0.0609756112099,2.92682933807,-1.09756100178,1.0,0.0,0.0,0.0,1.0,0.0,0.0,0.0,1.0,1.45567460937,-0.134075302102,10.0652237793,1.0,0.0,0.0,0.0,1.0,0.0,0.0,0.0,1.0
1480508891260221998,687,1480508891255653621,,-2.19443154335,-1.35022139549,170.790512085,0.00117900001351,1.0,0.0,0.0,0.0,1.0,0.0,0.0,0.0,1.0,-0.0609756112099,3.65853667259,-0.487804889679,1.0,0.0,0.0,0.0,1.0,0.0,0.0,0.0,1.0,1.25456166992,-0.215478149414,10.2615483154,1.0,0.0,0.0,0.0,1.0,0.0,0.0,0.0,1.0
1480508891279513418,688,1480508891276595820,,-2.1687078476,-1.35202717781,170.771972656,0.00111399998423,1.0,0.0,0.0,0.0,1.0,0.0,0.0,0.0,1.0,0.0,4.69512224197,-1.34146344662,1.0,0.0,0.0,0.0,1.0,0.0,0.0,0.0,1.0,1.24019645996,-0.301669427446,10.0891657959,1.0,0.0,0.0,0.0,1.0,0.0,0.0,0.0,1.0
1480508891300908377,689,1480508891297002759,,-2.10606145859,-1.34975790977,170.754852295,0.00116300000809,1.0,0.0,0.0,0.0,1.0,0.0,0.0,0.0,1.0,-0.0609756112099,4.20731735229,0.304878056049,1.0,0.0,0.0,0.0,1.0,0.0,0.0,0.0,1.0,1.16837033709,-0.205901342773,10.1418382324,1.0,0.0,0.0,0.0,1.0,0.0,0.0,0.0,1.0
1480508891321498232,690,1480508891317527250,,-2.06130456924,-1.347012043,170.730575562,0.00124000001233,1.0,0.0,0.0,0.0,1.0,0.0,0.0,0.0,1.0,-0.487804889679,3.96341490746,-0.853658556938,1.0,0.0,0.0,0.0,1.0,0.0,0.0,0.0,1.0,0.962469067383,-0.220266552734,10.299855542,1.0,0.0,0.0,0.0,1.0,0.0,0.0,0.0,1.0
1480508891342894024,691,1480508891339653874,,-2.03327655792,-1.34463489056,170.711791992,0.00173999997787,1.0,0.0,0.0,0.0,1.0,0.0,0.0,0.0,1.0,0.0609756112099,3.90243911743,-0.487804889679,1.0,0.0,0.0,0.0,1.0,0.0,0.0,0.0,1.0,1.2737152832,-0.143652099609,10.2902787354,1.0,0.0,0.0,0.0,1.0,0.0,0.0,0.0,1.0
1480508891362482527,692,1480508891359869667,,-1.99791800976,-1.34456288815,170.694458008,0.00110600003973,1.0,0.0,0.0,0.0,1.0,0.0,0.0,0.0,1.0,0.18292683363,3.7804877758,0.243902444839,1.0,0.0,0.0,0.0,1.0,0.0,0.0,0.0,1.0,1.26413847656,-0.191536132812,10.1274730225,1.0,0.0,0.0,0.0,1.0,0.0,0.0,0.0,1.0
1480508891384041599,693,1480508891380631241,,-1.97148001194,-1.33539772034,170.681472778,0.00104000000283,1.0,0.0,0.0,0.0,1.0,0.0,0.0,0.0,1.0,-0.304878056049,3.23170733452,-0.365853667259,1.0,0.0,0.0,0.0,1.0,0.0,0.0,0.0,1.0,1.18273554705,-0.177170922852,10.1992990723,1.0,0.0,0.0,0.0,1.0,0.0,0.0,0.0,1.0
1480508891404157602,694,1480508891401247347,,-1.94659721851,-1.33175587654,170.665725708,0.00106899999082,1.0,0.0,0.0,0.0,1.0,0.0,0.0,0.0,1.0,-0.12195122242,3.59756112099,-0.487804889679,1.0,0.0,0.0,0.0,1.0,0.0,0.0,0.0,1.0,1.13485158691,-0.325611425781,10.0843773926,1.0,0.0,0.0,0.0,1.0,0.0,0.0,0.0,1.0
1480508891424683134,695,1480508891422522201,,-1.91827464104,-1.33216333389,170.648910522,0.00108700001147,1.0,0.0,0.0,0.0,1.0,0.0,0.0,0.0,1.0,0.0609756112099,1.8902438879,-0.365853667259,1.0,0.0,0.0,0.0,1.0,0.0,0.0,0.0,1.0,0.737414111328,-0.31124621582,9.93593688965,1.0,0.0,0.0,0.0,1.0,0.0,0.0,0.0,1.0
1480508891445491010,696,1480508891442768047,,-1.91772770882,-1.32583105564,170.631454468,0.000975999981165,1.0,0.0,0.0,0.0,1.0,0.0,0.0,0.0,1.0,0.0,1.40243899822,-0.243902444839,1.0,0.0,0.0,0.0,1.0,0.0,0.0,0.0,1.0,0.981622680664,-0.105344873047,10.2376062988,1.0,0.0,0.0,0.0,1.0,0.0,0.0,0.0,1.0
1480508891465886127,697,1480508891463392850,,-1.93146753311,-1.32160818577,170.620742798,0.000982000026852,1.0,0.0,0.0,0.0,1.0,0.0,0.0,0.0,1.0,-0.0609756112099,0.0609756112099,0.0609756112099,1.0,0.0,0.0,0.0,1.0,0.0,0.0,0.0,1.0,0.995987890625,-0.134075302102,10.2519715088,1.0,0.0,0.0,0.0,1.0,0.0,0.0,0.0,1.0
1480508891487303376,698,1480508891484672184,,-1.96662795544,-1.32423818111,170.61227417,0.00150100002065,1.0,0.0,0.0,0.0,1.0,0.0,0.0,0.0,1.0,-0.426829278469,-0.304878056049,0.426829278469,1.0,0.0,0.0,0.0,1.0,0.0,0.0,0.0,1.0,1.13963999023,-0.162805712891,10.1370498291,1.0,0.0,0.0,0.0,1.0,0.0,0.0,0.0,1.0
1480508891508837657,699,1480508891505833236,,-2.04130172729,-1.3189150095,170.60949707,0.000959999975748,1.0,0.0,0.0,0.0,1.0,0.0,0.0,0.0,1.0,-0.12195122242,0.0,-0.12195122242,1.0,0.0,0.0,0.0,1.0,0.0,0.0,0.0,1.0,1.40779057617,-0.0718260498047,10.2376062988,1.0,0.0,0.0,0.0,1.0,0.0,0.0,0.0,1.0
1480508891530069074,700,1480508891526967622,,-2.09152197838,-1.32127428055,170.594100952,0.000989999971353,1.0,0.0,0.0,0.0,1.0,0.0,0.0,0.0,1.0,-0.12195122242,2.01219511032,-0.731707334518,1.0,0.0,0.0,0.0,1.0,0.0,0.0,0.0,1.0,1.37427175293,-0.272938989258,10.1322614258,1.0,0.0,0.0,0.0,1.0,0.0,0.0,0.0,1.0
1480508891551331636,701,1480508891547599196,,-2.10511088371,-1.34395945072,170.57434082,0.000965000013821,1.0,0.0,0.0,0.0,1.0,0.0,0.0,0.0,1.0,1.2804877758,1.8902438879,-0.487804889679,1.0,0.0,0.0,0.0,1.0,0.0,0.0,0.0,1.0,1.21146604004,-0.895431420898,10.299855542,1.0,0.0,0.0,0.0,1.0,0.0,0.0,0.0,1.0
1480508891571270972,702,1480508891568099937,,-2.10981583595,-1.33102548122,170.555801392,0.000966000021435,1.0,0.0,0.0,0.0,1.0,0.0,0.0,0.0,1.0,-0.487804889679,4.2682929039,-0.548780500889,1.0,0.0,0.0,0.0,1.0,0.0,0.0,0.0,1.0,1.69030637207,-0.339976635742,10.2471831055,1.0,0.0,0.0,0.0,1.0,0.0,0.0,0.0,1.0
1480508891599707844,703,1480508891589290000,,-2.06775331497,-1.32321977615,170.527114868,0.000972000008915,1.0,0.0,0.0,0.0,1.0,0.0,0.0,0.0,1.0,-0.12195122242,5.97560977936,-1.03658533096,1.0,0.0,0.0,0.0,1.0,0.0,0.0,0.0,1.0,0.972045874023,-0.114921679688,10.2567599121,1.0,0.0,0.0,0.0,1.0,0.0,0.0,0.0,1.0
1480508891612888599,704,1480508891610293709,,-1.9968713522,-1.30860483646,170.499206543,0.000964000006206,1.0,0.0,0.0,0.0,1.0,0.0,0.0,0.0,1.0,0.18292683363,6.40243911743,-0.548780500889,1.0,0.0,0.0,0.0,1.0,0.0,0.0,0.0,1.0,1.2737152832,-0.177170922852,10.2902787354,1.0,0.0,0.0,0.0,1.0,0.0,0.0,0.0,1.0
1480508891634911473,705,1480508891631074762,,-1.91631686687,-1.30443716049,170.466094971,0.00107400002889,1.0,0.0,0.0,0.0,1.0,0.0,0.0,0.0,1.0,0.0,5.97560977936,-0.914634168148,1.0,0.0,0.0,0.0,1.0,0.0,0.0,0.0,1.0,1.21625444336,-0.105344873047,10.2759135254,1.0,0.0,0.0,0.0,1.0,0.0,0.0,0.0,1.0
1480508891655521797,706,1480508891651941127,,-1.82036340237,-1.30661225319,170.437759399,0.00137399998493,1.0,0.0,0.0,0.0,1.0,0.0,0.0,0.0,1.0,-0.12195122242,7.13414621353,-0.365853667259,1.0,0.0,0.0,0.0,1.0,0.0,0.0,0.0,1.0,1.16358193377,-0.134075302102,10.2711251221,1.0,0.0,0.0,0.0,1.0,0.0,0.0,0.0,1.0
1480508891679665969,707,1480508891673411814,,-1.71462070942,-1.30873823166,170.412277222,0.00115300004836,1.0,0.0,0.0,0.0,1.0,0.0,0.0,0.0,1.0,0.853658556938,5.60975599289,-0.243902444839,1.0,0.0,0.0,0.0,1.0,0.0,0.0,0.0,1.0,1.1540052002,0.0718260498047,10.3812583984,1.0,0.0,0.0,0.0,1.0,0.0,0.0,0.0,1.0
1480508891700372491,708,1480508891697543486,,-1.62953746319,-1.30002987385,170.385513306,0.00450399983674,1.0,0.0,0.0,0.0,1.0,0.0,0.0,0.0,1.0,0.853658556938,4.87804889679,-0.426829278469,1.0,0.0,0.0,0.0,1.0,0.0,0.0,0.0,1.0,1.13963999023,-0.15322890625,10.299855542,1.0,0.0,0.0,0.0,1.0,0.0,0.0,0.0,1.0
1480508891722806561,709,1480508891718654121,,-1.55790829659,-1.29120337963,170.351898193,0.00132899999153,1.0,0.0,0.0,0.0,1.0,0.0,0.0,0.0,1.0,-0.853658556938,3.65853667259,-2.01219511032,1.0,0.0,0.0,0.0,1.0,0.0,0.0,0.0,1.0,0.938527050781,-0.114921679688,10.2807019287,1.0,0.0,0.0,0.0,1.0,0.0,0.0,0.0,1.0
1480508891749296666,710,1480508891739722361,,-1.49920737743,-1.28240418434,170.325714111,0.000991999986582,1.0,0.0,0.0,0.0,1.0,0.0,0.0,0.0,1.0,0.0609756112099,2.5,-0.0609756112099,1.0,0.0,0.0,0.0,1.0,0.0,0.0,0.0,1.0,0.46447512207,-0.138863696289,10.0748005859,1.0,0.0,0.0,0.0,1.0,0.0,0.0,0.0,1.0
1480508891763749919,711,1480508891760924299,,-1.49628460407,-1.28430879116,170.295837402,0.00149399996735,1.0,0.0,0.0,0.0,1.0,0.0,0.0,0.0,1.0,-0.609756112099,0.304878056049,-0.975609779358,1.0,0.0,0.0,0.0,1.0,0.0,0.0,0.0,1.0,0.847547387695,-0.201112939453,10.3908352051,1.0,0.0,0.0,0.0,1.0,0.0,0.0,0.0,1.0
1480508891785315918,712,1480508891781813998,,-1.54162180424,-1.29329526424,170.286270142,0.00131099997088,1.0,0.0,0.0,0.0,1.0,0.0,0.0,0.0,1.0,0.0,-1.34146344662,0.12195122242,1.0,0.0,0.0,0.0,1.0,0.0,0.0,0.0,1.0,1.2497732666,-0.15801730957,10.1370498291,1.0,0.0,0.0,0.0,1.0,0.0,0.0,0.0,1.0
1480508891805457806,713,1480508891802672499,,-1.60128223896,-1.3005053997,170.279556274,0.00105399999302,1.0,0.0,0.0,0.0,1.0,0.0,0.0,0.0,1.0,-0.365853667259,-1.34146344662,0.18292683363,1.0,0.0,0.0,0.0,1.0,0.0,0.0,0.0,1.0,1.02950671387,-0.148440512063,10.314220752,1.0,0.0,0.0,0.0,1.0,0.0,0.0,0.0,1.0
1480508891827233128,714,1480508891823383344,,-1.69761621952,-1.30403625965,170.272918701,0.00104600004852,1.0,0.0,0.0,0.0,1.0,0.0,0.0,0.0,1.0,-0.0609756112099,-1.2195122242,-0.12195122242,1.0,0.0,0.0,0.0,1.0,0.0,0.0,0.0,1.0,1.2976572998,-0.0957680664062,10.046070166,1.0,0.0,0.0,0.0,1.0,0.0,0.0,0.0,1.0
1480508891846997256,715,1480508891844534865,,-1.78333342075,-1.30285251141,170.268783569,0.00105199997779,1.0,0.0,0.0,0.0,1.0,0.0,0.0,0.0,1.0,-0.304878056049,1.2195122242,0.548780500889,1.0,0.0,0.0,0.0,1.0,0.0,0.0,0.0,1.0,1.35032973633,-0.15801730957,10.1418382324,1.0,0.0,0.0,0.0,1.0,0.0,0.0,0.0,1.0
1480508891869277577,716,1480508891865018835,,-1.81442368031,-1.30602550507,170.255844116,0.000959000026342,1.0,0.0,0.0,0.0,1.0,0.0,0.0,0.0,1.0,-0.12195122242,1.95121955872,-0.304878056049,1.0,0.0,0.0,0.0,1.0,0.0,0.0,0.0,1.0,1.46525141602,-0.110133276367,10.1370498291,1.0,0.0,0.0,0.0,1.0,0.0,0.0,0.0,1.0
1480508891888571133,717,1480508891885611295,,-1.8193577528,-1.30580854416,170.244049072,0.00133799994364,1.0,0.0,0.0,0.0,1.0,0.0,0.0,0.0,1.0,0.0,3.7804877758,0.0609756112099,1.0,0.0,0.0,0.0,1.0,0.0,0.0,0.0,1.0,1.30723410645,-0.143652099609,10.3333743652,1.0,0.0,0.0,0.0,1.0,0.0,0.0,0.0,1.0
1480508891909205519,718,1480508891906054953,,-1.79743623734,-1.3052239418,170.227127075,0.00096700002905,1.0,0.0,0.0,0.0,1.0,0.0,0.0,0.0,1.0,-0.0609756112099,3.53658556938,-0.853658556938,1.0,0.0,0.0,0.0,1.0,0.0,0.0,0.0,1.0,1.23540805664,-0.162805712891,10.1562034424,1.0,0.0,0.0,0.0,1.0,0.0,0.0,0.0,1.0
1480508891932476307,719,1480508891926978089,,-1.76812422276,-1.29741001129,170.206283569,0.00104200001806,1.0,0.0,0.0,0.0,1.0,0.0,0.0,0.0,1.0,-1.34146344662,6.7682929039,0.487804889679,1.0,0.0,0.0,0.0,1.0,0.0,0.0,0.0,1.0,1.19231249982,-0.244208569336,10.673351001,1.0,0.0,0.0,0.0,1.0,0.0,0.0,0.0,1.0
1480508891952546893,720,1480508891948179089,,-1.72616362572,-1.35200548172,170.184921265,0.00116099999286,1.0,0.0,0.0,0.0,1.0,0.0,0.0,0.0,1.0,3.35365867615,1.8292683363,0.0609756112099,1.0,0.0,0.0,0.0,1.0,0.0,0.0,0.0,1.0,1.51792385254,-0.15322890625,10.0891657959,1.0,0.0,0.0,0.0,1.0,0.0,0.0,0.0,1.0
1480508891976127628,721,1480508891972837895,,-1.6909995079,-1.34613060951,170.16859436,0.00105199997779,1.0,0.0,0.0,0.0,1.0,0.0,0.0,0.0,1.0,1.58536589146,3.17073178291,-1.52439022064,1.0,0.0,0.0,0.0,1.0,0.0,0.0,0.0,1.0,1.30244570312,0.0909796630859,10.0556469727,1.0,0.0,0.0,0.0,1.0,0.0,0.0,0.0,1.0
1480508891996011651,722,1480508891990940359,,-1.67059600353,-1.32668817043,170.140930176,0.00106799998321,1.0,0.0,0.0,0.0,1.0,0.0,0.0,0.0,1.0,0.0609756112099,6.95121955872,-0.365853667259,1.0,0.0,0.0,0.0,1.0,0.0,0.0,0.0,1.0,1.37427175293,-0.272938989258,10.3285859619,1.0,0.0,0.0,0.0,1.0,0.0,0.0,0.0,1.0
1480508892017500984,723,1480508892011609381,,-1.57506477833,-1.33055818081,170.120834351,0.00113200000487,1.0,0.0,0.0,0.0,1.0,0.0,0.0,0.0,1.0,-0.12195122242,6.58536624908,-0.426829278469,1.0,0.0,0.0,0.0,1.0,0.0,0.0,0.0,1.0,1.13006318359,-0.320823022461,10.1609918457,1.0,0.0,0.0,0.0,1.0,0.0,0.0,0.0,1.0
1480508892036538135,724,1480508892032750850,,-1.47901535034,-1.3325394392,170.099975586,0.00103599997237,1.0,0.0,0.0,0.0,1.0,0.0,0.0,0.0,1.0,0.243902444839,6.15853643417,-0.792682945728,1.0,0.0,0.0,0.0,1.0,0.0,0.0,0.0,1.0,0.737414111328,-0.239420166016,10.3046439453,1.0,0.0,0.0,0.0,1.0,0.0,0.0,0.0,1.0
1480508892061996679,725,1480508892053220342,,-1.39422893524,-1.31789207458,170.066619873,0.00108099996578,1.0,0.0,0.0,0.0,1.0,0.0,0.0,0.0,1.0,-0.0609756112099,5.18292713165,-0.853658556938,1.0,0.0,0.0,0.0,1.0,0.0,0.0,0.0,1.0,0.857124194336,-0.0383072265625,10.2136642822,1.0,0.0,0.0,0.0,1.0,0.0,0.0,0.0,1.0
1480508892080715496,726,1480508892078245188,,-1.30575501919,-1.31344592571,170.027709961,0.00423699989915,1.0,0.0,0.0,0.0,1.0,0.0,0.0,0.0,1.0,0.0609756112099,2.5,-1.64634156227,1.0,0.0,0.0,0.0,1.0,0.0,0.0,0.0,1.0,0.727837304687,-0.0191536132812,10.1035310059,1.0,0.0,0.0,0.0,1.0,0.0,0.0,0.0,1.0
1480508892100962956,727,1480508892098758846,,-1.28072214127,-1.31352996826,169.996261597,0.0012080000015,1.0,0.0,0.0,0.0,1.0,0.0,0.0,0.0,1.0,-0.365853667259,0.853658556938,-0.853658556938,1.0,0.0,0.0,0.0,1.0,0.0,0.0,0.0,1.0,0.593762048251,-0.0718260498047,10.1035310059,1.0,0.0,0.0,0.0,1.0,0.0,0.0,0.0,1.0
1480508892121907030,728,1480508892119535368,,-1.30695307255,-1.30455625057,169.987960815,0.00106899999082,1.0,0.0,0.0,0.0,1.0,0.0,0.0,0.0,1.0,0.426829278469,-0.426829278469,0.304878056049,1.0,0.0,0.0,0.0,1.0,0.0,0.0,0.0,1.0,0.708683691406,-0.0335188255255,10.1897222656,1.0,0.0,0.0,0.0,1.0,0.0,0.0,0.0,1.0
1480508892143610685,729,1480508892140912930,,-1.36494898796,-1.31449353695,169.975402832,0.00104600004852,1.0,0.0,0.0,0.0,1.0,0.0,0.0,0.0,1.0,-1.34146344662,-4.39024400711,0.487804889679,1.0,0.0,0.0,0.0,1.0,0.0,0.0,0.0,1.0,1.01992990723,-0.129286889648,10.1992990723,1.0,0.0,0.0,0.0,1.0,0.0,0.0,0.0,1.0
1480508892163177678,730,1480508892161227578,,-1.49237251282,-1.30551254749,169.974975586,0.0010450000409,1.0,0.0,0.0,0.0,1.0,0.0,0.0,0.0,1.0,-0.0609756112099,-3.90243911743,1.34146344662,1.0,0.0,0.0,0.0,1.0,0.0,0.0,0.0,1.0,0.742202514648,0.110133276367,9.98860932617,1.0,0.0,0.0,0.0,1.0,0.0,0.0,0.0,1.0
1480508892183378160,731,1480508892181816340,,-1.64068949223,-1.3088862896,169.990402222,0.00135300005786,1.0,0.0,0.0,0.0,1.0,0.0,0.0,0.0,1.0,-0.0609756112099,-5.73170757294,0.731707334518,1.0,0.0,0.0,0.0,1.0,0.0,0.0,0.0,1.0,1.21625444336,0.0909796630859,10.2807019287,1.0,0.0,0.0,0.0,1.0,0.0,0.0,0.0,1.0
1480508892203836870,732,1480508892202307185,,-1.78285467625,-1.32001376152,169.992294312,0.00116999994498,1.0,0.0,0.0,0.0,1.0,0.0,0.0,0.0,1.0,0.304878056049,-4.69512224197,0.975609779358,1.0,0.0,0.0,0.0,1.0,0.0,0.0,0.0,1.0,1.08217922346,0.0287304199219,10.2136642822,1.0,0.0,0.0,0.0,1.0,0.0,0.0,0.0,1.0
1480508892227077710,733,1480508892223747716,,-1.94951021671,-1.33015167713,170.007827759,0.0019270000048,1.0,0.0,0.0,0.0,1.0,0.0,0.0,0.0,1.0,0.487804889679,-3.53658556938,0.792682945728,1.0,0.0,0.0,0.0,1.0,0.0,0.0,0.0,1.0,1.49398183594,-0.0287304199219,10.2184526855,1.0,0.0,0.0,0.0,1.0,0.0,0.0,0.0,1.0
1480508892246061162,734,1480508892244530748,,-2.07037591934,-1.33529639244,170.011032104,0.0010450000409,1.0,0.0,0.0,0.0,1.0,0.0,0.0,0.0,1.0,1.03658533096,-4.02439022064,0.12195122242,1.0,0.0,0.0,0.0,1.0,0.0,0.0,0.0,1.0,1.2737152832,-0.0478840332031,10.1897222656,1.0,0.0,0.0,0.0,1.0,0.0,0.0,0.0,1.0
1480508892267093985,735,1480508892265460968,,-2.19046926498,-1.37349319458,169.985351562,0.00111599999946,1.0,0.0,0.0,0.0,1.0,0.0,0.0,0.0,1.0,2.37804889679,-1.70731711388,0.12195122242,1.0,0.0,0.0,0.0,1.0,0.0,0.0,0.0,1.0,1.68072956543,-0.186747729492,10.0556469727,1.0,0.0,0.0,0.0,1.0,0.0,0.0,0.0,1.0
1480508892288031236,736,1480508892285846813,,-2.24586653709,-1.37413442135,169.976577759,0.000987999956124,1.0,0.0,0.0,0.0,1.0,0.0,0.0,0.0,1.0,-0.0609756112099,1.95121955872,-0.18292683363,1.0,0.0,0.0,0.0,1.0,0.0,0.0,0.0,1.0,1.67594116211,-0.15322890625,10.1370498291,1.0,0.0,0.0,0.0,1.0,0.0,0.0,0.0,1.0
1480508892309458330,737,1480508892306842137,,-2.27434015274,-1.38594448566,169.960769653,0.00101400003769,1.0,0.0,0.0,0.0,1.0,0.0,0.0,0.0,1.0,0.0609756112099,3.65853667259,-0.365853667259,1.0,0.0,0.0,0.0,1.0,0.0,0.0,0.0,1.0,1.70945998535,-0.402225878906,10.0364933594,1.0,0.0,0.0,0.0,1.0,0.0,0.0,0.0,1.0
1480508892330828548,738,1480508892327831731,,-2.2607357502,-1.38545191288,169.929840088,0.000966000021435,1.0,0.0,0.0,0.0,1.0,0.0,0.0,0.0,1.0,-0.304878056049,6.70731735229,-1.46341466904,1.0,0.0,0.0,0.0,1.0,0.0,0.0,0.0,1.0,1.46525141602,-0.191536132812,10.1178962158,1.0,0.0,0.0,0.0,1.0,0.0,0.0,0.0,1.0
1480508892353726420,739,1480508892348706638,,-2.1849694252,-1.37952554226,169.889328003,0.00100399996154,1.0,0.0,0.0,0.0,1.0,0.0,0.0,0.0,1.0,-0.426829278469,8.59756088257,-1.40243899822,1.0,0.0,0.0,0.0,1.0,0.0,0.0,0.0,1.0,1.2976572998,-0.282515795898,10.2902787354,1.0,0.0,0.0,0.0,1.0,0.0,0.0,0.0,1.0
1480508892375622471,740,1480508892369865868,,-2.06312632561,-1.37667429447,169.850067139,0.000991999986582,1.0,0.0,0.0,0.0,1.0,0.0,0.0,0.0,1.0,-0.18292683363,8.04878044128,-1.34146344662,1.0,0.0,0.0,0.0,1.0,0.0,0.0,0.0,1.0,1.20188930646,-0.15801730957,10.1418382324,1.0,0.0,0.0,0.0,1.0,0.0,0.0,0.0,1.0
1480508892395387380,741,1480508892390413588,,-1.91047465801,-1.37654483318,169.815261841,0.00109499995597,1.0,0.0,0.0,0.0,1.0,0.0,0.0,0.0,1.0,0.18292683363,6.40243911743,-0.792682945728,1.0,0.0,0.0,0.0,1.0,0.0,0.0,0.0,1.0,0.723048901367,-0.067037651051,10.1274730225,1.0,0.0,0.0,0.0,1.0,0.0,0.0,0.0,1.0
1480508892416008434,742,1480508892411352818,,-1.81753575802,-1.36629009247,169.791778564,0.00116300000809,1.0,0.0,0.0,0.0,1.0,0.0,0.0,0.0,1.0,0.18292683363,5.0,-0.487804889679,1.0,0.0,0.0,0.0,1.0,0.0,0.0,0.0,1.0,1.16837033709,-0.0574608398438,10.3668931885,1.0,0.0,0.0,0.0,1.0,0.0,0.0,0.0,1.0
1480508892436216623,743,1480508892432029392,,-1.74049735069,-1.33576226234,169.778533936,0.00118599995039,1.0,0.0,0.0,0.0,1.0,0.0,0.0,0.0,1.0,0.243902444839,3.04878044128,-0.487804889679,1.0,0.0,0.0,0.0,1.0,0.0,0.0,0.0,1.0,0.876277807617,-0.0718260498047,10.1178962158,1.0,0.0,0.0,0.0,1.0,0.0,0.0,0.0,1.0
1480508892456691114,744,1480508892452451279,,-1.69860756397,-1.33737659454,169.752471924,0.00136500003282,1.0,0.0,0.0,0.0,1.0,0.0,0.0,0.0,1.0,0.12195122242,-0.365853667259,-0.243902444839,1.0,0.0,0.0,0.0,1.0,0.0,0.0,0.0,1.0,0.689530078125,-0.210689746094,10.2280294922,1.0,0.0,0.0,0.0,1.0,0.0,0.0,0.0,1.0
1480508892478429822,745,1480508892473819622,,-1.72466242313,-1.33730757236,169.760635376,0.00144200003706,1.0,0.0,0.0,0.0,1.0,0.0,0.0,0.0,1.0,0.0609756112099,-0.975609779358,0.853658556938,1.0,0.0,0.0,0.0,1.0,0.0,0.0,0.0,1.0,0.751779321289,0.00957680664062,10.2759135254,1.0,0.0,0.0,0.0,1.0,0.0,0.0,0.0,1.0
1480508892498129523,746,1480508892494040520,,-1.79292869568,-1.33735060692,169.765823364,0.00114800001029,1.0,0.0,0.0,0.0,1.0,0.0,0.0,0.0,1.0,-0.487804889679,-4.08536577225,0.18292683363,1.0,0.0,0.0,0.0,1.0,0.0,0.0,0.0,1.0,1.04387185076,-0.0814028564453,10.0556469727,1.0,0.0,0.0,0.0,1.0,0.0,0.0,0.0,1.0
1480508892521275832,747,1480508892515390635,,-1.93359053135,-1.33913302422,169.75958252,0.00108399998862,1.0,0.0,0.0,0.0,1.0,0.0,0.0,0.0,1.0,0.304878056049,-3.84146332741,0.487804889679,1.0,0.0,0.0,0.0,1.0,0.0,0.0,0.0,1.0,1.26413847656,-0.263362164351,10.2423947021,1.0,0.0,0.0,0.0,1.0,0.0,0.0,0.0,1.0
1480508892541775948,748,1480508892538345694,,-2.06675887108,-1.34063255787,169.76864624,0.00170599995181,1.0,0.0,0.0,0.0,1.0,0.0,0.0,0.0,1.0,0.792682945728,-1.2195122242,0.914634168148,1.0,0.0,0.0,0.0,1.0,0.0,0.0,0.0,1.0,1.29286889648,-0.138863696289,10.8122146973,1.0,0.0,0.0,0.0,1.0,0.0,0.0,0.0,1.0
1480508892561839711,749,1480508892558698258,,-2.15961194038,-1.34410786629,169.771118164,0.00306500005536,1.0,0.0,0.0,0.0,1.0,0.0,0.0,0.0,1.0,-0.0609756112099,1.64634156227,0.365853667259,1.0,0.0,0.0,0.0,1.0,0.0,0.0,0.0,1.0,1.64721074219,0.0430956298828,10.1370498291,1.0,0.0,0.0,0.0,1.0,0.0,0.0,0.0,1.0
1480508892584364562,750,1480508892581401391,,-2.18033337593,-1.35902249813,169.766067505,0.00143399997614,1.0,0.0,0.0,0.0,1.0,0.0,0.0,0.0,1.0,0.0,4.20731735229,0.365853667259,1.0,0.0,0.0,0.0,1.0,0.0,0.0,0.0,1.0,1.43173259277,-0.244208569336,9.91199487305,1.0,0.0,0.0,0.0,1.0,0.0,0.0,0.0,1.0
1480508892603621920,751,1480508892600830728,,-2.1625213623,-1.36042666435,169.739013672,0.00130500004161,1.0,0.0,0.0,0.0,1.0,0.0,0.0,0.0,1.0,0.304878056049,4.32926845551,-0.975609779358,1.0,0.0,0.0,0.0,1.0,0.0,0.0,0.0,1.0,1.34554133301,-0.148440512063,10.0748005859,1.0,0.0,0.0,0.0,1.0,0.0,0.0,0.0,1.0
1480508892624604588,752,1480508892621357719,,-2.11838340759,-1.35158133507,169.710922241,0.00136899994686,1.0,0.0,0.0,0.0,1.0,0.0,0.0,0.0,1.0,0.12195122242,5.91463422775,-0.609756112099,1.0,0.0,0.0,0.0,1.0,0.0,0.0,0.0,1.0,1.21146604004,0.0191536132812,10.1945106689,1.0,0.0,0.0,0.0,1.0,0.0,0.0,0.0,1.0
1480508892645935067,753,1480508892642774865,,-2.02552819252,-1.34401154518,169.680404663,0.00111399998423,1.0,0.0,0.0,0.0,1.0,0.0,0.0,0.0,1.0,-0.18292683363,5.30487823486,-0.792682945728,1.0,0.0,0.0,0.0,1.0,0.0,0.0,0.0,1.0,1.16358193377,-0.119710083008,10.0700121826,1.0,0.0,0.0,0.0,1.0,0.0,0.0,0.0,1.0
1480508892667111275,754,1480508892663780188,,-1.95171427727,-1.34375226498,169.642883301,0.000979000004008,1.0,0.0,0.0,0.0,1.0,0.0,0.0,0.0,1.0,0.0609756112099,3.96341490746,-0.853658556938,1.0,0.0,0.0,0.0,1.0,0.0,0.0,0.0,1.0,1.11090957031,-0.316034619141,10.2280294922,1.0,0.0,0.0,0.0,1.0,0.0,0.0,0.0,1.0
1480508892687537069,755,1480508892684744991,,-1.90295064449,-1.32786595821,169.626678467,0.00100599997677,1.0,0.0,0.0,0.0,1.0,0.0,0.0,0.0,1.0,1.03658533096,4.32926845551,-0.0609756112099,1.0,0.0,0.0,0.0,1.0,0.0,0.0,0.0,1.0,1.1540052002,-0.402225878906,10.0843773926,1.0,0.0,0.0,0.0,1.0,0.0,0.0,0.0,1.0
1480508892708671975,756,1480508892705791356,,-1.86709856987,-1.29596412182,169.611999512,0.00101400003769,1.0,0.0,0.0,0.0,1.0,0.0,0.0,0.0,1.0,0.853658556938,4.69512224197,-0.426829278469,1.0,0.0,0.0,0.0,1.0,0.0,0.0,0.0,1.0,1.53707746582,-0.134075302102,10.3381627686,1.0,0.0,0.0,0.0,1.0,0.0,0.0,0.0,1.0
1480508892729508289,757,1480508892726445378,,-1.80772650242,-1.29100871086,169.582717896,0.00111499999184,1.0,0.0,0.0,0.0,1.0,0.0,0.0,0.0,1.0,0.853658556938,4.93902444839,-0.853658556938,1.0,0.0,0.0,0.0,1.0,0.0,0.0,0.0,1.0,1.35511813965,-0.45968671875,10.165780249,1.0,0.0,0.0,0.0,1.0,0.0,0.0,0.0,1.0
1480508892750093717,758,1480508892747734451,,-1.73790180683,-1.26788914204,169.56187439,0.00103599997237,1.0,0.0,0.0,0.0,1.0,0.0,0.0,0.0,1.0,1.09756100178,6.21951246262,-0.0609756112099,1.0,0.0,0.0,0.0,1.0,0.0,0.0,0.0,1.0,1.51313544922,-0.507570751953,10.1274730225,1.0,0.0,0.0,0.0,1.0,0.0,0.0,0.0,1.0
1480508892774918044,759,1480508892768859982,,-1.66978526115,-1.19226777554,169.561965942,0.00101300003007,1.0,0.0,0.0,0.0,1.0,0.0,0.0,0.0,1.0,2.13414645195,6.64634132385,1.46341466904,1.0,0.0,0.0,0.0,1.0,0.0,0.0,0.0,1.0,0.411802685547,0.229843359375,10.4004120117,1.0,0.0,0.0,0.0,1.0,0.0,0.0,0.0,1.0
1480508892802380333,760,1480508892789375619,,-1.54366004467,-1.22591912746,169.540847778,0.00112300005276,1.0,0.0,0.0,0.0,1.0,0.0,0.0,0.0,1.0,-1.52439022064,5.79268312454,-0.304878056049,1.0,0.0,0.0,0.0,1.0,0.0,0.0,0.0,1.0,0.632069238281,-0.31124621582,10.285490332,1.0,0.0,0.0,0.0,1.0,0.0,0.0,0.0,1.0
1480508892814561560,761,1480508892810203131,,-1.50625050068,-1.26598989964,169.526473999,0.000968999986071,1.0,0.0,0.0,0.0,1.0,0.0,0.0,0.0,1.0,-0.487804889679,2.07317066193,-0.731707334518,1.0,0.0,0.0,0.0,1.0,0.0,0.0,0.0,1.0,0.565031591797,-0.220266552734,10.1609918457,1.0,0.0,0.0,0.0,1.0,0.0,0.0,0.0,1.0
1480508892838726044,762,1480508892831703037,,-1.51201093197,-1.25543105602,169.501174927,0.00127300003078,1.0,0.0,0.0,0.0,1.0,0.0,0.0,0.0,1.0,0.243902444839,-2.98780488968,-1.40243899822,1.0,0.0,0.0,0.0,1.0,0.0,0.0,0.0,1.0,0.679953271484,-0.0957680664062,10.060435376,1.0,0.0,0.0,0.0,1.0,0.0,0.0,0.0,1.0
1480508892861780321,763,1480508892858207464,,-1.60508966446,-1.26037299633,169.482635498,0.00152499997057,1.0,0.0,0.0,0.0,1.0,0.0,0.0,0.0,1.0,-0.670731723309,-3.71951246262,-0.304878056049,1.0,0.0,0.0,0.0,1.0,0.0,0.0,0.0,1.0,1.32638771973,-0.201112939453,10.3237975586,1.0,0.0,0.0,0.0,1.0,0.0,0.0,0.0,1.0
1480508892880775805,764,1480508892875471336,,-1.72777032852,-1.28597056866,169.482833862,0.0015490000369,1.0,0.0,0.0,0.0,1.0,0.0,0.0,0.0,1.0,-0.243902444839,-2.43902444839,0.365853667259,1.0,0.0,0.0,0.0,1.0,0.0,0.0,0.0,1.0,1.45567460937,-0.143652099609,10.1226846191,1.0,0.0,0.0,0.0,1.0,0.0,0.0,0.0,1.0
1480508892900055038,765,1480508892895760619,,-1.860003829,-1.29398453236,169.464538574,0.00129199994262,1.0,0.0,0.0,0.0,1.0,0.0,0.0,0.0,1.0,-0.670731723309,0.487804889679,-0.304878056049,1.0,0.0,0.0,0.0,1.0,0.0,0.0,0.0,1.0,1.69509477539,-0.3064578125,10.2471831055,1.0,0.0,0.0,0.0,1.0,0.0,0.0,0.0,1.0
1480508892920065051,766,1480508892915735528,,-1.89305746555,-1.30988574028,169.446655273,0.00149199995212,1.0,0.0,0.0,0.0,1.0,0.0,0.0,0.0,1.0,-0.853658556938,3.04878044128,-0.0609756112099,1.0,0.0,0.0,0.0,1.0,0.0,0.0,0.0,1.0,1.31202250977,-0.253785375977,10.314220752,1.0,0.0,0.0,0.0,1.0,0.0,0.0,0.0,1.0
1480508892938917775,767,1480508892936736112,,-1.88927555084,-1.31110429764,169.429016113,0.0012150000548,1.0,0.0,0.0,0.0,1.0,0.0,0.0,0.0,1.0,-0.18292683363,3.41463422775,-0.0609756112099,1.0,0.0,0.0,0.0,1.0,0.0,0.0,0.0,1.0,1.1875240965,0.138863696289,10.2088758789,1.0,0.0,0.0,0.0,1.0,0.0,0.0,0.0,1.0
1480508892961468251,768,1480508892958137424,,-1.85217022896,-1.317476511,169.397583008,0.00121999997646,1.0,0.0,0.0,0.0,1.0,0.0,0.0,0.0,1.0,-0.18292683363,2.37804889679,-1.2195122242,1.0,0.0,0.0,0.0,1.0,0.0,0.0,0.0,1.0,0.818816967773,-0.0143652099609,10.1178962158,1.0,0.0,0.0,0.0,1.0,0.0,0.0,0.0,1.0
1480508892981627743,769,1480508892979095977,,-1.8169220686,-1.32689964771,169.378356934,0.00139400002081,1.0,0.0,0.0,0.0,1.0,0.0,0.0,0.0,1.0,-1.34146344662,0.853658556938,-0.487804889679,1.0,0.0,0.0,0.0,1.0,0.0,0.0,0.0,1.0,0.77093293457,0.0191536132812,10.2376062988,1.0,0.0,0.0,0.0,1.0,0.0,0.0,0.0,1.0
1480508893002144161,770,1480508892999521093,,-1.84103906155,-1.33668136597,169.348144531,0.00106299994513,1.0,0.0,0.0,0.0,1.0,0.0,0.0,0.0,1.0,-1.46341466904,-0.426829278469,0.0,1.0,0.0,0.0,0.0,1.0,0.0,0.0,0.0,1.0,1.14442839355,-0.0814028564453,10.4147772217,1.0,0.0,0.0,0.0,1.0,0.0,0.0,0.0,1.0
1480508893023781567,771,1480508893021286624,,-1.91868340969,-1.35090112686,169.339660645,0.000980000011623,1.0,0.0,0.0,0.0,1.0,0.0,0.0,0.0,1.0,0.12195122242,0.18292683363,-0.914634168148,1.0,0.0,0.0,0.0,1.0,0.0,0.0,0.0,1.0,1.36948334961,-0.344765039063,9.99818613281,1.0,0.0,0.0,0.0,1.0,0.0,0.0,0.0,1.0
1480508893044605536,772,1480508893041858511,,-1.97536695004,-1.35283386707,169.317337036,0.00113500002772,1.0,0.0,0.0,0.0,1.0,0.0,0.0,0.0,1.0,0.609756112099,0.609756112099,-0.0609756112099,1.0,0.0,0.0,0.0,1.0,0.0,0.0,0.0,1.0,1.2737152832,-0.248996972656,10.2711251221,1.0,0.0,0.0,0.0,1.0,0.0,0.0,0.0,1.0
1480508893065272267,773,1480508893062526231,,-2.01030158997,-1.34935247898,169.296569824,0.00117599999066,1.0,0.0,0.0,0.0,1.0,0.0,0.0,0.0,1.0,-0.243902444839,3.47560977936,-0.487804889679,1.0,0.0,0.0,0.0,1.0,0.0,0.0,0.0,1.0,1.47961662598,-0.138863696289,10.2471831055,1.0,0.0,0.0,0.0,1.0,0.0,0.0,0.0,1.0
1480508893085455144,774,1480508893083031086,,-2.00737667084,-1.33313703537,169.278701782,0.00109799997881,1.0,0.0,0.0,0.0,1.0,0.0,0.0,0.0,1.0,-0.12195122242,4.81707286835,-0.548780500889,1.0,0.0,0.0,0.0,1.0,0.0,0.0,0.0,1.0,1.66636435547,-0.124498486328,10.2950671387,1.0,0.0,0.0,0.0,1.0,0.0,0.0,0.0,1.0
1480508893106561509,775,1480508893103789691,,-1.95989537239,-1.31889736652,169.25402832,0.000987999956124,1.0,0.0,0.0,0.0,1.0,0.0,0.0,0.0,1.0,-0.243902444839,7.19512224197,-1.34146344662,1.0,0.0,0.0,0.0,1.0,0.0,0.0,0.0,1.0,1.50355864258,-0.325611425781,9.94551369629,1.0,0.0,0.0,0.0,1.0,0.0,0.0,0.0,1.0
1480508893138476342,776,1480508893124616526,,-1.859161973,-1.30686080456,169.225662231,0.000977999996394,1.0,0.0,0.0,0.0,1.0,0.0,0.0,0.0,1.0,2.86585378647,4.45121955872,-1.09756100178,1.0,0.0,0.0,0.0,1.0,0.0,0.0,0.0,1.0,0.957680664062,0.067037651051,10.060435376,1.0,0.0,0.0,0.0,1.0,0.0,0.0,0.0,1.0
1480508893149187155,777,1480508893145686797,,-1.7825666666,-1.28086078167,169.184387207,0.000968999986071,1.0,0.0,0.0,0.0,1.0,0.0,0.0,0.0,1.0,0.426829278469,5.73170757294,-1.58536589146,1.0,0.0,0.0,0.0,1.0,0.0,0.0,0.0,1.0,0.828393774414,-0.344765039063,10.2184526855,1.0,0.0,0.0,0.0,1.0,0.0,0.0,0.0,1.0
1480508893170591592,778,1480508893166449621,,-1.70072996616,-1.27318191528,169.151199341,0.0009710000013,1.0,0.0,0.0,0.0,1.0,0.0,0.0,0.0,1.0,-0.243902444839,5.42682933807,-1.40243899822,1.0,0.0,0.0,0.0,1.0,0.0,0.0,0.0,1.0,0.775721337891,-0.320823022461,10.3812583984,1.0,0.0,0.0,0.0,1.0,0.0,0.0,0.0,1.0
1480508893190333324,779,1480508893187463955,,-1.65047299862,-1.25951683521,169.125656128,0.000957000011113,1.0,0.0,0.0,0.0,1.0,0.0,0.0,0.0,1.0,-0.0609756112099,4.51219558716,-0.792682945728,1.0,0.0,0.0,0.0,1.0,0.0,0.0,0.0,1.0,0.981622680664,-0.0861912597656,9.95509050293,1.0,0.0,0.0,0.0,1.0,0.0,0.0,0.0,1.0
1480508893213704893,780,1480508893208953913,,-1.62057220936,-1.23329246044,169.105072021,0.00106299994513,1.0,0.0,0.0,0.0,1.0,0.0,0.0,0.0,1.0,0.853658556938,3.10975623131,-0.365853667259,1.0,0.0,0.0,0.0,1.0,0.0,0.0,0.0,1.0,0.972045874023,-0.354341845703,10.0700121826,1.0,0.0,0.0,0.0,1.0,0.0,0.0,0.0,1.0
1480508893236021776,781,1480508893229893143,,-1.595739007,-1.2059262991,169.091552734,0.000965000013821,1.0,0.0,0.0,0.0,1.0,0.0,0.0,0.0,1.0,0.304878056049,2.31707310677,0.0,1.0,0.0,0.0,0.0,1.0,0.0,0.0,0.0,1.0,0.780509741211,-0.0191536132812,10.2040874756,1.0,0.0,0.0,0.0,1.0,0.0,0.0,0.0,1.0
1480508893253558044,782,1480508893250935081,,-1.55387711525,-1.20520555973,169.080657959,0.000973000016529,1.0,0.0,0.0,0.0,1.0,0.0,0.0,0.0,1.0,-0.304878056049,0.12195122242,-0.548780500889,1.0,0.0,0.0,0.0,1.0,0.0,0.0,0.0,1.0,0.545877978516,-0.0574608398438,10.0077629395,1.0,0.0,0.0,0.0,1.0,0.0,0.0,0.0,1.0
1480508893282845278,783,1480508893272117018,,-1.5805798769,-1.19604563713,169.069793701,0.00126699998509,1.0,0.0,0.0,0.0,1.0,0.0,0.0,0.0,1.0,-0.243902444839,-2.74390244484,-0.304878056049,1.0,0.0,0.0,0.0,1.0,0.0,0.0,0.0,1.0,0.938527050781,-0.0957680664062,10.1705686523,1.0,0.0,0.0,0.0,1.0,0.0,0.0,0.0,1.0
1480508893295876243,784,1480508893293063592,,-1.68663966656,-1.18923163414,169.063995361,0.00124400004279,1.0,0.0,0.0,0.0,1.0,0.0,0.0,0.0,1.0,0.365853667259,-3.53658556938,0.548780500889,1.0,0.0,0.0,0.0,1.0,0.0,0.0,0.0,1.0,1.20667770978,-0.076614453125,10.1226846191,1.0,0.0,0.0,0.0,1.0,0.0,0.0,0.0,1.0
1480508893317674221,785,1480508893314470321,,-1.84956550598,-1.17264187336,169.081436157,0.00109000003431,1.0,0.0,0.0,0.0,1.0,0.0,0.0,0.0,1.0,2.62195134163,-4.63414621353,1.76829278469,1.0,0.0,0.0,0.0,1.0,0.0,0.0,0.0,1.0,1.43173259277,-0.263362164351,10.1514150391,1.0,0.0,0.0,0.0,1.0,0.0,0.0,0.0,1.0
1480508893344144221,786,1480508893335471998,,-2.03075027466,-1.11473882198,169.103042603,0.00121100002434,1.0,0.0,0.0,0.0,1.0,0.0,0.0,0.0,1.0,5.48780488968,-4.87804889679,1.2195122242,1.0,0.0,0.0,0.0,1.0,0.0,0.0,0.0,1.0,1.4844050293,-0.301669427446,10.1418382324,1.0,0.0,0.0,0.0,1.0,0.0,0.0,0.0,1.0
1480508893363095121,787,1480508893357177373,,-2.14163970947,-1.12327969074,169.199966431,0.00121699995361,1.0,0.0,0.0,0.0,1.0,0.0,0.0,0.0,1.0,-8.71951198578,10.7317075729,27.5,1.0,0.0,0.0,0.0,1.0,0.0,0.0,0.0,1.0,0.110133276367,-0.823605371094,9.40442353657,1.0,0.0,0.0,0.0,1.0,0.0,0.0,0.0,1.0
1480508893383649456,788,1480508893377807124,,-1.99733817577,-1.27732348442,169.609985352,0.00129399995785,1.0,0.0,0.0,0.0,1.0,0.0,0.0,0.0,1.0,1.52439022064,0.548780500889,2.5,1.0,0.0,0.0,0.0,1.0,0.0,0.0,0.0,1.0,1.56580788574,0.0287304199219,10.4961800781,1.0,0.0,0.0,0.0,1.0,0.0,0.0,0.0,1.0
1480508893404267437,789,1480508893398967082,,-1.97671735287,-1.23987436295,169.596115112,0.00113200000487,1.0,0.0,0.0,0.0,1.0,0.0,0.0,0.0,1.0,0.18292683363,-0.304878056049,0.792682945728,1.0,0.0,0.0,0.0,1.0,0.0,0.0,0.0,1.0,0.632069238281,-0.435744702148,10.2088758789,1.0,0.0,0.0,0.0,1.0,0.0,0.0,0.0,1.0
1480508893424001877,790,1480508893419719906,,-2.05588364601,-1.2033033371,169.58380127,0.00104100001045,1.0,0.0,0.0,0.0,1.0,0.0,0.0,0.0,1.0,1.03658533096,0.548780500889,-1.2804877758,1.0,0.0,0.0,0.0,1.0,0.0,0.0,0.0,1.0,1.12048637695,-0.067037651051,10.2807019287,1.0,0.0,0.0,0.0,1.0,0.0,0.0,0.0,1.0
1480508893444471941,791,1480508893440229502,,-2.0878033638,-1.1911689043,169.572036743,0.00107400002889,1.0,0.0,0.0,0.0,1.0,0.0,0.0,0.0,1.0,0.731707334518,-1.03658533096,0.975609779358,1.0,0.0,0.0,0.0,1.0,0.0,0.0,0.0,1.0,1.02471831055,-0.0574608398438,9.8545340332,1.0,0.0,0.0,0.0,1.0,0.0,0.0,0.0,1.0
1480508893464107788,792,1480508893461412794,,-2.14254021645,-1.19522094727,169.567779541,0.00113999994937,1.0,0.0,0.0,0.0,1.0,0.0,0.0,0.0,1.0,0.0,0.670731723309,0.975609779358,1.0,0.0,0.0,0.0,1.0,0.0,0.0,0.0,1.0,1.20667770978,-0.239420166016,10.1897222656,1.0,0.0,0.0,0.0,1.0,0.0,0.0,0.0,1.0
1480508893485917329,793,1480508893481904420,,-2.16403794289,-1.2183047533,169.580474854,0.00101200002246,1.0,0.0,0.0,0.0,1.0,0.0,0.0,0.0,1.0,-2.43902444839,1.64634156227,1.15853655338,1.0,0.0,0.0,0.0,1.0,0.0,0.0,0.0,1.0,1.23061965332,-0.0383072265625,9.8545340332,1.0,0.0,0.0,0.0,1.0,0.0,0.0,0.0,1.0
1480508893505921404,794,1480508893502514223,,-2.04311275482,-1.5740840435,169.515151978,0.00107200001366,1.0,0.0,0.0,0.0,1.0,0.0,0.0,0.0,1.0,-9.75609779358,9.81707286835,-14.5121955872,1.0,0.0,0.0,0.0,1.0,0.0,0.0,0.0,1.0,0.0574608398438,-4.57771357422,8.89206496582,1.0,0.0,0.0,0.0,1.0,0.0,0.0,0.0,1.0
1480508893527664122,795,1480508893523154652,,-2.07966828346,-1.51128709316,169.468948364,0.00113700004295,1.0,0.0,0.0,0.0,1.0,0.0,0.0,0.0,1.0,-1.70731711388,4.32926845551,-1.09756100178,1.0,0.0,0.0,0.0,1.0,0.0,0.0,0.0,1.0,3.05978972168,-0.220266552734,9.94072529297,1.0,0.0,0.0,0.0,1.0,0.0,0.0,0.0,1.0
1480508893546438877,796,1480508893543603258,,-2.03828573227,-1.53582167625,169.341079712,0.00102600001264,1.0,0.0,0.0,0.0,1.0,0.0,0.0,0.0,1.0,-1.34146344662,10.3658542633,-3.7804877758,1.0,0.0,0.0,0.0,1.0,0.0,0.0,0.0,1.0,1.12048637695,-0.502782348633,10.4866032715,1.0,0.0,0.0,0.0,1.0,0.0,0.0,0.0,1.0
1480508893567136337,797,1480508893564571081,,-2.02769374847,-1.28223693371,169.519515991,0.000987999956124,1.0,0.0,0.0,0.0,1.0,0.0,0.0,0.0,1.0,-33.7195129395,32.2560958862,2.01219511032,1.0,0.0,0.0,0.0,1.0,0.0,0.0,0.0,1.0,3.6056677002,4.46279189453,10.9175595703,1.0,0.0,0.0,0.0,1.0,0.0,0.0,0.0,1.0
1480508893588243274,798,1480508893585760467,,-1.90841376781,-1.242177248,169.447662354,0.000966000021435,1.0,0.0,0.0,0.0,1.0,0.0,0.0,0.0,1.0,-7.62195110321,-3.23170733452,-2.07317066193,1.0,0.0,0.0,0.0,1.0,0.0,0.0,0.0,1.0,0.92416184082,2.48996972656,9.16500395508,1.0,0.0,0.0,0.0,1.0,0.0,0.0,0.0,1.0
1480508893609559951,799,1480508893606452822,,-2.01421523094,-1.31350898743,169.450271606,0.00112499995157,1.0,0.0,0.0,0.0,1.0,0.0,0.0,0.0,1.0,-2.98780488968,4.63414621353,-2.31707310677,1.0,0.0,0.0,0.0,1.0,0.0,0.0,0.0,1.0,2.20745393066,0.651222851562,9.74918916016,1.0,0.0,0.0,0.0,1.0,0.0,0.0,0.0,1.0
1480508893630961264,800,1480508893627412989,,-1.988083601,-1.40929532051,169.467132568,0.00109899998643,1.0,0.0,0.0,0.0,1.0,0.0,0.0,0.0,1.0,-0.792682945728,3.53658556938,1.03658533096,1.0,0.0,0.0,0.0,1.0,0.0,0.0,0.0,1.0,1.43652099609,-0.421379492187,9.82101520996,1.0,0.0,0.0,0.0,1.0,0.0,0.0,0.0,1.0
1480508893655286997,801,1480508893648772739,,-1.98400998116,-1.44588983059,169.426864624,0.00102800002787,1.0,0.0,0.0,0.0,1.0,0.0,0.0,0.0,1.0,-0.304878056049,0.0609756112099,-2.01219511032,1.0,0.0,0.0,0.0,1.0,0.0,0.0,0.0,1.0,1.09175595703,-0.292092584273,10.4004120117,1.0,0.0,0.0,0.0,1.0,0.0,0.0,0.0,1.0
1480508893675130865,802,1480508893670201656,,-1.99979579449,-1.42601430416,169.416168213,0.0011040000245,1.0,0.0,0.0,0.0,1.0,0.0,0.0,0.0,1.0,0.304878056049,1.8292683363,0.12195122242,1.0,0.0,0.0,0.0,1.0,0.0,0.0,0.0,1.0,1.13006318359,0.272938989258,9.93593688965,1.0,0.0,0.0,0.0,1.0,0.0,0.0,0.0,1.0
1480508893697351550,803,1480508893690837709,,-1.98338460922,-1.37983870506,169.395904541,0.00106100004632,1.0,0.0,0.0,0.0,1.0,0.0,0.0,0.0,1.0,-0.548780500889,-1.2804877758,-0.426829278469,1.0,0.0,0.0,0.0,1.0,0.0,0.0,0.0,1.0,0.61770402832,-0.0478840332031,10.1992990723,1.0,0.0,0.0,0.0,1.0,0.0,0.0,0.0,1.0
1480508893716779065,804,1480508893711479700,,-2.05575251579,-1.36642193794,169.37097168,0.00144200003706,1.0,0.0,0.0,0.0,1.0,0.0,0.0,0.0,1.0,-0.731707334518,-3.84146332741,-0.365853667259,1.0,0.0,0.0,0.0,1.0,0.0,0.0,0.0,1.0,0.421379492187,-0.229843359375,10.0843773926,1.0,0.0,0.0,0.0,1.0,0.0,0.0,0.0,1.0
1480508893736466370,805,1480508893732534815,,-2.18748831749,-1.37603962421,169.367767334,0.00110700004734,1.0,0.0,0.0,0.0,1.0,0.0,0.0,0.0,1.0,1.58536589146,-8.23170757294,0.548780500889,1.0,0.0,0.0,0.0,1.0,0.0,0.0,0.0,1.0,1.35990654297,0.258573779297,10.5919481445,1.0,0.0,0.0,0.0,1.0,0.0,0.0,0.0,1.0
1480508893758464764,806,1480508893753484149,,-2.3928463459,-1.35573303699,169.391204834,0.00113800005056,1.0,0.0,0.0,0.0,1.0,0.0,0.0,0.0,1.0,-9.32926845551,3.65853667259,1.03658533096,1.0,0.0,0.0,0.0,1.0,0.0,0.0,0.0,1.0,2.51870014648,0.995987890625,9.35653950337,1.0,0.0,0.0,0.0,1.0,0.0,0.0,0.0,1.0
1480508893779078474,807,1480508893774640618,,-2.57812047005,-1.37712717056,169.28125,0.00212400010787,1.0,0.0,0.0,0.0,1.0,0.0,0.0,0.0,1.0,-5.85365867615,3.47560977936,-3.53658556938,1.0,0.0,0.0,0.0,1.0,0.0,0.0,0.0,1.0,2.22660754395,0.46447512207,10.9079827637,1.0,0.0,0.0,0.0,1.0,0.0,0.0,0.0,1.0
1480508893797353907,808,1480508893795587712,,-2.63312149048,-1.47074258327,169.237380981,0.00135399994906,1.0,0.0,0.0,0.0,1.0,0.0,0.0,0.0,1.0,-0.975609779358,-2.43902444839,-1.52439022064,1.0,0.0,0.0,0.0,1.0,0.0,0.0,0.0,1.0,0.277727392578,-0.588973571866,10.1274730225,1.0,0.0,0.0,0.0,1.0,0.0,0.0,0.0,1.0
1480508893820611465,809,1480508893818150897,,-2.91090655327,-1.51317596436,168.859725952,0.00130500004161,1.0,0.0,0.0,0.0,1.0,0.0,0.0,0.0,1.0,3.65853667259,-9.32926845551,-17.6219520569,1.0,0.0,0.0,0.0,1.0,0.0,0.0,0.0,1.0,2.58573779297,-0.972045874023,9.99339772949,1.0,0.0,0.0,0.0,1.0,0.0,0.0,0.0,1.0
1480508893841862466,810,1480508893838523149,,-3.05332708359,-1.36929059029,168.809509277,0.00120599998627,1.0,0.0,0.0,0.0,1.0,0.0,0.0,0.0,1.0,-4.39024400711,9.63414573669,1.40243899822,1.0,0.0,0.0,0.0,1.0,0.0,0.0,0.0,1.0,2.58094938965,-0.0957680664062,10.2711251221,1.0,0.0,0.0,0.0,1.0,0.0,0.0,0.0,1.0
1480508893862360030,811,1480508893859289775,,-2.9510269165,-1.37478923798,168.759399414,0.00226400000975,1.0,0.0,0.0,0.0,1.0,0.0,0.0,0.0,1.0,0.0609756112099,10.7317075729,-3.23170733452,1.0,0.0,0.0,0.0,1.0,0.0,0.0,0.0,1.0,2.18830031738,-0.392649072266,10.3046439453,1.0,0.0,0.0,0.0,1.0,0.0,0.0,0.0,1.0
1480508893884125612,812,1480508893881170305,,-2.78717017174,-1.4127933979,168.704986572,0.00176699995063,1.0,0.0,0.0,0.0,1.0,0.0,0.0,0.0,1.0,2.43902444839,9.32926845551,-2.80487799644,1.0,0.0,0.0,0.0,1.0,0.0,0.0,0.0,1.0,2.10210891149,-0.0239420166016,10.3381627686,1.0,0.0,0.0,0.0,1.0,0.0,0.0,0.0,1.0
1480508893904418385,813,1480508893901536724,,-2.48721456528,-1.36607134342,168.733917236,0.00157399999443,1.0,0.0,0.0,0.0,1.0,0.0,0.0,0.0,1.0,-1.52439022064,11.2804880142,-1.40243899822,1.0,0.0,0.0,0.0,1.0,0.0,0.0,0.0,1.0,0.545877978516,0.234631762695,10.3190091553,1.0,0.0,0.0,0.0,1.0,0.0,0.0,0.0,1.0
1480508893924331054,814,1480508893921896423,,-2.2919318676,-1.37510025501,168.674102783,0.00111800001469,1.0,0.0,0.0,0.0,1.0,0.0,0.0,0.0,1.0,-0.975609779358,5.12195110321,-0.365853667259,1.0,0.0,0.0,0.0,1.0,0.0,0.0,0.0,1.0,0.124498486328,-0.15801730957,10.1370498291,1.0,0.0,0.0,0.0,1.0,0.0,0.0,0.0,1.0
1480508893945933460,815,1480508893942535706,,-2.2207634449,-1.18624269962,168.923538208,0.000983000034466,1.0,0.0,0.0,0.0,1.0,0.0,0.0,0.0,1.0,-12.6829271317,48.7195129395,8.17073154449,1.0,0.0,0.0,0.0,1.0,0.0,0.0,0.0,1.0,1.50355864258,5.7508723877,10.9415015869,1.0,0.0,0.0,0.0,1.0,0.0,0.0,0.0,1.0
1480508893966679877,816,1480508893963144989,,-1.84788286686,-1.47983705997,168.674514771,0.000979000004008,1.0,0.0,0.0,0.0,1.0,0.0,0.0,0.0,1.0,-3.47560977936,3.96341490746,-9.5731716156,1.0,0.0,0.0,0.0,1.0,0.0,0.0,0.0,1.0,-0.0814028564453,-0.852335791016,9.86411083984,1.0,0.0,0.0,0.0,1.0,0.0,0.0,0.0,1.0
1480508893987544420,817,1480508893984135312,,-1.93073773384,-1.43224322796,168.62272644,0.00109599996358,1.0,0.0,0.0,0.0,1.0,0.0,0.0,0.0,1.0,-8.65853691101,8.96341514587,0.670731723309,1.0,0.0,0.0,0.0,1.0,0.0,0.0,0.0,1.0,2.7820623291,-0.450109912109,9.80665,1.0,0.0,0.0,0.0,1.0,0.0,0.0,0.0,1.0
1480508894009118909,818,1480508894005368500,,-1.81084239483,-1.43830692768,168.588424683,0.000977999996394,1.0,0.0,0.0,0.0,1.0,0.0,0.0,0.0,1.0,1.8292683363,4.2682929039,-0.18292683363,1.0,0.0,0.0,0.0,1.0,0.0,0.0,0.0,1.0,1.35990654297,-0.335188232422,10.6398321777,1.0,0.0,0.0,0.0,1.0,0.0,0.0,0.0,1.0
1480508894028821422,819,1480508894025924136,,-1.74795138836,-1.41469347477,168.548339844,0.000966000021435,1.0,0.0,0.0,0.0,1.0,0.0,0.0,0.0,1.0,1.52439022064,10.3048782349,-3.84146332741,1.0,0.0,0.0,0.0,1.0,0.0,0.0,0.0,1.0,2.03507141113,-0.143652099609,10.2807019287,1.0,0.0,0.0,0.0,1.0,0.0,0.0,0.0,1.0
1480508894049598361,820,1480508894046740606,,-1.58228540421,-1.45024168491,168.505889893,0.000975999981165,1.0,0.0,0.0,0.0,1.0,0.0,0.0,0.0,1.0,1.2195122242,8.84146404266,-2.74390244484,1.0,0.0,0.0,0.0,1.0,0.0,0.0,0.0,1.0,1.80043964844,0.0239420166016,10.0508585693,1.0,0.0,0.0,0.0,1.0,0.0,0.0,0.0,1.0
1480508894072472743,821,1480508894067845773,,-1.39351809025,-1.4447479248,168.437973022,0.000961999990977,1.0,0.0,0.0,0.0,1.0,0.0,0.0,0.0,1.0,1.09756100178,8.23170757294,-1.2804877758,1.0,0.0,0.0,0.0,1.0,0.0,0.0,0.0,1.0,0.694318481445,0.0335188255255,10.1897222656,1.0,0.0,0.0,0.0,1.0,0.0,0.0,0.0,1.0
1480508894092937182,822,1480508894089106409,,-1.20876693726,-1.42829191685,168.381866455,0.000981000019237,1.0,0.0,0.0,0.0,1.0,0.0,0.0,0.0,1.0,0.487804889679,1.8292683363,-2.74390244484,1.0,0.0,0.0,0.0,1.0,0.0,0.0,0.0,1.0,0.746990917969,-1.69988317871,9.54807680523,1.0,0.0,0.0,0.0,1.0,0.0,0.0,0.0,1.0
1480508894114418703,823,1480508894110384752,,-1.10328316689,-1.37698984146,168.351501465,0.00097499997355,1.0,0.0,0.0,0.0,1.0,0.0,0.0,0.0,1.0,1.70731711388,-1.40243899822,-2.74390244484,1.0,0.0,0.0,0.0,1.0,0.0,0.0,0.0,1.0,-0.229843359375,-1.44609780273,9.38526992329,1.0,0.0,0.0,0.0,1.0,0.0,0.0,0.0,1.0
1480508894136672461,824,1480508894131132160,,-1.09791684151,-1.36625957489,168.366760254,0.00103199994192,1.0,0.0,0.0,0.0,1.0,0.0,0.0,0.0,1.0,-2.07317066193,-2.74390244484,-1.2804877758,1.0,0.0,0.0,0.0,1.0,0.0,0.0,0.0,1.0,-0.632069238281,-0.871489404297,9.90720646973,1.0,0.0,0.0,0.0,1.0,0.0,0.0,0.0,1.0
1480508894156163204,825,1480508894151969827,,-1.25694584846,-1.3822208643,168.383255005,0.001007999992,1.0,0.0,0.0,0.0,1.0,0.0,0.0,0.0,1.0,-0.0609756112099,-7.50000047684,4.57317066193,1.0,0.0,0.0,0.0,1.0,0.0,0.0,0.0,1.0,1.32159931641,-0.31124621582,9.61511445171,1.0,0.0,0.0,0.0,1.0,0.0,0.0,0.0,1.0
1480508894177980089,826,1480508894173007963,,-1.41996431351,-1.41197860241,168.384033203,0.00128500000574,1.0,0.0,0.0,0.0,1.0,0.0,0.0,0.0,1.0,1.52439022064,-8.10975551605,-2.01219511032,1.0,0.0,0.0,0.0,1.0,0.0,0.0,0.0,1.0,-0.0814028564453,-1.47961662598,9.00219824219,1.0,0.0,0.0,0.0,1.0,0.0,0.0,0.0,1.0
1480508894200087025,827,1480508894194463911,,-1.68377506733,-1.38710165024,168.380371094,0.00112200004514,1.0,0.0,0.0,0.0,1.0,0.0,0.0,0.0,1.0,0.792682945728,-7.25609779358,-0.792682945728,1.0,0.0,0.0,0.0,1.0,0.0,0.0,0.0,1.0,2.20266552734,-0.31124621582,11.0707884766,1.0,0.0,0.0,0.0,1.0,0.0,0.0,0.0,1.0
1480508894219366727,828,1480508894215720119,,-1.86188340187,-1.33050072193,168.433654785,0.00122800003737,1.0,0.0,0.0,0.0,1.0,0.0,0.0,0.0,1.0,-3.71951246262,2.5,3.96341490746,1.0,0.0,0.0,0.0,1.0,0.0,0.0,0.0,1.0,-0.392649072266,6.66545742187,10.8600987305,1.0,0.0,0.0,0.0,1.0,0.0,0.0,0.0,1.0
1480508894240198769,829,1480508894236441797,,-1.92508304119,-1.41031348705,168.41444397,0.00123399996664,1.0,0.0,0.0,0.0,1.0,0.0,0.0,0.0,1.0,-5.48780488968,2.5,-0.365853667259,1.0,0.0,0.0,0.0,1.0,0.0,0.0,0.0,1.0,1.13485158691,-0.383072265625,10.1035310059,1.0,0.0,0.0,0.0,1.0,0.0,0.0,0.0,1.0
