%time,field.header.seq,field.header.stamp,field.header.frame_id,field.orientation.x,field.orientation.y,field.orientation.z,field.orientation.w,field.orientation_covariance0,field.orientation_covariance1,field.orientation_covariance2,field.orientation_covariance3,field.orientation_covariance4,field.orientation_covariance5,field.orientation_covariance6,field.orientation_covariance7,field.orientation_covariance8,field.angular_velocity.x,field.angular_velocity.y,field.angular_velocity.z,field.angular_velocity_covariance0,field.angular_velocity_covariance1,field.angular_velocity_covariance2,field.angular_velocity_covariance3,field.angular_velocity_covariance4,field.angular_velocity_covariance5,field.angular_velocity_covariance6,field.angular_velocity_covariance7,field.angular_velocity_covariance8,field.linear_acceleration.x,field.linear_acceleration.y,field.linear_acceleration.z,field.linear_acceleration_covariance0,field.linear_acceleration_covariance1,field.linear_acceleration_covariance2,field.linear_acceleration_covariance3,field.linear_acceleration_covariance4,field.linear_acceleration_covariance5,field.linear_acceleration_covariance6,field.linear_acceleration_covariance7,field.linear_acceleration_covariance8
1463563132476300883,457,1463563132419567732,,-26.3282203674,-8.34096050262,-178.062896729,0.0110499998555,1.0,0.0,0.0,0.0,1.0,0.0,0.0,0.0,1.0,14.2073173523,-3.84146332741,-0.0609756112099,1.0,0.0,0.0,0.0,1.0,0.0,0.0,0.0,1.0,-1.54665427246,4.02225878906,-8.9591026123,1.0,0.0,0.0,0.0,1.0,0.0,0.0,0.0,1.0
1463563132476371404,458,1463563132427666598,,-26.1952972412,-8.37176799774,-178.073852539,0.00931799970567,1.0,0.0,0.0,0.0,1.0,0.0,0.0,0.0,1.0,13.658536911,-3.23170733452,-2.5,1.0,0.0,0.0,0.0,1.0,0.0,0.0,0.0,1.0,-1.63763393555,3.86902988281,-8.72925925293,1.0,0.0,0.0,0.0,1.0,0.0,0.0,0.0,1.0
1463563132476441561,459,1463563132437969178,,-26.0268249512,-8.41406917572,-178.116714478,0.00995100010186,1.0,0.0,0.0,0.0,1.0,0.0,0.0,0.0,1.0,13.2317075729,-3.47560977936,-5.60975599289,1.0,0.0,0.0,0.0,1.0,0.0,0.0,0.0,1.0,-1.4604630127,3.28005627441,-8.52335849468,1.0,0.0,0.0,0.0,1.0,0.0,0.0,0.0,1.0
1463563132476509843,460,1463563132450352504,,-25.8261909485,-8.50291538239,-178.233734131,0.0122239999473,1.0,0.0,0.0,0.0,1.0,0.0,0.0,0.0,1.0,9.14634132385,-3.7804877758,-11.0365858078,1.0,0.0,0.0,0.0,1.0,0.0,0.0,0.0,1.0,-1.56101948242,2.88740720215,-8.9112185791,1.0,0.0,0.0,0.0,1.0,0.0,0.0,0.0,1.0
1463563132476682084,461,1463563132457805374,,-25.7075767517,-8.58271503448,-178.347045898,0.00796199962497,1.0,0.0,0.0,0.0,1.0,0.0,0.0,0.0,1.0,6.09756088257,-4.08536577225,-16.0975608826,1.0,0.0,0.0,0.0,1.0,0.0,0.0,0.0,1.0,-1.59453830566,2.67192905273,-8.80587370605,1.0,0.0,0.0,0.0,1.0,0.0,0.0,0.0,1.0
1463563132476717084,462,1463563132467975141,,-25.6024913788,-8.72628593445,-178.55430603,0.010095000267,1.0,0.0,0.0,0.0,1.0,0.0,0.0,0.0,1.0,2.13414645195,-4.93902444839,-23.5975627899,1.0,0.0,0.0,0.0,1.0,0.0,0.0,0.0,1.0,-1.65199914551,2.90177241211,-8.76277807617,1.0,0.0,0.0,0.0,1.0,0.0,0.0,0.0,1.0
1463563132485707831,463,1463563132482181814,,-25.4383277893,-9.01675128937,-179.008956909,0.0142599996179,1.0,0.0,0.0,0.0,1.0,0.0,0.0,0.0,1.0,0.0,-5.12195110321,-35.7317085266,1.0,0.0,0.0,0.0,1.0,0.0,0.0,0.0,1.0,-1.85311208496,2.72460148926,-9.08360109863,1.0,0.0,0.0,0.0,1.0,0.0,0.0,0.0,1.0
1463563132494038782,464,1463563132488377123,,-25.3690929413,-9.16308784485,-179.246917725,0.00631000008434,1.0,0.0,0.0,0.0,1.0,0.0,0.0,0.0,1.0,-2.01219511032,-4.75609779358,-41.7073173523,1.0,0.0,0.0,0.0,1.0,0.0,0.0,0.0,1.0,-1.98718737793,2.58573779297,-8.99740983887,1.0,0.0,0.0,0.0,1.0,0.0,0.0,0.0,1.0
1463563132501735665,465,1463563132498064021,,-25.2788639069,-9.4103975296,-179.692733765,0.00973400007933,1.0,0.0,0.0,0.0,1.0,0.0,0.0,0.0,1.0,-5.60975599289,-4.45121955872,-50.182926178,1.0,0.0,0.0,0.0,1.0,0.0,0.0,0.0,1.0,-1.81959326172,2.4995465332,-9.01177504883,1.0,0.0,0.0,0.0,1.0,0.0,0.0,0.0,1.0
1463563132512842783,466,1463563132508461550,,-25.219575882,-9.70991134644,179.762939453,0.0100969998166,1.0,0.0,0.0,0.0,1.0,0.0,0.0,0.0,1.0,-8.41463470459,-5.0,-59.5121994019,1.0,0.0,0.0,0.0,1.0,0.0,0.0,0.0,1.0,-1.87226569824,2.88740720215,-9.05965908203,1.0,0.0,0.0,0.0,1.0,0.0,0.0,0.0,1.0
1463563132525825540,467,1463563132518385847,,-25.1711235046,-10.0489492416,179.150543213,0.0100929997861,1.0,0.0,0.0,0.0,1.0,0.0,0.0,0.0,1.0,-10.4878053665,-5.97560977936,-67.2560958862,1.0,0.0,0.0,0.0,1.0,0.0,0.0,0.0,1.0,-1.87226569824,2.92571442871,-8.9591026123,1.0,0.0,0.0,0.0,1.0,0.0,0.0,0.0,1.0
1463563132544960637,468,1463563132529872186,,-25.1609249115,-10.4271183014,178.484329224,0.010106000118,1.0,0.0,0.0,0.0,1.0,0.0,0.0,0.0,1.0,-13.4756097794,-7.31707334518,-73.8414611816,1.0,0.0,0.0,0.0,1.0,0.0,0.0,0.0,1.0,-1.92014973145,3.28005627441,-8.89206496582,1.0,0.0,0.0,0.0,1.0,0.0,0.0,0.0,1.0
1463563132545071263,469,1463563132540394976,,-25.162940979,-10.8200273514,177.786529541,0.0100990002975,1.0,0.0,0.0,0.0,1.0,0.0,0.0,0.0,1.0,-12.8048782349,-9.14634132385,-78.5975570679,1.0,0.0,0.0,0.0,1.0,0.0,0.0,0.0,1.0,-1.61848032227,3.76368500977,-8.74362446289,1.0,0.0,0.0,0.0,1.0,0.0,0.0,0.0,1.0
1463563132551500271,470,1463563132548580405,,-25.1667881012,-11.2488603592,177.073501587,0.0100940000266,1.0,0.0,0.0,0.0,1.0,0.0,0.0,0.0,1.0,-12.1951217651,-12.1341466904,-81.8902435303,1.0,0.0,0.0,0.0,1.0,0.0,0.0,0.0,1.0,-1.67594116211,4.21379462961,-9.06444748535,1.0,0.0,0.0,0.0,1.0,0.0,0.0,0.0,1.0
1463563132562289262,471,1463563132558788453,,-25.1492671967,-11.70936203,176.36656189,0.0100959995762,1.0,0.0,0.0,0.0,1.0,0.0,0.0,0.0,1.0,-10.2439022064,-16.2804889679,-83.1097564697,1.0,0.0,0.0,0.0,1.0,0.0,0.0,0.0,1.0,-1.5562310791,4.2760444573,-9.08838950195,1.0,0.0,0.0,0.0,1.0,0.0,0.0,0.0,1.0
1463563132574168521,472,1463563132568974158,,-25.1463699341,-12.1928358078,175.686538696,0.0101260002702,1.0,0.0,0.0,0.0,1.0,0.0,0.0,0.0,1.0,-11.0975618362,-19.0853652954,-81.341468811,1.0,0.0,0.0,0.0,1.0,0.0,0.0,0.0,1.0,-1.70945998535,4.37660063477,-9.06444748535,1.0,0.0,0.0,0.0,1.0,0.0,0.0,0.0,1.0
1463563132583546042,473,1463563132579533927,,-25.1509494781,-12.7114009857,175.035827637,0.0105680003762,1.0,0.0,0.0,0.0,1.0,0.0,0.0,0.0,1.0,-12.3170728683,-22.5609760284,-76.5853729248,1.0,0.0,0.0,0.0,1.0,0.0,0.0,0.0,1.0,-1.80043964844,4.10845004883,-8.97825622559,1.0,0.0,0.0,0.0,1.0,0.0,0.0,0.0,1.0
1463563132615102017,474,1463563132591155112,,-25.207775116,-13.1723155975,174.515228271,0.00961400009692,1.0,0.0,0.0,0.0,1.0,0.0,0.0,0.0,1.0,-15.6097564697,-25.1219520569,-70.0000076294,1.0,0.0,0.0,0.0,1.0,0.0,0.0,0.0,1.0,-1.81001645508,4.36702382812,-9.07881269531,1.0,0.0,0.0,0.0,1.0,0.0,0.0,0.0,1.0
1463563132615160872,475,1463563132599935545,,-25.3000335693,-13.6494274139,174.06338501,0.0101159997284,1.0,0.0,0.0,0.0,1.0,0.0,0.0,0.0,1.0,-17.5609760284,-28.3536586761,-61.2195167542,1.0,0.0,0.0,0.0,1.0,0.0,0.0,0.0,1.0,-1.89620771484,4.2999864739,-9.13148513184,1.0,0.0,0.0,0.0,1.0,0.0,0.0,0.0,1.0
1463563132615490249,476,1463563132611550896,,-25.4389400482,-14.1048955917,173.720687866,0.0100940000266,1.0,0.0,0.0,0.0,1.0,0.0,0.0,0.0,1.0,-18.7195110321,-29.8780498505,-50.8536605835,1.0,0.0,0.0,0.0,1.0,0.0,0.0,0.0,1.0,-2.16435844691,4.53940634766,-9.04050546875,1.0,0.0,0.0,0.0,1.0,0.0,0.0,0.0,1.0
1463563132624966313,477,1463563132620692582,,-25.6123409271,-14.563205719,173.460998535,0.0106229996309,1.0,0.0,0.0,0.0,1.0,0.0,0.0,0.0,1.0,-18.5365848541,-31.158536911,-41.5853652954,1.0,0.0,0.0,0.0,1.0,0.0,0.0,0.0,1.0,-2.37983659633,4.64475092844,-8.91600698242,1.0,0.0,0.0,0.0,1.0,0.0,0.0,0.0,1.0
1463563132633970602,478,1463563132631523812,,-25.7965106964,-14.9428195953,173.316162109,0.00972199998796,1.0,0.0,0.0,0.0,1.0,0.0,0.0,0.0,1.0,-18.7195110321,-30.1829280853,-31.0975627899,1.0,0.0,0.0,0.0,1.0,0.0,0.0,0.0,1.0,-2.67192905273,4.64953933176,-8.77714328613,1.0,0.0,0.0,0.0,1.0,0.0,0.0,0.0,1.0
1463563132646297469,479,1463563132643786407,,-26.0335102081,-15.3014669418,173.274185181,0.0103150000796,1.0,0.0,0.0,0.0,1.0,0.0,0.0,0.0,1.0,-18.9634151459,-28.5365848541,-19.2073173523,1.0,0.0,0.0,0.0,1.0,0.0,0.0,0.0,1.0,-3.19865341797,4.87459458008,-8.68616362305,1.0,0.0,0.0,0.0,1.0,0.0,0.0,0.0,1.0
1463563132652991844,480,1463563132650231562,,-26.2644805908,-15.604382515,173.276626587,0.00973900035024,1.0,0.0,0.0,0.0,1.0,0.0,0.0,0.0,1.0,-19.5121955872,-26.5243911743,-13.4756097794,1.0,0.0,0.0,0.0,1.0,0.0,0.0,0.0,1.0,-3.40934316406,4.77403840261,-8.78193168945,1.0,0.0,0.0,0.0,1.0,0.0,0.0,0.0,1.0
1463563132663258643,481,1463563132660541382,,-26.5182819366,-15.849357605,173.331893921,0.010169999674,1.0,0.0,0.0,0.0,1.0,0.0,0.0,0.0,1.0,-19.3902435303,-22.5609760284,-6.09756088257,1.0,0.0,0.0,0.0,1.0,0.0,0.0,0.0,1.0,-3.38061274414,4.73094218821,-8.63349177105,1.0,0.0,0.0,0.0,1.0,0.0,0.0,0.0,1.0
1463563132681399149,482,1463563132671430998,,-26.78698349,-16.0354251862,173.432617188,0.010053999722,1.0,0.0,0.0,0.0,1.0,0.0,0.0,0.0,1.0,-19.3902435303,-18.9024391174,0.365853667259,1.0,0.0,0.0,0.0,1.0,0.0,0.0,0.0,1.0,-3.50511123047,4.79798041921,-8.46589648579,1.0,0.0,0.0,0.0,1.0,0.0,0.0,0.0,1.0
1463563132692436787,483,1463563132681120553,,-27.069316864,-16.1713829041,173.553039551,0.0100910002366,1.0,0.0,0.0,0.0,1.0,0.0,0.0,0.0,1.0,-20.6097564697,-14.8170728683,4.57317066193,1.0,0.0,0.0,0.0,1.0,0.0,0.0,0.0,1.0,-3.61524450684,4.70700017161,-8.40843564595,1.0,0.0,0.0,0.0,1.0,0.0,0.0,0.0,1.0
1463563132768517536,484,1463563132690906410,,-27.3718471527,-16.2589454651,173.682037354,0.0101690003648,1.0,0.0,0.0,0.0,1.0,0.0,0.0,0.0,1.0,-22.0121955872,-10.7317075729,7.37804937363,1.0,0.0,0.0,0.0,1.0,0.0,0.0,0.0,1.0,-3.71101257324,4.83628735352,-8.48505126812,1.0,0.0,0.0,0.0,1.0,0.0,0.0,0.0,1.0
1463563132768560505,485,1463563132701324564,,-27.6652336121,-16.3107719421,173.798614502,0.0100379996002,1.0,0.0,0.0,0.0,1.0,0.0,0.0,0.0,1.0,-22.3170719147,-6.70731735229,8.47560977936,1.0,0.0,0.0,0.0,1.0,0.0,0.0,0.0,1.0,-3.89297189941,4.82671083914,-8.57124252788,1.0,0.0,0.0,0.0,1.0,0.0,0.0,0.0,1.0
1463563132768596495,486,1463563132711870480,,-27.9539813995,-16.3240890503,173.892333984,0.0100929997861,1.0,0.0,0.0,0.0,1.0,0.0,0.0,0.0,1.0,-22.9878044128,-2.13414645195,8.59756088257,1.0,0.0,0.0,0.0,1.0,0.0,0.0,0.0,1.0,-3.9600095459,4.75488478933,-8.59518454448,1.0,0.0,0.0,0.0,1.0,0.0,0.0,0.0,1.0
1463563132777064582,487,1463563132721980246,,-28.2487640381,-16.3038806915,173.958282471,0.0101730003953,1.0,0.0,0.0,0.0,1.0,0.0,0.0,0.0,1.0,-23.3536586761,2.37804889679,7.74390268326,1.0,0.0,0.0,0.0,1.0,0.0,0.0,0.0,1.0,-4.09408483887,5.01824667969,-8.64306857769,1.0,0.0,0.0,0.0,1.0,0.0,0.0,0.0,1.0
1463563132777138697,488,1463563132731712874,,-28.5220947266,-16.2533168793,173.981246948,0.0100360000506,1.0,0.0,0.0,0.0,1.0,0.0,0.0,0.0,1.0,-22.3780498505,6.09756088257,5.12195110321,1.0,0.0,0.0,0.0,1.0,0.0,0.0,0.0,1.0,-4.0557776123,5.35822331543,-8.9591026123,1.0,0.0,0.0,0.0,1.0,0.0,0.0,0.0,1.0
1463563132777176197,489,1463563132740985707,,-28.7851238251,-16.1810035706,173.966186523,0.0102249998599,1.0,0.0,0.0,0.0,1.0,0.0,0.0,0.0,1.0,-20.1829280853,9.51219558716,2.37804889679,1.0,0.0,0.0,0.0,1.0,0.0,0.0,0.0,1.0,-4.04141240234,5.81312163086,-8.91600698242,1.0,0.0,0.0,0.0,1.0,0.0,0.0,0.0,1.0
1463563132777211354,490,1463563132751373340,,-29.018907547,-16.0785884857,173.919052124,0.0100229997188,1.0,0.0,0.0,0.0,1.0,0.0,0.0,0.0,1.0,-17.4390239716,13.4146347046,0.670731723309,1.0,0.0,0.0,0.0,1.0,0.0,0.0,0.0,1.0,-4.07014282227,6.33505759277,-9.13627353516,1.0,0.0,0.0,0.0,1.0,0.0,0.0,0.0,1.0
1463563132777247865,491,1463563132761944047,,-29.2098770142,-15.9431524277,173.839645386,0.0101260002702,1.0,0.0,0.0,0.0,1.0,0.0,0.0,0.0,1.0,-13.048781395,17.5000019073,-0.670731723309,1.0,0.0,0.0,0.0,1.0,0.0,0.0,0.0,1.0,-3.95522114258,6.46434448242,-8.95431420898,1.0,0.0,0.0,0.0,1.0,0.0,0.0,0.0,1.0
1463563132777291146,492,1463563132772335170,,-29.3427295685,-15.7589988708,173.729446411,0.0102739995345,1.0,0.0,0.0,0.0,1.0,0.0,0.0,0.0,1.0,-7.43902492523,21.5243911743,-1.64634156227,1.0,0.0,0.0,0.0,1.0,0.0,0.0,0.0,1.0,-3.62482131348,6.63193859863,-8.98304462891,1.0,0.0,0.0,0.0,1.0,0.0,0.0,0.0,1.0
1463563133104668594,493,1463563132782174622,,-29.4153213501,-15.5494804382,173.612014771,0.00986899994314,1.0,0.0,0.0,0.0,1.0,0.0,0.0,0.0,1.0,-1.8902438879,24.3902435303,-1.34146344662,1.0,0.0,0.0,0.0,1.0,0.0,0.0,0.0,1.0,-3.47159240723,6.76122548828,-9.03571706543,1.0,0.0,0.0,0.0,1.0,0.0,0.0,0.0,1.0
1463563133104734011,494,1463563132792790225,,-29.4200592041,-15.2935428619,173.475723267,0.0101290000603,1.0,0.0,0.0,0.0,1.0,0.0,0.0,0.0,1.0,4.57317066193,27.4390258789,-1.2804877758,1.0,0.0,0.0,0.0,1.0,0.0,0.0,0.0,1.0,-3.22738383789,6.95755002441,-9.31823227681,1.0,0.0,0.0,0.0,1.0,0.0,0.0,0.0,1.0
1463563133104784012,495,1463563132802311862,,-29.3797988892,-15.0157299042,173.342834473,0.010153000243,1.0,0.0,0.0,0.0,1.0,0.0,0.0,0.0,1.0,10.2439022064,29.5731697083,-0.0,1.0,0.0,0.0,0.0,1.0,0.0,0.0,0.0,1.0,-3.23696064453,7.1203557373,-9.13627353516,1.0,0.0,0.0,0.0,1.0,0.0,0.0,0.0,1.0
1463563133105063128,496,1463563132812531317,,-29.2829608917,-14.6964769363,173.214782715,0.0100309997797,1.0,0.0,0.0,0.0,1.0,0.0,0.0,0.0,1.0,16.8292694092,32.6219520569,1.8292683363,1.0,0.0,0.0,0.0,1.0,0.0,0.0,0.0,1.0,-2.96881005859,7.22091220703,-9.03092866211,1.0,0.0,0.0,0.0,1.0,0.0,0.0,0.0,1.0
1463563133105380943,497,1463563132822426915,,-29.1219806671,-14.35176754,173.108612061,0.0100859999657,1.0,0.0,0.0,0.0,1.0,0.0,0.0,0.0,1.0,24.1463432312,33.7195129395,4.75609779358,1.0,0.0,0.0,0.0,1.0,0.0,0.0,0.0,1.0,-2.8060043457,7.0006456543,-8.66701059429,1.0,0.0,0.0,0.0,1.0,0.0,0.0,0.0,1.0
1463563133105720946,498,1463563132832719495,,-28.9012908936,-13.9574022293,173.009368896,0.0101129999384,1.0,0.0,0.0,0.0,1.0,0.0,0.0,0.0,1.0,29.8170719147,36.4024391174,7.07317113876,1.0,0.0,0.0,0.0,1.0,0.0,0.0,0.0,1.0,-2.54743056641,7.11556733398,-9.03571706543,1.0,0.0,0.0,0.0,1.0,0.0,0.0,0.0,1.0
1463563133106049542,499,1463563132843020409,,-28.6194210052,-13.5369644165,172.934204102,0.0100910002366,1.0,0.0,0.0,0.0,1.0,0.0,0.0,0.0,1.0,36.6463432312,38.0487823486,10.4268293381,1.0,0.0,0.0,0.0,1.0,0.0,0.0,0.0,1.0,-2.60010300293,7.21133540039,-9.20331118164,1.0,0.0,0.0,0.0,1.0,0.0,0.0,0.0,1.0
1463563133106536265,500,1463563132853471011,,-28.272562027,-13.0633363724,172.884429932,0.0104729998857,1.0,0.0,0.0,0.0,1.0,0.0,0.0,0.0,1.0,43.1707305908,39.5731735229,13.841463089,1.0,0.0,0.0,0.0,1.0,0.0,0.0,0.0,1.0,-2.37983659633,7.24485422363,-9.1219083252,1.0,0.0,0.0,0.0,1.0,0.0,0.0,0.0,1.0
1463563133106595484,501,1463563132862995720,,-27.8741455078,-12.5912208557,172.860534668,0.00981900002807,1.0,0.0,0.0,0.0,1.0,0.0,0.0,0.0,1.0,50.4878082275,40.7317085266,16.9512195587,1.0,0.0,0.0,0.0,1.0,0.0,0.0,0.0,1.0,-2.21224233398,7.0485296875,-9.24640681152,1.0,0.0,0.0,0.0,1.0,0.0,0.0,0.0,1.0
1463563133106635745,502,1463563132873172831,,-27.3984355927,-12.0781440735,172.862533569,0.010216999799,1.0,0.0,0.0,0.0,1.0,0.0,0.0,0.0,1.0,57.6219482422,41.5853652954,19.817073822,1.0,0.0,0.0,0.0,1.0,0.0,0.0,0.0,1.0,-2.07337849156,6.96712683105,-9.08360109863,1.0,0.0,0.0,0.0,1.0,0.0,0.0,0.0,1.0
1463563133106990435,503,1463563132882291860,,-26.8731460571,-11.5615406036,172.887878418,0.00989400036633,1.0,0.0,0.0,0.0,1.0,0.0,0.0,0.0,1.0,63.7195167542,42.1951255798,22.5609760284,1.0,0.0,0.0,0.0,1.0,0.0,0.0,0.0,1.0,-1.9105729248,6.63672700195,-9.13627353516,1.0,0.0,0.0,0.0,1.0,0.0,0.0,0.0,1.0
1463563133107048300,504,1463563132892680119,,-26.2693252563,-11.0191278458,172.94859314,0.0101070003584,1.0,0.0,0.0,0.0,1.0,0.0,0.0,0.0,1.0,70.3658599854,42.0121955872,25.9146347046,1.0,0.0,0.0,0.0,1.0,0.0,0.0,0.0,1.0,-1.75255561523,6.31590397949,-9.10754311523,1.0,0.0,0.0,0.0,1.0,0.0,0.0,0.0,1.0
1463563133107388042,505,1463563132903204471,,-25.6095943451,-10.472281456,173.040649414,0.0100600002334,1.0,0.0,0.0,0.0,1.0,0.0,0.0,0.0,1.0,76.9512252808,40.9756088257,28.2317066193,1.0,0.0,0.0,0.0,1.0,0.0,0.0,0.0,1.0,-1.4844050293,6.12915625,-8.97825622559,1.0,0.0,0.0,0.0,1.0,0.0,0.0,0.0,1.0
1463563133107436428,506,1463563132913532104,,-24.8945941925,-9.93745231628,173.162612915,0.0101330000907,1.0,0.0,0.0,0.0,1.0,0.0,0.0,0.0,1.0,82.5,39.5121955872,30.0609760284,1.0,0.0,0.0,0.0,1.0,0.0,0.0,0.0,1.0,-1.56101948242,6.03817658691,-9.02135185547,1.0,0.0,0.0,0.0,1.0,0.0,0.0,0.0,1.0
1463563133107725389,507,1463563132923524109,,-24.103597641,-9.4206867218,173.298492432,0.0101539995521,1.0,0.0,0.0,0.0,1.0,0.0,0.0,0.0,1.0,88.7195129395,37.9878044128,30.4268321991,1.0,0.0,0.0,0.0,1.0,0.0,0.0,0.0,1.0,-1.51792385254,5.54497104492,-8.95431420898,1.0,0.0,0.0,0.0,1.0,0.0,0.0,0.0,1.0
1463563133108149246,508,1463563132933282675,,-23.261680603,-8.93377971649,173.453536987,0.0101709999144,1.0,0.0,0.0,0.0,1.0,0.0,0.0,0.0,1.0,94.0853652954,36.3414611816,30.975610733,1.0,0.0,0.0,0.0,1.0,0.0,0.0,0.0,1.0,-1.72861359863,5.51145222168,-9.06444748535,1.0,0.0,0.0,0.0,1.0,0.0,0.0,0.0,1.0
1463563133108429821,509,1463563132944193489,,-22.3776226044,-8.47250843048,173.60710144,0.0100020002574,1.0,0.0,0.0,0.0,1.0,0.0,0.0,0.0,1.0,99.0853652954,36.0365867615,30.3658542633,1.0,0.0,0.0,0.0,1.0,0.0,0.0,0.0,1.0,-1.74297880859,5.02782348633,-8.73404765625,1.0,0.0,0.0,0.0,1.0,0.0,0.0,0.0,1.0
1463563133108780762,510,1463563132957270362,,-21.0875434875,-7.86423254013,173.80859375,0.0136000001803,1.0,0.0,0.0,0.0,1.0,0.0,0.0,0.0,1.0,102.621948242,35.0609741211,28.9634151459,1.0,0.0,0.0,0.0,1.0,0.0,0.0,0.0,1.0,-1.53707746582,4.24731403738,-8.63349177105,1.0,0.0,0.0,0.0,1.0,0.0,0.0,0.0,1.0
1463563133109679779,511,1463563132963960830,,-20.4427242279,-7.57505369186,173.906784058,0.00664900010452,1.0,0.0,0.0,0.0,1.0,0.0,0.0,0.0,1.0,103.719512939,34.4512214661,28.0487804413,1.0,0.0,0.0,0.0,1.0,0.0,0.0,0.0,1.0,-1.43173259277,3.85466467285,-8.67658681641,1.0,0.0,0.0,0.0,1.0,0.0,0.0,0.0,1.0
1463563133110043688,512,1463563132973768772,,-19.4613380432,-7.15091466904,174.059402466,0.0100290002301,1.0,0.0,0.0,0.0,1.0,0.0,0.0,0.0,1.0,103.536590576,32.1951217651,27.1951236725,1.0,0.0,0.0,0.0,1.0,0.0,0.0,0.0,1.0,-1.11569797363,3.50989963379,-8.58560773784,1.0,0.0,0.0,0.0,1.0,0.0,0.0,0.0,1.0
1463563133110304836,513,1463563132983609786,,-18.4464130402,-6.73931837082,174.205093384,0.0101899998263,1.0,0.0,0.0,0.0,1.0,0.0,0.0,0.0,1.0,102.865859985,30.975610733,25.3658542633,1.0,0.0,0.0,0.0,1.0,0.0,0.0,0.0,1.0,-0.981622680664,2.88261879883,-8.3749168227,1.0,0.0,0.0,0.0,1.0,0.0,0.0,0.0,1.0
1463563133110531244,514,1463563132993297934,,-17.4625663757,-6.36092805862,174.345413208,0.0100119998679,1.0,0.0,0.0,0.0,1.0,0.0,0.0,0.0,1.0,101.097557068,28.9024410248,23.7195129395,1.0,0.0,0.0,0.0,1.0,0.0,0.0,0.0,1.0,-0.928950244141,2.78685073242,-8.75320126953,1.0,0.0,0.0,0.0,1.0,0.0,0.0,0.0,1.0
1463563133110573223,515,1463563133006718976,,-16.2544193268,-5.94361257553,174.480377197,0.0125320004299,1.0,0.0,0.0,0.0,1.0,0.0,0.0,0.0,1.0,98.841468811,27.0731716156,19.0853652954,1.0,0.0,0.0,0.0,1.0,0.0,0.0,0.0,1.0,-1.0534486574,2.64798703613,-8.8154505127,1.0,0.0,0.0,0.0,1.0,0.0,0.0,0.0,1.0
1463563133116649885,516,1463563133013782469,,-15.5218687057,-5.70795059204,174.553863525,0.00767500000075,1.0,0.0,0.0,0.0,1.0,0.0,0.0,0.0,1.0,97.1951217651,26.5853652954,17.1951217651,1.0,0.0,0.0,0.0,1.0,0.0,0.0,0.0,1.0,-1.20667770978,2.35589428746,-8.80108530273,1.0,0.0,0.0,0.0,1.0,0.0,0.0,0.0,1.0
1463563133116992128,517,1463563133024173227,,-14.5691404343,-5.40697193146,174.623168945,0.010095000267,1.0,0.0,0.0,0.0,1.0,0.0,0.0,0.0,1.0,92.6829299927,27.0731716156,14.3902444839,1.0,0.0,0.0,0.0,1.0,0.0,0.0,0.0,1.0,-1.25935007324,1.76213242187,-9.04050546875,1.0,0.0,0.0,0.0,1.0,0.0,0.0,0.0,1.0
1463563133117377183,518,1463563133033644290,,-13.6454610825,-5.10580158234,174.670196533,0.0100800003856,1.0,0.0,0.0,0.0,1.0,0.0,0.0,0.0,1.0,87.134147644,27.0731716156,11.8292684555,1.0,0.0,0.0,0.0,1.0,0.0,0.0,0.0,1.0,-1.04866025408,1.16837033709,-8.9351605957,1.0,0.0,0.0,0.0,1.0,0.0,0.0,0.0,1.0
1463563133117430516,519,1463563133043951506,,-12.7954473495,-4.80734157562,174.704650879,0.0101020000875,1.0,0.0,0.0,0.0,1.0,0.0,0.0,0.0,1.0,78.5975570679,26.158536911,9.87804889679,1.0,0.0,0.0,0.0,1.0,0.0,0.0,0.0,1.0,-0.852335791016,0.909796630859,-9.27513723145,1.0,0.0,0.0,0.0,1.0,0.0,0.0,0.0,1.0
1463563133117803280,520,1463563133054272420,,-12.035943985,-4.52038192749,174.736053467,0.0101220002398,1.0,0.0,0.0,0.0,1.0,0.0,0.0,0.0,1.0,70.6097564697,24.3902435303,8.59756088257,1.0,0.0,0.0,0.0,1.0,0.0,0.0,0.0,1.0,-0.651222851562,0.952892260742,-9.11711992188,1.0,0.0,0.0,0.0,1.0,0.0,0.0,0.0,1.0
1463563133117851041,521,1463563133064011454,,-11.3348875046,-4.25742197037,174.755874634,0.0100710000843,1.0,0.0,0.0,0.0,1.0,0.0,0.0,0.0,1.0,64.5731735229,21.9512195587,6.58536624908,1.0,0.0,0.0,0.0,1.0,0.0,0.0,0.0,1.0,-0.507570751953,0.751779321289,-9.16021555176,1.0,0.0,0.0,0.0,1.0,0.0,0.0,0.0,1.0
1463563133118125834,522,1463563133074383618,,-10.6964902878,-4.02821159363,174.765396118,0.0101300003007,1.0,0.0,0.0,0.0,1.0,0.0,0.0,0.0,1.0,57.134147644,19.5731716156,4.81707286835,1.0,0.0,0.0,0.0,1.0,0.0,0.0,0.0,1.0,-0.60812722168,0.526724328702,-9.44273076313,1.0,0.0,0.0,0.0,1.0,0.0,0.0,0.0,1.0
1463563133118434118,523,1463563133084120361,,-10.1058635712,-3.81635975838,174.766464233,0.0100910002366,1.0,0.0,0.0,0.0,1.0,0.0,0.0,0.0,1.0,50.8536605835,17.6829280853,3.47560977936,1.0,0.0,0.0,0.0,1.0,0.0,0.0,0.0,1.0,-0.483628735352,0.129286889648,-9.41400034321,1.0,0.0,0.0,0.0,1.0,0.0,0.0,0.0,1.0
1463563133118921466,524,1463563133095499095,,-9.605427742,-3.6367380619,174.768081665,0.0101349996403,1.0,0.0,0.0,0.0,1.0,0.0,0.0,0.0,1.0,42.134147644,15.0000009537,2.80487799644,1.0,0.0,0.0,0.0,1.0,0.0,0.0,0.0,1.0,-0.536301208408,0.105344873047,-9.45230756977,1.0,0.0,0.0,0.0,1.0,0.0,0.0,0.0,1.0
1463563133118969851,525,1463563133105073597,,-9.19174289703,-3.47950649261,174.754058838,0.0100819999352,1.0,0.0,0.0,0.0,1.0,0.0,0.0,0.0,1.0,35.7317085266,13.3536586761,0.670731723309,1.0,0.0,0.0,0.0,1.0,0.0,0.0,0.0,1.0,-0.555454785156,0.383072265625,-9.81143840332,1.0,0.0,0.0,0.0,1.0,0.0,0.0,0.0,1.0
1463563133119378865,526,1463563133115036123,,-8.80278205872,-3.35334587097,174.704437256,0.0101300003007,1.0,0.0,0.0,0.0,1.0,0.0,0.0,0.0,1.0,32.317073822,11.1585359573,-3.29268312454,1.0,0.0,0.0,0.0,1.0,0.0,0.0,0.0,1.0,-0.588973571866,0.210689746094,-9.79707319336,1.0,0.0,0.0,0.0,1.0,0.0,0.0,0.0,1.0
1463563133465922556,527,1463563133125547351,,-8.47487831116,-3.2505440712,174.620697021,0.0100710000843,1.0,0.0,0.0,0.0,1.0,0.0,0.0,0.0,1.0,27.5,9.5731716156,-7.13414621353,1.0,0.0,0.0,0.0,1.0,0.0,0.0,0.0,1.0,-0.588973571866,0.354341845703,-9.75397756348,1.0,0.0,0.0,0.0,1.0,0.0,0.0,0.0,1.0
1463563133466260215,528,1463563133134972684,,-8.20874977112,-3.16761612892,174.511932373,0.0100880004466,1.0,0.0,0.0,0.0,1.0,0.0,0.0,0.0,1.0,24.2682933807,7.74390268326,-10.1219511032,1.0,0.0,0.0,0.0,1.0,0.0,0.0,0.0,1.0,-0.541089611728,0.837970581055,-9.80186159668,1.0,0.0,0.0,0.0,1.0,0.0,0.0,0.0,1.0
1463563133466600113,529,1463563133145446829,,-7.9607219696,-3.11443257332,174.362304688,0.0101239997894,1.0,0.0,0.0,0.0,1.0,0.0,0.0,0.0,1.0,22.9878044128,6.09756088257,-14.4512205124,1.0,0.0,0.0,0.0,1.0,0.0,0.0,0.0,1.0,-0.679953271484,0.957680664062,-10.0556469727,1.0,0.0,0.0,0.0,1.0,0.0,0.0,0.0,1.0
1463563133466949856,530,1463563133155384354,,-7.7285823822,-3.08885669708,174.177932739,0.0100819999352,1.0,0.0,0.0,0.0,1.0,0.0,0.0,0.0,1.0,21.8292694092,4.57317066193,-18.2317085266,1.0,0.0,0.0,0.0,1.0,0.0,0.0,0.0,1.0,-0.804451757813,1.00077629395,-10.0412817627,1.0,0.0,0.0,0.0,1.0,0.0,0.0,0.0,1.0
1463563133467251733,531,1463563133164893126,,-7.51165485382,-3.0842397213,173.950027466,0.0100889997557,1.0,0.0,0.0,0.0,1.0,0.0,0.0,0.0,1.0,20.4878044128,3.7804877758,-22.682926178,1.0,0.0,0.0,0.0,1.0,0.0,0.0,0.0,1.0,-0.957680664062,1.0534486574,-10.2423947021,1.0,0.0,0.0,0.0,1.0,0.0,0.0,0.0,1.0
1463563133467546006,532,1463563133175556751,,-7.29569864273,-3.09716868401,173.677597046,0.0101290000603,1.0,0.0,0.0,0.0,1.0,0.0,0.0,0.0,1.0,19.6951236725,2.62195134163,-27.1341457367,1.0,0.0,0.0,0.0,1.0,0.0,0.0,0.0,1.0,-0.976834277344,0.948103857422,-10.2807019287,1.0,0.0,0.0,0.0,1.0,0.0,0.0,0.0,1.0
1463563133467854186,533,1463563133185816362,,-7.1073589325,-3.1084151268,173.361053467,0.010169999674,1.0,0.0,0.0,0.0,1.0,0.0,0.0,0.0,1.0,18.0487823486,2.5,-31.4634151459,1.0,0.0,0.0,0.0,1.0,0.0,0.0,0.0,1.0,-0.847547387695,1.16837033709,-10.3094323486,1.0,0.0,0.0,0.0,1.0,0.0,0.0,0.0,1.0
1463563133468224189,534,1463563133195958524,,-6.94211769104,-3.13194084167,173.025588989,0.0100199999288,1.0,0.0,0.0,0.0,1.0,0.0,0.0,0.0,1.0,16.8902435303,1.76829278469,-33.9634132385,1.0,0.0,0.0,0.0,1.0,0.0,0.0,0.0,1.0,-0.905008227539,1.31681091309,-10.2807019287,1.0,0.0,0.0,0.0,1.0,0.0,0.0,0.0,1.0
1463563133468539087,535,1463563133206062562,,-6.78516292572,-3.16221380234,172.66418457,0.0101159997284,1.0,0.0,0.0,0.0,1.0,0.0,0.0,0.0,1.0,16.2804889679,1.40243899822,-36.2804908752,1.0,0.0,0.0,0.0,1.0,0.0,0.0,0.0,1.0,-0.92416184082,1.37427175293,-10.2376062988,1.0,0.0,0.0,0.0,1.0,0.0,0.0,0.0,1.0
1463563133468862423,536,1463563133215624667,,-6.62856960297,-3.19092059135,172.29107666,0.0100790001452,1.0,0.0,0.0,0.0,1.0,0.0,0.0,0.0,1.0,16.2195110321,1.46341466904,-37.5609779358,1.0,0.0,0.0,0.0,1.0,0.0,0.0,0.0,1.0,-0.909796630859,1.35511813965,-10.299855542,1.0,0.0,0.0,0.0,1.0,0.0,0.0,0.0,1.0
1463563133470597280,537,1463563133225595995,,-6.46973514557,-3.22577404976,171.900985718,0.0100870002061,1.0,0.0,0.0,0.0,1.0,0.0,0.0,0.0,1.0,16.2804889679,1.46341466904,-39.2073173523,1.0,0.0,0.0,0.0,1.0,0.0,0.0,0.0,1.0,-1.03429511719,1.35032973633,-10.539275708,1.0,0.0,0.0,0.0,1.0,0.0,0.0,0.0,1.0
1463563133470968429,538,1463563133236250297,,-6.31275367737,-3.23892688751,171.498840332,0.0101640000939,1.0,0.0,0.0,0.0,1.0,0.0,0.0,0.0,1.0,16.6463413239,3.23170733452,-39.9390258789,1.0,0.0,0.0,0.0,1.0,0.0,0.0,0.0,1.0,-0.957680664062,1.44130939941,-10.405200415,1.0,0.0,0.0,0.0,1.0,0.0,0.0,0.0,1.0
1463563133471222389,539,1463563133246024123,,-6.14549636841,-3.24397802353,171.092010498,0.0100929997861,1.0,0.0,0.0,0.0,1.0,0.0,0.0,0.0,1.0,16.8902435303,4.02439022064,-40.5487823486,1.0,0.0,0.0,0.0,1.0,0.0,0.0,0.0,1.0,-0.972045874023,1.26413847656,-10.4770264648,1.0,0.0,0.0,0.0,1.0,0.0,0.0,0.0,1.0
1463563133471499891,540,1463563133256508111,,-5.97309494019,-3.23497796059,170.686843872,0.0100760003552,1.0,0.0,0.0,0.0,1.0,0.0,0.0,0.0,1.0,16.7073173523,5.06097555161,-40.3048782349,1.0,0.0,0.0,0.0,1.0,0.0,0.0,0.0,1.0,-0.91458503418,1.07739082014,-10.299855542,1.0,0.0,0.0,0.0,1.0,0.0,0.0,0.0,1.0
1463563133471768643,541,1463563133266572408,,-5.8124628067,-3.19968771935,170.27897644,0.0101020000875,1.0,0.0,0.0,0.0,1.0,0.0,0.0,0.0,1.0,15.7317075729,6.28048801422,-40.3658561707,1.0,0.0,0.0,0.0,1.0,0.0,0.0,0.0,1.0,-0.689530078125,1.10612116699,-10.4722380615,1.0,0.0,0.0,0.0,1.0,0.0,0.0,0.0,1.0
1463563133472114688,542,1463563133276484725,,-5.6646604538,-3.15688657761,169.875015259,0.0100859999657,1.0,0.0,0.0,0.0,1.0,0.0,0.0,0.0,1.0,14.6341466904,6.89024400711,-40.0,1.0,0.0,0.0,0.0,1.0,0.0,0.0,0.0,1.0,-0.665588061523,1.06781401349,-10.2040874756,1.0,0.0,0.0,0.0,1.0,0.0,0.0,0.0,1.0
1463563133472457919,543,1463563133286161363,,-5.53274011612,-3.10329723358,169.469985962,0.010095000267,1.0,0.0,0.0,0.0,1.0,0.0,0.0,0.0,1.0,13.1707324982,7.19512224197,-40.0609741211,1.0,0.0,0.0,0.0,1.0,0.0,0.0,0.0,1.0,-0.550666381836,1.08696755371,-10.4818148682,1.0,0.0,0.0,0.0,1.0,0.0,0.0,0.0,1.0
1463563133480496055,544,1463563133297173480,,-5.38829469681,-3.04371881485,169.050476074,0.0105760004371,1.0,0.0,0.0,0.0,1.0,0.0,0.0,0.0,1.0,12.0121955872,7.92682981491,-39.4512214661,1.0,0.0,0.0,0.0,1.0,0.0,0.0,0.0,1.0,-0.641646044922,0.723048901367,-10.4674496582,1.0,0.0,0.0,0.0,1.0,0.0,0.0,0.0,1.0
1463563133480924548,545,1463563133307019963,,-5.26700162888,-2.97641301155,168.66557312,0.00963800027966,1.0,0.0,0.0,0.0,1.0,0.0,0.0,0.0,1.0,9.75609779358,8.35365867615,-39.634147644,1.0,0.0,0.0,0.0,1.0,0.0,0.0,0.0,1.0,-0.469263525391,0.469263525391,-10.4147772217,1.0,0.0,0.0,0.0,1.0,0.0,0.0,0.0,1.0
1463563133481293249,546,1463563133317060771,,-5.17148160934,-2.90171980858,168.266326904,0.0101269995794,1.0,0.0,0.0,0.0,1.0,0.0,0.0,0.0,1.0,7.37804937363,8.71951198578,-39.1463432312,1.0,0.0,0.0,0.0,1.0,0.0,0.0,0.0,1.0,-0.488417138672,0.593762048251,-10.7260234375,1.0,0.0,0.0,0.0,1.0,0.0,0.0,0.0,1.0
1463563133481591584,547,1463563133327321423,,-5.08171319962,-2.81814646721,167.863540649,0.0100929997861,1.0,0.0,0.0,0.0,1.0,0.0,0.0,0.0,1.0,6.21951246262,8.47560977936,-39.634147644,1.0,0.0,0.0,0.0,1.0,0.0,0.0,0.0,1.0,-0.258573779297,0.450109912109,-10.6685625977,1.0,0.0,0.0,0.0,1.0,0.0,0.0,0.0,1.0
1463563133481935806,548,1463563133336940821,,-5.00305604935,-2.73891878128,167.460769653,0.0100659998134,1.0,0.0,0.0,0.0,1.0,0.0,0.0,0.0,1.0,5.06097555161,8.41463470459,-39.7560997009,1.0,0.0,0.0,0.0,1.0,0.0,0.0,0.0,1.0,-0.316034619141,0.407014282227,-10.6206785645,1.0,0.0,0.0,0.0,1.0,0.0,0.0,0.0,1.0
1463563133482294663,549,1463563133347061994,,-4.92631196976,-2.65601205826,167.046386719,0.0101239997894,1.0,0.0,0.0,0.0,1.0,0.0,0.0,0.0,1.0,3.96341490746,8.10975551605,-40.6707344055,1.0,0.0,0.0,0.0,1.0,0.0,0.0,0.0,1.0,-0.177170922852,0.225054956055,-10.4961800781,1.0,0.0,0.0,0.0,1.0,0.0,0.0,0.0,1.0
1463563133482655603,550,1463563133357589576,,-4.86740541458,-2.57800602913,166.625228882,0.0101049998775,1.0,0.0,0.0,0.0,1.0,0.0,0.0,0.0,1.0,2.68292689323,7.98780536652,-41.4634170532,1.0,0.0,0.0,0.0,1.0,0.0,0.0,0.0,1.0,-0.225054956055,0.296881024126,-10.5919481445,1.0,0.0,0.0,0.0,1.0,0.0,0.0,0.0,1.0
1463563133482929459,551,1463563133367576737,,-4.792552948,-2.49578142166,166.195419312,0.0102089997381,1.0,0.0,0.0,0.0,1.0,0.0,0.0,0.0,1.0,2.43902444839,7.86585378647,-41.8292694092,1.0,0.0,0.0,0.0,1.0,0.0,0.0,0.0,1.0,-0.124498486328,-0.0478840332031,-10.3573163818,1.0,0.0,0.0,0.0,1.0,0.0,0.0,0.0,1.0
1463563133483287952,552,1463563133377755358,,-4.73237371445,-2.42634868622,165.77130127,0.00999699998647,1.0,0.0,0.0,0.0,1.0,0.0,0.0,0.0,1.0,0.731707334518,7.31707334518,-42.1951255798,1.0,0.0,0.0,0.0,1.0,0.0,0.0,0.0,1.0,-0.210689746094,-0.138863696289,-10.1322614258,1.0,0.0,0.0,0.0,1.0,0.0,0.0,0.0,1.0
1463563133483623319,553,1463563133387589185,,-4.67771673203,-2.34913349152,165.333084106,0.010095000267,1.0,0.0,0.0,0.0,1.0,0.0,0.0,0.0,1.0,-1.64634156227,7.37804937363,-43.1097564697,1.0,0.0,0.0,0.0,1.0,0.0,0.0,0.0,1.0,-0.076614453125,-0.474051928711,-10.2040874756,1.0,0.0,0.0,0.0,1.0,0.0,0.0,0.0,1.0
1463563133487287306,554,1463563133397341084,,-4.65318870544,-2.27904295921,164.879760742,0.0100919995457,1.0,0.0,0.0,0.0,1.0,0.0,0.0,0.0,1.0,-5.18292713165,7.07317113876,-44.6341438293,1.0,0.0,0.0,0.0,1.0,0.0,0.0,0.0,1.0,-0.119710083008,-0.593762048251,-10.3956236084,1.0,0.0,0.0,0.0,1.0,0.0,0.0,0.0,1.0
1463563133487654288,555,1463563133407425902,,-4.68132781982,-2.20144915581,164.408462524,0.0100899999961,1.0,0.0,0.0,0.0,1.0,0.0,0.0,0.0,1.0,-8.41463470459,6.89024400711,-46.5243911743,1.0,0.0,0.0,0.0,1.0,0.0,0.0,0.0,1.0,0.0909796630859,-0.229843359375,-10.5057568848,1.0,0.0,0.0,0.0,1.0,0.0,0.0,0.0,1.0
1463563133487996009,556,1463563133417741191,,-4.74201393127,-2.14325690269,163.910049438,0.0101330000907,1.0,0.0,0.0,0.0,1.0,0.0,0.0,0.0,1.0,-10.9146347046,6.21951246262,-49.0853652954,1.0,0.0,0.0,0.0,1.0,0.0,0.0,0.0,1.0,-0.0861912597656,-0.0861912597656,-10.4435076416,1.0,0.0,0.0,0.0,1.0,0.0,0.0,0.0,1.0
1463563133488343564,557,1463563133427644445,,-4.81197881699,-2.08000230789,163.381744385,0.0100649995729,1.0,0.0,0.0,0.0,1.0,0.0,0.0,0.0,1.0,-11.9512195587,6.21951246262,-52.3780517578,1.0,0.0,0.0,0.0,1.0,0.0,0.0,0.0,1.0,0.0861912597656,-0.076614453125,-10.5680061279,1.0,0.0,0.0,0.0,1.0,0.0,0.0,0.0,1.0
1463563133488613983,558,1463563133438064474,,-4.89745569229,-2.012560606,162.822479248,0.0101939998567,1.0,0.0,0.0,0.0,1.0,0.0,0.0,0.0,1.0,-14.1463422775,6.52439069748,-54.6951217651,1.0,0.0,0.0,0.0,1.0,0.0,0.0,0.0,1.0,0.15322890625,-0.201112939453,-10.553640918,1.0,0.0,0.0,0.0,1.0,0.0,0.0,0.0,1.0
1463563133488891433,559,1463563133447931999,,-5.01041269302,-1.96102452278,162.251663208,0.0100469999015,1.0,0.0,0.0,0.0,1.0,0.0,0.0,0.0,1.0,-17.0731716156,5.79268312454,-56.7073173523,1.0,0.0,0.0,0.0,1.0,0.0,0.0,0.0,1.0,0.076614453125,-0.201112939453,-10.8457335205,1.0,0.0,0.0,0.0,1.0,0.0,0.0,0.0,1.0
1463563133489174821,560,1463563133458409893,,-5.15534162521,-1.92421686649,161.655822754,0.0100929997861,1.0,0.0,0.0,0.0,1.0,0.0,0.0,0.0,1.0,-19.3902435303,5.67073154449,-58.9634132385,1.0,0.0,0.0,0.0,1.0,0.0,0.0,0.0,1.0,-0.110133276367,-0.0191536132812,-10.6637741943,1.0,0.0,0.0,0.0,1.0,0.0,0.0,0.0,1.0
1463563133489679720,561,1463563133468591796,,-5.31236839294,-1.88298416138,161.037811279,0.0101039996371,1.0,0.0,0.0,0.0,1.0,0.0,0.0,0.0,1.0,-20.1219520569,6.40243911743,-61.0365905762,1.0,0.0,0.0,0.0,1.0,0.0,0.0,0.0,1.0,-0.0957680664062,0.100556469727,-10.8505219238,1.0,0.0,0.0,0.0,1.0,0.0,0.0,0.0,1.0
1463563133597434779,562,1463563133488373564,,-5.46088266373,-1.83948898315,160.371948242,0.0101979998872,1.0,0.0,0.0,0.0,1.0,0.0,0.0,0.0,1.0,-18.7804889679,8.23170757294,-65.0,1.0,0.0,0.0,0.0,1.0,0.0,0.0,0.0,1.0,-0.296881024126,0.215478149414,-10.778695874,1.0,0.0,0.0,0.0,1.0,0.0,0.0,0.0,1.0
1463563133597634208,563,1463563133495389817,,-5.62891244888,-1.78554928303,159.567993164,0.0121280001476,1.0,0.0,0.0,0.0,1.0,0.0,0.0,0.0,1.0,-18.2926826477,8.90243911743,-65.9146347046,1.0,0.0,0.0,0.0,1.0,0.0,0.0,0.0,1.0,-0.320823022461,0.191536132812,-10.4866032715,1.0,0.0,0.0,0.0,1.0,0.0,0.0,0.0,1.0
1463563133600951369,564,1463563133498853698,,-5.74140262604,-1.75193619728,158.993667603,0.00861500017345,1.0,0.0,0.0,0.0,1.0,0.0,0.0,0.0,1.0,-17.317073822,9.02439117432,-66.2804946899,1.0,0.0,0.0,0.0,1.0,0.0,0.0,0.0,1.0,-0.407014282227,0.253785375977,-10.7260234375,1.0,0.0,0.0,0.0,1.0,0.0,0.0,0.0,1.0
1463563133601048193,565,1463563133508695285,,-5.86453771591,-1.69623160362,158.334381104,0.00945100001991,1.0,0.0,0.0,0.0,1.0,0.0,0.0,0.0,1.0,-15.6097564697,10.4878053665,-69.2682952881,1.0,0.0,0.0,0.0,1.0,0.0,0.0,0.0,1.0,-0.215478149414,0.598550451572,-10.6685625977,1.0,0.0,0.0,0.0,1.0,0.0,0.0,0.0,1.0
1463563133601115433,566,1463563133519254743,,-5.94603204727,-1.62410330772,157.593414307,0.0100929997861,1.0,0.0,0.0,0.0,1.0,0.0,0.0,0.0,1.0,-12.3170728683,11.7073173523,-72.7439041138,1.0,0.0,0.0,0.0,1.0,0.0,0.0,0.0,1.0,-0.105344873047,0.31124621582,-10.6158901611,1.0,0.0,0.0,0.0,1.0,0.0,0.0,0.0,1.0
1463563133627678244,567,1463563133528993569,,-6.02383565903,-1.54805016518,156.802749634,0.0103390002623,1.0,0.0,0.0,0.0,1.0,0.0,0.0,0.0,1.0,-13.5975618362,12.4390249252,-75.6707305908,1.0,0.0,0.0,0.0,1.0,0.0,0.0,0.0,1.0,-0.110133276367,-0.0191536132812,-10.4770264648,1.0,0.0,0.0,0.0,1.0,0.0,0.0,0.0,1.0
1463563133627735276,568,1463563133539985529,,-6.0975022316,-1.47275829315,156.010513306,0.0099950004369,1.0,0.0,0.0,0.0,1.0,0.0,0.0,0.0,1.0,-13.7804880142,12.8048782349,-78.4146347046,1.0,0.0,0.0,0.0,1.0,0.0,0.0,0.0,1.0,-0.0574608398438,-0.0718260498047,-10.3429511719,1.0,0.0,0.0,0.0,1.0,0.0,0.0,0.0,1.0
1463563133627771682,569,1463563133548905390,,-6.1869597435,-1.38574922085,155.19354248,0.0100159998983,1.0,0.0,0.0,0.0,1.0,0.0,0.0,0.0,1.0,-14.4512205124,13.4756097794,-80.6707382202,1.0,0.0,0.0,0.0,1.0,0.0,0.0,0.0,1.0,0.110133276367,0.0957680664062,-10.419565625,1.0,0.0,0.0,0.0,1.0,0.0,0.0,0.0,1.0
1463563133627990434,570,1463563133559651776,,-6.29081630707,-1.30478990078,154.345306396,0.0100619997829,1.0,0.0,0.0,0.0,1.0,0.0,0.0,0.0,1.0,-14.3902444839,13.7195129395,-83.4146347046,1.0,0.0,0.0,0.0,1.0,0.0,0.0,0.0,1.0,0.0430956298828,0.368707055664,-10.3860468018,1.0,0.0,0.0,0.0,1.0,0.0,0.0,0.0,1.0
1463563133628313197,571,1463563133569595760,,-6.39326953888,-1.21269249916,153.474105835,0.0101169999689,1.0,0.0,0.0,0.0,1.0,0.0,0.0,0.0,1.0,-12.6829271317,14.3902444839,-85.1829299927,1.0,0.0,0.0,0.0,1.0,0.0,0.0,0.0,1.0,0.196324536133,0.660799658203,-10.5632177246,1.0,0.0,0.0,0.0,1.0,0.0,0.0,0.0,1.0
1463563133628638199,572,1463563133580323240,,-6.45956945419,-1.11175882816,152.563842773,0.0103029999882,1.0,0.0,0.0,0.0,1.0,0.0,0.0,0.0,1.0,-10.1829271317,15.0609760284,-87.3170776367,1.0,0.0,0.0,0.0,1.0,0.0,0.0,0.0,1.0,0.282515795898,0.430956298828,-10.4004120117,1.0,0.0,0.0,0.0,1.0,0.0,0.0,0.0,1.0
1463563133631065823,573,1463563133589975450,,-6.50154399872,-1.02086651325,151.672775269,0.00991700030863,1.0,0.0,0.0,0.0,1.0,0.0,0.0,0.0,1.0,-8.96341514587,14.7560987473,-88.841468811,1.0,0.0,0.0,0.0,1.0,0.0,0.0,0.0,1.0,0.287304199219,0.239420166016,-10.3860468018,1.0,0.0,0.0,0.0,1.0,0.0,0.0,0.0,1.0
1463563133716857585,574,1463563133600334489,,-6.54091596603,-0.914529442787,150.758132935,0.0100880004466,1.0,0.0,0.0,0.0,1.0,0.0,0.0,0.0,1.0,-8.59756088257,15.0000009537,-89.634147644,1.0,0.0,0.0,0.0,1.0,0.0,0.0,0.0,1.0,0.536301208408,0.225054956055,-10.3046439453,1.0,0.0,0.0,0.0,1.0,0.0,0.0,0.0,1.0
1463563133716897169,575,1463563133609251903,,-6.57282781601,-0.811438381672,149.842407227,0.0100459996611,1.0,0.0,0.0,0.0,1.0,0.0,0.0,0.0,1.0,-7.25609779358,14.6341466904,-90.1829299927,1.0,0.0,0.0,0.0,1.0,0.0,0.0,0.0,1.0,0.593762048251,0.316034619141,-10.3237975586,1.0,0.0,0.0,0.0,1.0,0.0,0.0,0.0,1.0
1463563133716950346,576,1463563133620704231,,-6.58789777756,-0.706461191177,148.91003418,0.0101330000907,1.0,0.0,0.0,0.0,1.0,0.0,0.0,0.0,1.0,-5.0,14.3292694092,-91.0975646973,1.0,0.0,0.0,0.0,1.0,0.0,0.0,0.0,1.0,0.713472094727,0.397437475586,-10.3429511719,1.0,0.0,0.0,0.0,1.0,0.0,0.0,0.0,1.0
1463563133716984826,577,1463563133630432693,,-6.58211612701,-0.610799729824,147.973220825,0.010098000057,1.0,0.0,0.0,0.0,1.0,0.0,0.0,0.0,1.0,-2.56097555161,14.6951217651,-91.8292694092,1.0,0.0,0.0,0.0,1.0,0.0,0.0,0.0,1.0,0.512359155273,0.435744702148,-10.1897222656,1.0,0.0,0.0,0.0,1.0,0.0,0.0,0.0,1.0
1463563133719222708,578,1463563133640869597,,-6.55829906464,-0.505768299103,147.029495239,0.0101250000298,1.0,0.0,0.0,0.0,1.0,0.0,0.0,0.0,1.0,-0.365853667259,14.3902444839,-92.3170776367,1.0,0.0,0.0,0.0,1.0,0.0,0.0,0.0,1.0,0.737414111328,0.469263525391,-9.96945571289,1.0,0.0,0.0,0.0,1.0,0.0,0.0,0.0,1.0
1463563133719278125,579,1463563133650190763,,-6.51176691055,-0.411342084408,146.090011597,0.0100609995425,1.0,0.0,0.0,0.0,1.0,0.0,0.0,0.0,1.0,1.64634156227,14.3902444839,-92.5000076294,1.0,0.0,0.0,0.0,1.0,0.0,0.0,0.0,1.0,0.569819995117,0.387860668945,-9.89284125977,1.0,0.0,0.0,0.0,1.0,0.0,0.0,0.0,1.0
1463563133720986367,580,1463563133661291787,,-6.44833564758,-0.317083984613,145.135925293,0.0101429997012,1.0,0.0,0.0,0.0,1.0,0.0,0.0,0.0,1.0,4.08536577225,15.2439022064,-93.1097564697,1.0,0.0,0.0,0.0,1.0,0.0,0.0,0.0,1.0,0.411802685547,0.488417138672,-9.74440075684,1.0,0.0,0.0,0.0,1.0,0.0,0.0,0.0,1.0
1463563133721046837,581,1463563133670959415,,-6.35537719727,-0.233884364367,144.176223755,0.0101629998535,1.0,0.0,0.0,0.0,1.0,0.0,0.0,0.0,1.0,7.07317113876,15.4268302917,-93.4756088257,1.0,0.0,0.0,0.0,1.0,0.0,0.0,0.0,1.0,0.186747729492,0.45968671875,-9.54807680523,1.0,0.0,0.0,0.0,1.0,0.0,0.0,0.0,1.0
1463563133721091212,582,1463563133681281787,,-6.24115133286,-0.125179544091,143.184616089,0.0103759998456,1.0,0.0,0.0,0.0,1.0,0.0,0.0,0.0,1.0,9.08536529541,17.6219520569,-94.3902511597,1.0,0.0,0.0,0.0,1.0,0.0,0.0,0.0,1.0,0.210689746094,0.450109912109,-9.69651672363,1.0,0.0,0.0,0.0,1.0,0.0,0.0,0.0,1.0
1463563133721858978,583,1463563133690738840,,-6.11418819427,-0.00711983209476,142.249984741,0.00971399992704,1.0,0.0,0.0,0.0,1.0,0.0,0.0,0.0,1.0,9.81707286835,18.7804889679,-94.9390258789,1.0,0.0,0.0,0.0,1.0,0.0,0.0,0.0,1.0,0.292092584273,0.167594116211,-9.60074924175,1.0,0.0,0.0,0.0,1.0,0.0,0.0,0.0,1.0
1463563133721919448,584,1463563133702380962,,-5.98318862915,0.126521453261,141.272964478,0.0101439999416,1.0,0.0,0.0,0.0,1.0,0.0,0.0,0.0,1.0,8.41463470459,19.5121955872,-95.0,1.0,0.0,0.0,0.0,1.0,0.0,0.0,0.0,1.0,0.320823022461,-0.100556469727,-9.44273076313,1.0,0.0,0.0,0.0,1.0,0.0,0.0,0.0,1.0
1463563133722350857,585,1463563133711682701,,-5.88499975204,0.26017794013,140.30027771,0.0101279998198,1.0,0.0,0.0,0.0,1.0,0.0,0.0,0.0,1.0,5.73170757294,20.1829280853,-94.6951293945,1.0,0.0,0.0,0.0,1.0,0.0,0.0,0.0,1.0,0.205901342773,-0.0718260498047,-9.82101520996,1.0,0.0,0.0,0.0,1.0,0.0,0.0,0.0,1.0
1463563133775745232,586,1463563133720584073,,-5.80914020538,0.41958206892,139.334472656,0.0100570004433,1.0,0.0,0.0,0.0,1.0,0.0,0.0,0.0,1.0,3.17073178291,21.0975627899,-94.634147644,1.0,0.0,0.0,0.0,1.0,0.0,0.0,0.0,1.0,0.497993945312,-0.201112939453,-9.67257470703,1.0,0.0,0.0,0.0,1.0,0.0,0.0,0.0,1.0
1463563133775787576,587,1463563133730943528,,-5.77574634552,0.577950954437,138.362579346,0.0100800003856,1.0,0.0,0.0,0.0,1.0,0.0,0.0,0.0,1.0,1.34146344662,20.8536586761,-95.0609817505,1.0,0.0,0.0,0.0,1.0,0.0,0.0,0.0,1.0,0.536301208408,0.15322890625,-9.70130512695,1.0,0.0,0.0,0.0,1.0,0.0,0.0,0.0,1.0
1463563133775836534,588,1463563133742205595,,-5.76318073273,0.74560469389,137.384765625,0.0101229995489,1.0,0.0,0.0,0.0,1.0,0.0,0.0,0.0,1.0,0.18292683363,20.3048782349,-95.3048782349,1.0,0.0,0.0,0.0,1.0,0.0,0.0,0.0,1.0,0.794874951172,0.253785375977,-9.61511445171,1.0,0.0,0.0,0.0,1.0,0.0,0.0,0.0,1.0
1463563133775873983,589,1463563133751600408,,-5.75690078735,0.899628996849,136.41595459,0.0100870002061,1.0,0.0,0.0,0.0,1.0,0.0,0.0,0.0,1.0,-0.792682945728,19.9390239716,-94.8170700073,1.0,0.0,0.0,0.0,1.0,0.0,0.0,0.0,1.0,0.660799658203,0.148440512063,-9.73003554687,1.0,0.0,0.0,0.0,1.0,0.0,0.0,0.0,1.0
1463563133806749119,590,1463563133762566691,,-5.76668596268,1.05197441578,135.443710327,0.0102220000699,1.0,0.0,0.0,0.0,1.0,0.0,0.0,0.0,1.0,-3.23170733452,19.4512195587,-93.9634170532,1.0,0.0,0.0,0.0,1.0,0.0,0.0,0.0,1.0,0.699106884766,-0.0430956298828,-9.81622680664,1.0,0.0,0.0,0.0,1.0,0.0,0.0,0.0,1.0
1463563133806804901,591,1463563133771691294,,-5.87284994125,1.15374433994,134.492202759,0.0100290002301,1.0,0.0,0.0,0.0,1.0,0.0,0.0,0.0,1.0,-7.43902492523,19.2073173523,-93.6585388184,1.0,0.0,0.0,0.0,1.0,0.0,0.0,0.0,1.0,-0.0478840332031,0.900219824219,-10.1562034424,1.0,0.0,0.0,0.0,1.0,0.0,0.0,0.0,1.0
1463563133806848807,592,1463563133782555024,,-5.89152860641,1.31058132648,133.541381836,0.010158999823,1.0,0.0,0.0,0.0,1.0,0.0,0.0,0.0,1.0,-7.13414621353,21.9512195587,-92.2560958862,1.0,0.0,0.0,0.0,1.0,0.0,0.0,0.0,1.0,0.402225878906,-0.612915625,-9.70609353027,1.0,0.0,0.0,0.0,1.0,0.0,0.0,0.0,1.0
1463563133806887870,593,1463563133792190152,,-5.93778181076,1.51389527321,132.596099854,0.0102099999785,1.0,0.0,0.0,0.0,1.0,0.0,0.0,0.0,1.0,-11.1585359573,24.4512195587,-91.0365905762,1.0,0.0,0.0,0.0,1.0,0.0,0.0,0.0,1.0,0.794874951172,-0.933738647461,-10.1609918457,1.0,0.0,0.0,0.0,1.0,0.0,0.0,0.0,1.0
1463563133840346933,594,1463563133805047804,,-6.18783998489,1.83627307415,131.376358032,0.0134739996865,1.0,0.0,0.0,0.0,1.0,0.0,0.0,0.0,1.0,-17.5000019073,24.817073822,-88.7195129395,1.0,0.0,0.0,0.0,1.0,0.0,0.0,0.0,1.0,1.49877023926,0.402225878906,-10.1705686523,1.0,0.0,0.0,0.0,1.0,0.0,0.0,0.0,1.0
1463563133840385840,595,1463563133811336395,,-6.30295848846,1.98621809483,130.795715332,0.00650899996981,1.0,0.0,0.0,0.0,1.0,0.0,0.0,0.0,1.0,-18.9634151459,24.3902435303,-87.5,1.0,0.0,0.0,0.0,1.0,0.0,0.0,0.0,1.0,1.47961662598,-0.0383072265625,-10.046070166,1.0,0.0,0.0,0.0,1.0,0.0,0.0,0.0,1.0
1463563133840424590,596,1463563133821899185,,-6.55381202698,2.20539855957,129.906845093,0.0102159995586,1.0,0.0,0.0,0.0,1.0,0.0,0.0,0.0,1.0,-20.1219520569,22.1341457367,-85.3048782349,1.0,0.0,0.0,0.0,1.0,0.0,0.0,0.0,1.0,1.65678754883,0.981622680664,-10.1274730225,1.0,0.0,0.0,0.0,1.0,0.0,0.0,0.0,1.0
1463563133840624904,597,1463563133832456507,,-6.79633951187,2.40534996986,129.012710571,0.0105839995667,1.0,0.0,0.0,0.0,1.0,0.0,0.0,0.0,1.0,-19.5731716156,20.7317085266,-82.9268341064,1.0,0.0,0.0,0.0,1.0,0.0,0.0,0.0,1.0,1.48919343262,0.785298144531,-10.0843773926,1.0,0.0,0.0,0.0,1.0,0.0,0.0,0.0,1.0
1463563133896504402,598,1463563133842458825,,-7.04176187515,2.56715297699,128.192138672,0.00985599961132,1.0,0.0,0.0,0.0,1.0,0.0,0.0,0.0,1.0,-18.3536586761,18.1707305908,-81.8292770386,1.0,0.0,0.0,0.0,1.0,0.0,0.0,0.0,1.0,1.58974990234,1.37427175293,-10.0891657959,1.0,0.0,0.0,0.0,1.0,0.0,0.0,0.0,1.0
1463563133896566799,599,1463563133852552966,,-7.28800964355,2.70259141922,127.350723267,0.0100849997252,1.0,0.0,0.0,0.0,1.0,0.0,0.0,0.0,1.0,-15.0000009537,15.7926826477,-82.134147644,1.0,0.0,0.0,0.0,1.0,0.0,0.0,0.0,1.0,1.61369191895,1.93930334473,-10.2519715088,1.0,0.0,0.0,0.0,1.0,0.0,0.0,0.0,1.0
1463563133896608361,600,1463563133864272901,,-7.46633529663,2.80067157745,126.541313171,0.00976200029254,1.0,0.0,0.0,0.0,1.0,0.0,0.0,0.0,1.0,-10.1829271317,13.9634151459,-81.8902435303,1.0,0.0,0.0,0.0,1.0,0.0,0.0,0.0,1.0,1.37906015625,1.69030637207,-10.1705686523,1.0,0.0,0.0,0.0,1.0,0.0,0.0,0.0,1.0
1463563133896908364,601,1463563133872785467,,-7.61898708344,2.85479950905,125.670257568,0.0105149997398,1.0,0.0,0.0,0.0,1.0,0.0,0.0,0.0,1.0,-8.65853691101,10.9146347046,-82.3170700073,1.0,0.0,0.0,0.0,1.0,0.0,0.0,0.0,1.0,1.11569797363,1.31202250977,-10.3333743652,1.0,0.0,0.0,0.0,1.0,0.0,0.0,0.0,1.0
1463563133929498045,602,1463563133882479970,,-7.76482391357,2.88083314896,124.869873047,0.00968699995428,1.0,0.0,0.0,0.0,1.0,0.0,0.0,0.0,1.0,-10.3658542633,10.6707315445,-82.1951293945,1.0,0.0,0.0,0.0,1.0,0.0,0.0,0.0,1.0,0.737414111328,1.09654436035,-10.165780249,1.0,0.0,0.0,0.0,1.0,0.0,0.0,0.0,1.0
1463563133929548410,603,1463563133894381990,,-7.8897061348,2.90427994728,124.037780762,0.0101110003889,1.0,0.0,0.0,0.0,1.0,0.0,0.0,0.0,1.0,-12.6219520569,10.1219511032,-82.1951293945,1.0,0.0,0.0,0.0,1.0,0.0,0.0,0.0,1.0,0.804451757813,0.220266552734,-10.2040874756,1.0,0.0,0.0,0.0,1.0,0.0,0.0,0.0,1.0
1463563133930565189,604,1463563133903681385,,-8.06438159943,2.91261100769,123.192192078,0.0100830001757,1.0,0.0,0.0,0.0,1.0,0.0,0.0,0.0,1.0,-14.9390249252,10.8536586761,-83.5365905762,1.0,0.0,0.0,0.0,1.0,0.0,0.0,0.0,1.0,0.474051928711,0.694318481445,-9.99818613281,1.0,0.0,0.0,0.0,1.0,0.0,0.0,0.0,1.0
1463563133933552191,605,1463563133915773302,,-8.35824680328,2.90930604935,122.020881653,0.0134460004047,1.0,0.0,0.0,0.0,1.0,0.0,0.0,0.0,1.0,-13.7195129395,11.6463422775,-86.4024429321,1.0,0.0,0.0,0.0,1.0,0.0,0.0,0.0,1.0,0.287304199219,1.74297880859,-10.0843773926,1.0,0.0,0.0,0.0,1.0,0.0,0.0,0.0,1.0
1463563133993830369,606,1463563133922586168,,-8.51051807404,2.90264177322,121.422798157,0.00677500013262,1.0,0.0,0.0,0.0,1.0,0.0,0.0,0.0,1.0,-11.4024391174,12.3780488968,-87.3170776367,1.0,0.0,0.0,0.0,1.0,0.0,0.0,0.0,1.0,0.110133276367,2.37983659633,-10.2902787354,1.0,0.0,0.0,0.0,1.0,0.0,0.0,0.0,1.0
1463563133994031413,607,1463563133934089851,,-8.68739414215,2.87849402428,120.478981018,0.0102030001581,1.0,0.0,0.0,0.0,1.0,0.0,0.0,0.0,1.0,-4.57317066193,13.7804880142,-91.2804870605,1.0,0.0,0.0,0.0,1.0,0.0,0.0,0.0,1.0,-0.248996972656,2.65756384277,-10.1322614258,1.0,0.0,0.0,0.0,1.0,0.0,0.0,0.0,1.0
1463563133994090371,608,1463563133942906951,,-8.80899143219,2.86355233192,119.518241882,0.0100560002029,1.0,0.0,0.0,0.0,1.0,0.0,0.0,0.0,1.0,0.914634168148,16.158536911,-93.9634170532,1.0,0.0,0.0,0.0,1.0,0.0,0.0,0.0,1.0,-0.411802685547,2.75333190918,-10.2759135254,1.0,0.0,0.0,0.0,1.0,0.0,0.0,0.0,1.0
1463563133994252977,609,1463563133955051213,,-8.86446475983,2.87178230286,118.497535706,0.0101950000972,1.0,0.0,0.0,0.0,1.0,0.0,0.0,0.0,1.0,5.06097555161,18.0487823486,-98.414642334,1.0,0.0,0.0,0.0,1.0,0.0,0.0,0.0,1.0,-0.177170922852,2.29843359375,-10.5009684814,1.0,0.0,0.0,0.0,1.0,0.0,0.0,0.0,1.0
1463563134059837290,610,1463563133962882993,,-8.86690235138,2.89390921593,117.471160889,0.00995500013232,1.0,0.0,0.0,0.0,1.0,0.0,0.0,0.0,1.0,6.15853643417,19.9390239716,-101.341468811,1.0,0.0,0.0,0.0,1.0,0.0,0.0,0.0,1.0,-0.15801730957,1.44609780273,-10.1945106689,1.0,0.0,0.0,0.0,1.0,0.0,0.0,0.0,1.0
1463563134059882603,611,1463563133973485940,,-8.86612796783,2.9486515522,116.396034241,0.0102270003408,1.0,0.0,0.0,0.0,1.0,0.0,0.0,0.0,1.0,2.5,21.0975627899,-103.414634705,1.0,0.0,0.0,0.0,1.0,0.0,0.0,0.0,1.0,0.263362164351,0.694318481445,-10.2615483154,1.0,0.0,0.0,0.0,1.0,0.0,0.0,0.0,1.0
1463563134060157293,612,1463563133985018165,,-8.90674495697,3.01435065269,115.321395874,0.00996300019324,1.0,0.0,0.0,0.0,1.0,0.0,0.0,0.0,1.0,-0.975609779358,19.8780498505,-106.341461182,1.0,0.0,0.0,0.0,1.0,0.0,0.0,0.0,1.0,0.814028564453,0.775721337891,-10.3381627686,1.0,0.0,0.0,0.0,1.0,0.0,0.0,0.0,1.0
1463563134060204220,613,1463563133995924136,,-8.98670959473,3.07349348068,114.207740784,0.0100859999657,1.0,0.0,0.0,0.0,1.0,0.0,0.0,0.0,1.0,-2.98780488968,18.2317085266,-109.085372925,1.0,0.0,0.0,0.0,1.0,0.0,0.0,0.0,1.0,1.08217922346,1.06302561017,-10.2184526855,1.0,0.0,0.0,0.0,1.0,0.0,0.0,0.0,1.0
1463563134060677036,614,1463563134003651956,,-9.06780433655,3.0996658802,113.064331055,0.0101600000635,1.0,0.0,0.0,0.0,1.0,0.0,0.0,0.0,1.0,-1.95121955872,15.3048791885,-111.646347046,1.0,0.0,0.0,0.0,1.0,0.0,0.0,0.0,1.0,1.14921679688,1.26892687988,-10.4435076416,1.0,0.0,0.0,0.0,1.0,0.0,0.0,0.0,1.0
1463563134060741724,615,1463563134013531408,,-9.13968276978,3.09302592278,111.899002075,0.0100830001757,1.0,0.0,0.0,0.0,1.0,0.0,0.0,0.0,1.0,0.914634168148,12.8658542633,-115.000007629,1.0,0.0,0.0,0.0,1.0,0.0,0.0,0.0,1.0,1.10133276367,1.58496149902,-10.1562034424,1.0,0.0,0.0,0.0,1.0,0.0,0.0,0.0,1.0
1463563134061582616,616,1463563134023457215,,-9.17643165588,3.04211568832,110.714408875,0.0101009998471,1.0,0.0,0.0,0.0,1.0,0.0,0.0,0.0,1.0,4.2682929039,9.69512176514,-117.256103516,1.0,0.0,0.0,0.0,1.0,0.0,0.0,0.0,1.0,0.952892260742,1.56101948242,-10.1226846191,1.0,0.0,0.0,0.0,1.0,0.0,0.0,0.0,1.0
1463563134062150537,617,1463563134033585106,,-9.17894363403,2.9618294239,109.520530701,0.0100710000843,1.0,0.0,0.0,0.0,1.0,0.0,0.0,0.0,1.0,6.7682929039,7.43902492523,-118.963417053,1.0,0.0,0.0,0.0,1.0,0.0,0.0,0.0,1.0,0.876277807617,1.42694418945,-10.1945106689,1.0,0.0,0.0,0.0,1.0,0.0,0.0,0.0,1.0
1463563134461640266,618,1463563134045535877,,-9.14733028412,2.84536337852,108.251449585,0.0106250001118,1.0,0.0,0.0,0.0,1.0,0.0,0.0,0.0,1.0,8.78048801422,5.18292713165,-120.304878235,1.0,0.0,0.0,0.0,1.0,0.0,0.0,0.0,1.0,0.737414111328,1.20667770978,-9.97424411621,1.0,0.0,0.0,0.0,1.0,0.0,0.0,0.0,1.0
1463563134461725840,619,1463563134053822139,,-9.1065196991,2.72387075424,107.11013031,0.00962799973786,1.0,0.0,0.0,0.0,1.0,0.0,0.0,0.0,1.0,9.63414573669,3.41463422775,-119.695121765,1.0,0.0,0.0,0.0,1.0,0.0,0.0,0.0,1.0,0.708683691406,1.19231249982,-10.0795889893,1.0,0.0,0.0,0.0,1.0,0.0,0.0,0.0,1.0
1463563134463636219,620,1463563134063986802,,-9.04512310028,2.59856724739,105.93347168,0.0100640002638,1.0,0.0,0.0,0.0,1.0,0.0,0.0,0.0,1.0,11.2804880142,2.31707310677,-118.231712341,1.0,0.0,0.0,0.0,1.0,0.0,0.0,0.0,1.0,0.876277807617,1.24019645996,-10.3716815918,1.0,0.0,0.0,0.0,1.0,0.0,0.0,0.0,1.0
1463563134463727522,621,1463563134074179069,,-8.98111724854,2.46431350708,104.776420593,0.0101169999689,1.0,0.0,0.0,0.0,1.0,0.0,0.0,0.0,1.0,11.8292684555,1.2804877758,-115.792694092,1.0,0.0,0.0,0.0,1.0,0.0,0.0,0.0,1.0,0.794874951172,1.35511813965,-10.3381627686,1.0,0.0,0.0,0.0,1.0,0.0,0.0,0.0,1.0
1463563134463916326,622,1463563134084070239,,-8.86550235748,2.32096529007,103.660400391,0.0100790001452,1.0,0.0,0.0,0.0,1.0,0.0,0.0,0.0,1.0,14.9390249252,0.0609756112099,-112.378051758,1.0,0.0,0.0,0.0,1.0,0.0,0.0,0.0,1.0,0.684741674805,1.04866025408,-10.3716815918,1.0,0.0,0.0,0.0,1.0,0.0,0.0,0.0,1.0
1463563134463954503,623,1463563134096144761,,-8.69885063171,2.13768863678,102.481460571,0.0111260004342,1.0,0.0,0.0,0.0,1.0,0.0,0.0,0.0,1.0,16.4024391174,-1.58536589146,-107.865852356,1.0,0.0,0.0,0.0,1.0,0.0,0.0,0.0,1.0,0.363918652344,0.742202514648,-10.3668931885,1.0,0.0,0.0,0.0,1.0,0.0,0.0,0.0,1.0
1463563134463994139,624,1463563134104727328,,-8.50982570648,1.97017633915,101.537765503,0.00926300045103,1.0,0.0,0.0,0.0,1.0,0.0,0.0,0.0,1.0,16.4024391174,-2.07317066193,-103.963417053,1.0,0.0,0.0,0.0,1.0,0.0,0.0,0.0,1.0,-0.0478840332031,-0.201112939453,-10.2184526855,1.0,0.0,0.0,0.0,1.0,0.0,0.0,0.0,1.0
1463563134464031326,625,1463563134114258131,,-8.322930336,1.79335296154,100.563789368,0.00989899970591,1.0,0.0,0.0,0.0,1.0,0.0,0.0,0.0,1.0,15.2439022064,-2.13414645195,-100.365852356,1.0,0.0,0.0,0.0,1.0,0.0,0.0,0.0,1.0,-0.181959326172,-0.0909796630859,-10.2376062988,1.0,0.0,0.0,0.0,1.0,0.0,0.0,0.0,1.0
1463563134464071639,626,1463563134124697796,,-8.13115024567,1.61901187897,99.5811462402,0.0104109998792,1.0,0.0,0.0,0.0,1.0,0.0,0.0,0.0,1.0,13.2317075729,-1.95121955872,-96.2804870605,1.0,0.0,0.0,0.0,1.0,0.0,0.0,0.0,1.0,-0.215478149414,-0.339976635742,-10.5009684814,1.0,0.0,0.0,0.0,1.0,0.0,0.0,0.0,1.0
1463563134464109296,627,1463563134135572360,,-7.95053529739,1.4402859211,98.6142272949,0.0107690002769,1.0,0.0,0.0,0.0,1.0,0.0,0.0,0.0,1.0,10.6707315445,-3.10975623131,-91.7682952881,1.0,0.0,0.0,0.0,1.0,0.0,0.0,0.0,1.0,-0.181959326172,-0.469263525391,-10.5105452881,1.0,0.0,0.0,0.0,1.0,0.0,0.0,0.0,1.0
1463563134464144921,628,1463563134144710139,,-7.82674264908,1.29215681553,97.8137893677,0.00913400016725,1.0,0.0,0.0,0.0,1.0,0.0,0.0,0.0,1.0,9.63414573669,-4.20731735229,-89.634147644,1.0,0.0,0.0,0.0,1.0,0.0,0.0,0.0,1.0,-0.0383072265625,-0.0335188255255,-10.1945106689,1.0,0.0,0.0,0.0,1.0,0.0,0.0,0.0,1.0
1463563134464180598,629,1463563134154940896,,-7.7031993866,1.11456954479,96.9577255249,0.0101079996675,1.0,0.0,0.0,0.0,1.0,0.0,0.0,0.0,1.0,8.96341514587,-6.70731735229,-86.9512252808,1.0,0.0,0.0,0.0,1.0,0.0,0.0,0.0,1.0,0.0383072265625,0.119710083008,-10.1274730225,1.0,0.0,0.0,0.0,1.0,0.0,0.0,0.0,1.0
1463563134464672321,630,1463563134165186809,,-7.56385421753,0.898712813854,96.1293258667,0.0101680001244,1.0,0.0,0.0,0.0,1.0,0.0,0.0,0.0,1.0,8.04878044128,-9.5731716156,-84.0853652954,1.0,0.0,0.0,0.0,1.0,0.0,0.0,0.0,1.0,-0.239420166016,-0.268150604204,-9.92157167969,1.0,0.0,0.0,0.0,1.0,0.0,0.0,0.0,1.0
1463563134464822947,631,1463563134175266627,,-7.47325515747,0.675773024559,95.3470230103,0.0100990002975,1.0,0.0,0.0,0.0,1.0,0.0,0.0,0.0,1.0,2.86585378647,-10.548781395,-80.1219482422,1.0,0.0,0.0,0.0,1.0,0.0,0.0,0.0,1.0,-0.387860668945,-0.316034619141,-10.2567599121,1.0,0.0,0.0,0.0,1.0,0.0,0.0,0.0,1.0
1463563134465771652,632,1463563134185300508,,-7.43650722504,0.419026464224,94.6002120972,0.0100279999897,1.0,0.0,0.0,0.0,1.0,0.0,0.0,0.0,1.0,-1.95121955872,-11.6463422775,-77.1951217651,1.0,0.0,0.0,0.0,1.0,0.0,0.0,0.0,1.0,-0.952892260742,-0.181959326172,-10.2088758789,1.0,0.0,0.0,0.0,1.0,0.0,0.0,0.0,1.0
1463563134466210614,633,1463563134195724651,,-7.43710422516,0.174205094576,93.8746795654,0.0101110003889,1.0,0.0,0.0,0.0,1.0,0.0,0.0,0.0,1.0,-6.15853643417,-10.4268293381,-74.2682952881,1.0,0.0,0.0,0.0,1.0,0.0,0.0,0.0,1.0,-1.03908344744,-0.215478149414,-10.2040874756,1.0,0.0,0.0,0.0,1.0,0.0,0.0,0.0,1.0
1463563134466524731,634,1463563134205291132,,-7.45097208023,-0.0718117728829,93.1687545776,0.0100929997861,1.0,0.0,0.0,0.0,1.0,0.0,0.0,0.0,1.0,-6.82926845551,-10.1829271317,-72.3780517578,1.0,0.0,0.0,0.0,1.0,0.0,0.0,0.0,1.0,-1.17794714373,-0.0430956298828,-10.0125513428,1.0,0.0,0.0,0.0,1.0,0.0,0.0,0.0,1.0
1463563134466830098,635,1463563134215362565,,-7.45382642746,-0.296452015638,92.4645004272,0.0101439999416,1.0,0.0,0.0,0.0,1.0,0.0,0.0,0.0,1.0,-6.28048801422,-8.78048801422,-71.6463394165,1.0,0.0,0.0,0.0,1.0,0.0,0.0,0.0,1.0,-1.09654436035,-0.0861912597656,-10.1178962158,1.0,0.0,0.0,0.0,1.0,0.0,0.0,0.0,1.0
1463563134467107444,636,1463563134225615926,,-7.47395706177,-0.517561614513,91.7598648071,0.0101009998471,1.0,0.0,0.0,0.0,1.0,0.0,0.0,0.0,1.0,-5.85365867615,-8.65853691101,-71.9512176514,1.0,0.0,0.0,0.0,1.0,0.0,0.0,0.0,1.0,-1.13006318359,0.359130249023,-10.3668931885,1.0,0.0,0.0,0.0,1.0,0.0,0.0,0.0,1.0
1463563134468676206,637,1463563134235845746,,-7.48953533173,-0.7479621768,91.053062439,0.0101450001821,1.0,0.0,0.0,0.0,1.0,0.0,0.0,0.0,1.0,-4.08536577225,-8.41463470459,-71.8292694092,1.0,0.0,0.0,0.0,1.0,0.0,0.0,0.0,1.0,-1.35511813965,0.646434448242,-10.2519715088,1.0,0.0,0.0,0.0,1.0,0.0,0.0,0.0,1.0
1463563134469037407,638,1463563134248656158,,-7.46456956863,-0.995248496532,90.2692871094,0.010982000269,1.0,0.0,0.0,0.0,1.0,0.0,0.0,0.0,1.0,-0.0609756112099,-8.04878044128,-73.4756088257,1.0,0.0,0.0,0.0,1.0,0.0,0.0,0.0,1.0,-1.38384855957,0.742202514648,-10.1992990723,1.0,0.0,0.0,0.0,1.0,0.0,0.0,0.0,1.0
1463563134469351160,639,1463563134255746213,,-7.42489719391,-1.2048624754,89.6104431152,0.00912399962544,1.0,0.0,0.0,0.0,1.0,0.0,0.0,0.0,1.0,2.68292689323,-7.25609779358,-74.2073135376,1.0,0.0,0.0,0.0,1.0,0.0,0.0,0.0,1.0,-1.63763393555,0.905008227539,-10.1083194092,1.0,0.0,0.0,0.0,1.0,0.0,0.0,0.0,1.0
1463563134470921745,640,1463563134266052283,,-7.34765720367,-1.41920316219,88.8620071411,0.0100990002975,1.0,0.0,0.0,0.0,1.0,0.0,0.0,0.0,1.0,7.74390268326,-5.12195110321,-75.8536605835,1.0,0.0,0.0,0.0,1.0,0.0,0.0,0.0,1.0,-1.69030637207,1.2497732666,-9.90241806641,1.0,0.0,0.0,0.0,1.0,0.0,0.0,0.0,1.0
1463563134471210341,641,1463563134277693988,,-7.20499944687,-1.61280632019,88.055229187,0.010656000115,1.0,0.0,0.0,0.0,1.0,0.0,0.0,0.0,1.0,14.3902444839,-3.04878044128,-77.1951217651,1.0,0.0,0.0,0.0,1.0,0.0,0.0,0.0,1.0,-1.5322890625,1.44130939941,-9.81622680664,1.0,0.0,0.0,0.0,1.0,0.0,0.0,0.0,1.0
1463563134471286487,642,1463563134286179836,,-7.01760292053,-1.76922011375,87.3139419556,0.00955200009048,1.0,0.0,0.0,0.0,1.0,0.0,0.0,0.0,1.0,19.4512195587,-0.975609779358,-78.7804946899,1.0,0.0,0.0,0.0,1.0,0.0,0.0,0.0,1.0,-1.62805712891,1.26892687988,-9.90241806641,1.0,0.0,0.0,0.0,1.0,0.0,0.0,0.0,1.0
1463563134471554458,643,1463563134296234862,,-6.76102828979,-1.90878558159,86.5205535889,0.0101190004498,1.0,0.0,0.0,0.0,1.0,0.0,0.0,0.0,1.0,25.4268302917,0.914634168148,-79.3292694092,1.0,0.0,0.0,0.0,1.0,0.0,0.0,0.0,1.0,-1.54665427246,1.2976572998,-9.74440075684,1.0,0.0,0.0,0.0,1.0,0.0,0.0,0.0,1.0
1463563134471954149,644,1463563134307337240,,-6.41304969788,-2.01825833321,85.6836242676,0.0104700000957,1.0,0.0,0.0,0.0,1.0,0.0,0.0,0.0,1.0,30.4268321991,2.56097555161,-80.5487823486,1.0,0.0,0.0,0.0,1.0,0.0,0.0,0.0,1.0,-1.31681091309,0.790086547852,-9.80186159668,1.0,0.0,0.0,0.0,1.0,0.0,0.0,0.0,1.0
1463563134472399308,645,1463563134316561166,,-6.04746484756,-2.12192225456,84.9107894897,0.0097359996289,1.0,0.0,0.0,0.0,1.0,0.0,0.0,0.0,1.0,33.8414649963,2.98780488968,-79.8780517578,1.0,0.0,0.0,0.0,1.0,0.0,0.0,0.0,1.0,-1.53707746582,0.588973571866,-9.74918916016,1.0,0.0,0.0,0.0,1.0,0.0,0.0,0.0,1.0
1463563134473275409,646,1463563134327594690,,-5.60236787796,-2.22036004066,84.0508499146,0.0108559997752,1.0,0.0,0.0,0.0,1.0,0.0,0.0,0.0,1.0,36.7682952881,3.84146332741,-79.5731735229,1.0,0.0,0.0,0.0,1.0,0.0,0.0,0.0,1.0,-1.56580788574,0.469263525391,-9.98860932617,1.0,0.0,0.0,0.0,1.0,0.0,0.0,0.0,1.0
1463563134473572026,647,1463563134336653042,,-5.21004772186,-2.29609942436,83.3168334961,0.00935299973935,1.0,0.0,0.0,0.0,1.0,0.0,0.0,0.0,1.0,38.1707305908,4.45121955872,-78.7804946899,1.0,0.0,0.0,0.0,1.0,0.0,0.0,0.0,1.0,-1.65199914551,0.493205541992,-10.0843773926,1.0,0.0,0.0,0.0,1.0,0.0,0.0,0.0,1.0
1463563134476308453,648,1463563134346700672,,-4.73845767975,-2.3392663002,82.5394744873,0.0100990002975,1.0,0.0,0.0,0.0,1.0,0.0,0.0,0.0,1.0,39.2073173523,5.0,-77.0731658936,1.0,0.0,0.0,0.0,1.0,0.0,0.0,0.0,1.0,-1.27850368652,-0.253785375977,-10.7547538574,1.0,0.0,0.0,0.0,1.0,0.0,0.0,0.0,1.0
1463563134481892507,649,1463563134356951638,,-4.31308603287,-2.36017870903,81.7865524292,0.0100720003247,1.0,0.0,0.0,0.0,1.0,0.0,0.0,0.0,1.0,38.1097564697,8.65853691101,-74.6951217651,1.0,0.0,0.0,0.0,1.0,0.0,0.0,0.0,1.0,-1.73340200195,0.292092584273,-10.8170031006,1.0,0.0,0.0,0.0,1.0,0.0,0.0,0.0,1.0
1463563134482328396,650,1463563134367257864,,-3.88175988197,-2.33338689804,81.0539627075,0.0101009998471,1.0,0.0,0.0,0.0,1.0,0.0,0.0,0.0,1.0,38.0487823486,11.8292684555,-72.2560958862,1.0,0.0,0.0,0.0,1.0,0.0,0.0,0.0,1.0,-1.5562310791,0.0909796630859,-10.7068698242,1.0,0.0,0.0,0.0,1.0,0.0,0.0,0.0,1.0
1463563134482773816,651,1463563134376963044,,-3.4831635952,-2.28139615059,80.352722168,0.0101150004193,1.0,0.0,0.0,0.0,1.0,0.0,0.0,0.0,1.0,36.2195129395,14.2682924271,-69.0243911743,1.0,0.0,0.0,0.0,1.0,0.0,0.0,0.0,1.0,-1.70467158203,0.258573779297,-10.8409451172,1.0,0.0,0.0,0.0,1.0,0.0,0.0,0.0,1.0
1463563134482825952,652,1463563134387102810,,-3.09161996841,-2.18797707558,79.6777267456,0.0100959995762,1.0,0.0,0.0,0.0,1.0,0.0,0.0,0.0,1.0,35.2439041138,18.1707305908,-66.4024353027,1.0,0.0,0.0,0.0,1.0,0.0,0.0,0.0,1.0,-1.73340200195,0.076614453125,-10.5919481445,1.0,0.0,0.0,0.0,1.0,0.0,0.0,0.0,1.0
1463563134483171840,653,1463563134397243566,,-2.73619270325,-2.05942463875,79.0298461914,0.0100919995457,1.0,0.0,0.0,0.0,1.0,0.0,0.0,0.0,1.0,33.7195129395,21.2195129395,-63.7804908752,1.0,0.0,0.0,0.0,1.0,0.0,0.0,0.0,1.0,-1.72861359863,0.344765039063,-10.5153336914,1.0,0.0,0.0,0.0,1.0,0.0,0.0,0.0,1.0
1463563134483505801,654,1463563134407588126,,-2.38719248772,-1.88671898842,78.3911056519,0.0101749999449,1.0,0.0,0.0,0.0,1.0,0.0,0.0,0.0,1.0,33.7195129395,24.5121955872,-62.3780517578,1.0,0.0,0.0,0.0,1.0,0.0,0.0,0.0,1.0,-1.57538469238,0.402225878906,-10.285490332,1.0,0.0,0.0,0.0,1.0,0.0,0.0,0.0,1.0
1463563134483790908,655,1463563134417907217,,-2.03873705864,-1.66864812374,77.7509994507,0.0104719996452,1.0,0.0,0.0,0.0,1.0,0.0,0.0,0.0,1.0,35.3048782349,27.3780498505,-60.8536643982,1.0,0.0,0.0,0.0,1.0,0.0,0.0,0.0,1.0,-1.43652099609,0.76614453125,-10.2328178955,1.0,0.0,0.0,0.0,1.0,0.0,0.0,0.0,1.0
1463563134484041639,656,1463563134428351100,,-1.69714486599,-1.44045829773,77.1564254761,0.00966599956155,1.0,0.0,0.0,0.0,1.0,0.0,0.0,0.0,1.0,37.8048782349,29.6341457367,-61.3414611816,1.0,0.0,0.0,0.0,1.0,0.0,0.0,0.0,1.0,-1.33117612305,0.723048901367,-9.98860932617,1.0,0.0,0.0,0.0,1.0,0.0,0.0,0.0,1.0
1463563134484289297,657,1463563134437572631,,-1.32209992409,-1.17882335186,76.5452346802,0.010095000267,1.0,0.0,0.0,0.0,1.0,0.0,0.0,0.0,1.0,39.1463432312,31.5243930817,-60.4878044128,1.0,0.0,0.0,0.0,1.0,0.0,0.0,0.0,1.0,-1.2497732666,0.512359155273,-9.69651672363,1.0,0.0,0.0,0.0,1.0,0.0,0.0,0.0,1.0
1463563134484562372,658,1463563134447804742,,-0.953688025475,-0.880483150482,75.9332962036,0.0101319998503,1.0,0.0,0.0,0.0,1.0,0.0,0.0,0.0,1.0,40.3658561707,33.6585388184,-60.5487823486,1.0,0.0,0.0,0.0,1.0,0.0,0.0,0.0,1.0,-1.01514150391,0.732625708008,-9.55286520855,1.0,0.0,0.0,0.0,1.0,0.0,0.0,0.0,1.0
1463563134484863416,659,1463563134458165135,,-0.579471826553,-0.581746637821,75.3366394043,0.0101650003344,1.0,0.0,0.0,0.0,1.0,0.0,0.0,0.0,1.0,39.634147644,34.6951217651,-59.024394989,1.0,0.0,0.0,0.0,1.0,0.0,0.0,0.0,1.0,-1.17794714373,0.397437475586,-9.22246479492,1.0,0.0,0.0,0.0,1.0,0.0,0.0,0.0,1.0
1463563134485462743,660,1463563134469330795,,-0.225476682186,-0.257805675268,74.7491455078,0.0100389998406,1.0,0.0,0.0,0.0,1.0,0.0,0.0,0.0,1.0,39.9390258789,35.9756088257,-59.0853652954,1.0,0.0,0.0,0.0,1.0,0.0,0.0,0.0,1.0,-0.905008227539,0.574608398438,-9.01656345215,1.0,0.0,0.0,0.0,1.0,0.0,0.0,0.0,1.0
1463563134485950247,661,1463563134478648472,,0.156770959496,0.0961965993047,74.1263275146,0.0106509998441,1.0,0.0,0.0,0.0,1.0,0.0,0.0,0.0,1.0,41.3414649963,36.8292694092,-59.2682914734,1.0,0.0,0.0,0.0,1.0,0.0,0.0,0.0,1.0,-0.876277807617,0.574608398438,-8.82502731934,1.0,0.0,0.0,0.0,1.0,0.0,0.0,0.0,1.0
1463563134890675694,662,1463563134488558236,,0.511813402176,0.431373149157,73.5449066162,0.00989999994636,1.0,0.0,0.0,0.0,1.0,0.0,0.0,0.0,1.0,42.1951255798,37.8048782349,-59.7560997009,1.0,0.0,0.0,0.0,1.0,0.0,0.0,0.0,1.0,-0.900219824219,0.574608398438,-8.47068488911,1.0,0.0,0.0,0.0,1.0,0.0,0.0,0.0,1.0
1463563134891026113,663,1463563134498367219,,0.889487743378,0.756859183311,72.9727020264,0.00973199959844,1.0,0.0,0.0,0.0,1.0,0.0,0.0,0.0,1.0,44.2682914734,37.865852356,-60.0609779358,1.0,0.0,0.0,0.0,1.0,0.0,0.0,0.0,1.0,-0.967257470703,0.335188232422,-8.3749168227,1.0,0.0,0.0,0.0,1.0,0.0,0.0,0.0,1.0
1463563134891698567,664,1463563134511951804,,1.31760931015,1.15682518482,72.3030090332,0.0113350003958,1.0,0.0,0.0,0.0,1.0,0.0,0.0,0.0,1.0,44.2682914734,38.0487823486,-60.6097564697,1.0,0.0,0.0,0.0,1.0,0.0,0.0,0.0,1.0,-0.699106884766,0.359130249023,-7.97747993164,1.0,0.0,0.0,0.0,1.0,0.0,0.0,0.0,1.0
1463563134892065653,665,1463563134518530501,,1.65046226978,1.47464394569,71.7770996094,0.00887299980968,1.0,0.0,0.0,0.0,1.0,0.0,0.0,0.0,1.0,45.0609779358,38.1097564697,-61.0365905762,1.0,0.0,0.0,0.0,1.0,0.0,0.0,0.0,1.0,-0.622492431641,0.387860668945,-7.84340463867,1.0,0.0,0.0,0.0,1.0,0.0,0.0,0.0,1.0
1463563134892625761,666,1463563134528953187,,2.03488111496,1.80503344536,71.1709213257,0.0100889997557,1.0,0.0,0.0,0.0,1.0,0.0,0.0,0.0,1.0,46.3414649963,36.6463432312,-62.0121917725,1.0,0.0,0.0,0.0,1.0,0.0,0.0,0.0,1.0,-0.804451757813,0.363918652344,-7.32625708008,1.0,0.0,0.0,0.0,1.0,0.0,0.0,0.0,1.0
1463563134893883844,667,1463563134538601179,,2.43203687668,2.13989853859,70.5562438965,0.0100929997861,1.0,0.0,0.0,0.0,1.0,0.0,0.0,0.0,1.0,46.7682952881,36.5853652954,-63.1097564697,1.0,0.0,0.0,0.0,1.0,0.0,0.0,0.0,1.0,-0.756567724609,0.15801730957,-7.34062229004,1.0,0.0,0.0,0.0,1.0,0.0,0.0,0.0,1.0
1463563134895379064,668,1463563134549533035,,2.85808134079,2.46185588837,69.909828186,0.0104419998825,1.0,0.0,0.0,0.0,1.0,0.0,0.0,0.0,1.0,45.9756088257,34.8780479431,-64.3902435303,1.0,0.0,0.0,0.0,1.0,0.0,0.0,0.0,1.0,-0.837970581055,-0.229843359375,-7.12993254395,1.0,0.0,0.0,0.0,1.0,0.0,0.0,0.0,1.0
1463563134895784015,669,1463563134558999358,,3.22716593742,2.74726295471,69.2886276245,0.00976200029254,1.0,0.0,0.0,0.0,1.0,0.0,0.0,0.0,1.0,44.9390258789,33.0487823486,-66.2195129395,1.0,0.0,0.0,0.0,1.0,0.0,0.0,0.0,1.0,-0.881066210937,-0.0909796630859,-7.51300480957,1.0,0.0,0.0,0.0,1.0,0.0,0.0,0.0,1.0
1463563134896084851,670,1463563134569044385,,3.6025083065,3.04923248291,68.6170043945,0.010106000118,1.0,0.0,0.0,0.0,1.0,0.0,0.0,0.0,1.0,44.5731735229,30.7926845551,-69.1463470459,1.0,0.0,0.0,0.0,1.0,0.0,0.0,0.0,1.0,-0.545877978516,-0.167594116211,-7.71890615234,1.0,0.0,0.0,0.0,1.0,0.0,0.0,0.0,1.0
1463563134896422458,671,1463563134579197693,,3.94963884354,3.32418894768,67.9186859131,0.0101070003584,1.0,0.0,0.0,0.0,1.0,0.0,0.0,0.0,1.0,44.6951217651,27.6219520569,-71.6463394165,1.0,0.0,0.0,0.0,1.0,0.0,0.0,0.0,1.0,-0.517147558594,0.114921679688,-7.69017573242,1.0,0.0,0.0,0.0,1.0,0.0,0.0,0.0,1.0
1463563134896736523,672,1463563134589237875,,4.31597423553,3.57521677017,67.1837387085,0.0100929997861,1.0,0.0,0.0,0.0,1.0,0.0,0.0,0.0,1.0,45.0,25.0609760284,-75.4878082275,1.0,0.0,0.0,0.0,1.0,0.0,0.0,0.0,1.0,-0.555454785156,-0.234631762695,-7.82425102539,1.0,0.0,0.0,0.0,1.0,0.0,0.0,0.0,1.0
1463563134897030744,673,1463563134599300766,,4.67881822586,3.75976920128,66.4412155151,0.010095000267,1.0,0.0,0.0,0.0,1.0,0.0,0.0,0.0,1.0,42.5609779358,21.6463432312,-76.2804946899,1.0,0.0,0.0,0.0,1.0,0.0,0.0,0.0,1.0,-1.06781401349,-0.632069238281,-7.967903125,1.0,0.0,0.0,0.0,1.0,0.0,0.0,0.0,1.0
1463563134897295433,674,1463563134610630438,,5.00910806656,3.95418691635,65.6626663208,0.0101009998471,1.0,0.0,0.0,0.0,1.0,0.0,0.0,0.0,1.0,41.0365867615,20.0,-79.7560958862,1.0,0.0,0.0,0.0,1.0,0.0,0.0,0.0,1.0,-0.742202514648,-0.488417138672,-7.6853873291,1.0,0.0,0.0,0.0,1.0,0.0,0.0,0.0,1.0
1463563134898320545,675,1463563134619380142,,5.31061029434,4.09697008133,64.8817062378,0.0101020000875,1.0,0.0,0.0,0.0,1.0,0.0,0.0,0.0,1.0,36.5853652954,17.8658542633,-80.0609741211,1.0,0.0,0.0,0.0,1.0,0.0,0.0,0.0,1.0,-1.14921679688,-0.751779321289,-7.34062229004,1.0,0.0,0.0,0.0,1.0,0.0,0.0,0.0,1.0
1463563134898700704,676,1463563134630155799,,5.63084602356,4.2332367897,64.098777771,0.0102270003408,1.0,0.0,0.0,0.0,1.0,0.0,0.0,0.0,1.0,33.5365867615,15.6707315445,-79.5731735229,1.0,0.0,0.0,0.0,1.0,0.0,0.0,0.0,1.0,-0.962469067383,-1.35032973633,-7.00543405762,1.0,0.0,0.0,0.0,1.0,0.0,0.0,0.0,1.0
1463563134899027790,677,1463563134640657860,,5.89171934128,4.38129663467,63.2440452576,0.0105680003762,1.0,0.0,0.0,0.0,1.0,0.0,0.0,0.0,1.0,29.2682933807,12.6219520569,-83.5975646973,1.0,0.0,0.0,0.0,1.0,0.0,0.0,0.0,1.0,-0.598550451572,-1.22104284668,-7.44117875977,1.0,0.0,0.0,0.0,1.0,0.0,0.0,0.0,1.0
1463563134899361074,678,1463563134649731524,,6.12093019485,4.46388149261,62.5046463013,0.00953199993819,1.0,0.0,0.0,0.0,1.0,0.0,0.0,0.0,1.0,21.8902435303,8.71951198578,-80.4878082275,1.0,0.0,0.0,0.0,1.0,0.0,0.0,0.0,1.0,-0.823605371094,-2.22181914063,-7.53694682617,1.0,0.0,0.0,0.0,1.0,0.0,0.0,0.0,1.0
1463563134900052486,679,1463563134660521296,,6.1900472641,4.57671117783,61.7090568542,0.0101129999384,1.0,0.0,0.0,0.0,1.0,0.0,0.0,0.0,1.0,12.1951217651,6.0365858078,-80.792678833,1.0,0.0,0.0,0.0,1.0,0.0,0.0,0.0,1.0,-0.110133276367,-1.24498486328,-7.74763657227,1.0,0.0,0.0,0.0,1.0,0.0,0.0,0.0,1.0
1463563134901179630,680,1463563134670362518,,6.18553590775,4.60849285126,60.8922767639,0.0100779999048,1.0,0.0,0.0,0.0,1.0,0.0,0.0,0.0,1.0,7.01219511032,-2.31707310677,-82.134147644,1.0,0.0,0.0,0.0,1.0,0.0,0.0,0.0,1.0,-0.0814028564453,-1.03429511719,-8.01099875488,1.0,0.0,0.0,0.0,1.0,0.0,0.0,0.0,1.0
1463563134901561768,681,1463563134680096709,,6.14277935028,4.59097146988,60.0748939514,0.0100919995457,1.0,0.0,0.0,0.0,1.0,0.0,0.0,0.0,1.0,2.25609779358,-7.07317113876,-81.6463394165,1.0,0.0,0.0,0.0,1.0,0.0,0.0,0.0,1.0,-0.0861912597656,-1.13963999023,-7.77636699219,1.0,0.0,0.0,0.0,1.0,0.0,0.0,0.0,1.0
1463563134901923125,682,1463563134690515384,,6.06902122498,4.49347543716,59.2507286072,0.0101180002093,1.0,0.0,0.0,0.0,1.0,0.0,0.0,0.0,1.0,-3.90243911743,-12.6829271317,-81.7682952881,1.0,0.0,0.0,0.0,1.0,0.0,0.0,0.0,1.0,-0.411802685547,-1.57538469238,-7.80509741211,1.0,0.0,0.0,0.0,1.0,0.0,0.0,0.0,1.0
1463563134902266982,683,1463563134700760151,,5.94599294662,4.32127285004,58.4402122498,0.0100999996066,1.0,0.0,0.0,0.0,1.0,0.0,0.0,0.0,1.0,-11.4634151459,-18.2317085266,-80.1829299927,1.0,0.0,0.0,0.0,1.0,0.0,0.0,0.0,1.0,-0.675164868164,-1.95366855469,-7.96311472168,1.0,0.0,0.0,0.0,1.0,0.0,0.0,0.0,1.0
1463563134902640423,684,1463563134711505808,,5.71723985672,4.12441492081,57.6245994568,0.0102880001068,1.0,0.0,0.0,0.0,1.0,0.0,0.0,0.0,1.0,-19.817073822,-22.3780498505,-78.6585388184,1.0,0.0,0.0,0.0,1.0,0.0,0.0,0.0,1.0,-0.339976635742,-1.64721074219,-8.05409438477,1.0,0.0,0.0,0.0,1.0,0.0,0.0,0.0,1.0
1463563134902984384,685,1463563134721801148,,5.41014432907,3.86013174057,56.8288002014,0.0101669998839,1.0,0.0,0.0,0.0,1.0,0.0,0.0,0.0,1.0,-25.7317085266,-26.6463432312,-77.134147644,1.0,0.0,0.0,0.0,1.0,0.0,0.0,0.0,1.0,-0.689530078125,-1.29286889648,-8.31266757954,1.0,0.0,0.0,0.0,1.0,0.0,0.0,0.0,1.0
1463563134904818565,686,1463563134730876792,,5.07138586044,3.55374479294,56.069568634,0.00982800032943,1.0,0.0,0.0,0.0,1.0,0.0,0.0,0.0,1.0,-28.7195110321,-30.7926845551,-75.7317047119,1.0,0.0,0.0,0.0,1.0,0.0,0.0,0.0,1.0,-0.790086547852,-0.976834277344,-8.23126530762,1.0,0.0,0.0,0.0,1.0,0.0,0.0,0.0,1.0
1463563134905403621,687,1463563134742868344,,4.66792058945,3.15812158585,55.233795166,0.0110409995541,1.0,0.0,0.0,0.0,1.0,0.0,0.0,0.0,1.0,-29.6951236725,-34.817073822,-73.9024429321,1.0,0.0,0.0,0.0,1.0,0.0,0.0,0.0,1.0,-0.823605371094,-0.675164868164,-8.15465085449,1.0,0.0,0.0,0.0,1.0,0.0,0.0,0.0,1.0
1463563134905776541,688,1463563134751027262,,4.33827018738,2.78788661957,54.5499954224,0.0091530000791,1.0,0.0,0.0,0.0,1.0,0.0,0.0,0.0,1.0,-30.2439022064,-38.3536567688,-72.8658599854,1.0,0.0,0.0,0.0,1.0,0.0,0.0,0.0,1.0,-1.00077629395,-0.723048901367,-8.51378168804,1.0,0.0,0.0,0.0,1.0,0.0,0.0,0.0,1.0
1463563134908367655,689,1463563134761707397,,3.96941399574,2.34155917168,53.8031768799,0.010277999565,1.0,0.0,0.0,0.0,1.0,0.0,0.0,0.0,1.0,-30.3658542633,-42.1951255798,-70.7317123413,1.0,0.0,0.0,0.0,1.0,0.0,0.0,0.0,1.0,-0.857124194336,-0.636857641602,-8.79629689941,1.0,0.0,0.0,0.0,1.0,0.0,0.0,0.0,1.0
1463563134908707501,690,1463563134770987938,,3.64070439339,1.87727820873,53.0861854553,0.00994099956006,1.0,0.0,0.0,0.0,1.0,0.0,0.0,0.0,1.0,-27.9878063202,-45.8536605835,-70.1829299927,1.0,0.0,0.0,0.0,1.0,0.0,0.0,0.0,1.0,-0.833182177734,-0.584185168546,-9.24640681152,1.0,0.0,0.0,0.0,1.0,0.0,0.0,0.0,1.0
1463563134908978128,691,1463563134781322914,,3.31866049767,1.36822760105,52.3724250793,0.0100809996948,1.0,0.0,0.0,0.0,1.0,0.0,0.0,0.0,1.0,-27.317073822,-51.0365867615,-68.7804870605,1.0,0.0,0.0,0.0,1.0,0.0,0.0,0.0,1.0,-0.61770402832,-0.512359155273,-9.5193463853,1.0,0.0,0.0,0.0,1.0,0.0,0.0,0.0,1.0
1463563134909256464,692,1463563134793334987,,2.99016189575,0.760641932487,51.6112556458,0.0109710004181,1.0,0.0,0.0,0.0,1.0,0.0,0.0,0.0,1.0,-24.817073822,-55.2439041138,-67.3780517578,1.0,0.0,0.0,0.0,1.0,0.0,0.0,0.0,1.0,-0.76614453125,-0.263362164351,-9.88805285645,1.0,0.0,0.0,0.0,1.0,0.0,0.0,0.0,1.0
1463563134909881417,693,1463563134801780209,,2.75093317032,0.200744792819,50.985168457,0.00922899972647,1.0,0.0,0.0,0.0,1.0,0.0,0.0,0.0,1.0,-21.5853652954,-59.1463394165,-65.9146347046,1.0,0.0,0.0,0.0,1.0,0.0,0.0,0.0,1.0,-1.03429511719,-0.215478149414,-9.7827079834,1.0,0.0,0.0,0.0,1.0,0.0,0.0,0.0,1.0
1463563134910190221,694,1463563134812474199,,2.52426218987,-0.472257554531,50.3007850647,0.0102089997381,1.0,0.0,0.0,0.0,1.0,0.0,0.0,0.0,1.0,-18.2926826477,-62.865852356,-65.1829299927,1.0,0.0,0.0,0.0,1.0,0.0,0.0,0.0,1.0,-1.34075292969,-0.119710083008,-9.71567033691,1.0,0.0,0.0,0.0,1.0,0.0,0.0,0.0,1.0
1463563134910454025,695,1463563134822921312,,2.34106874466,-1.15882873535,49.6496391296,0.0100210001692,1.0,0.0,0.0,0.0,1.0,0.0,0.0,0.0,1.0,-13.841463089,-64.3902435303,-63.2926826477,1.0,0.0,0.0,0.0,1.0,0.0,0.0,0.0,1.0,-1.57059628906,0.143652099609,-9.59117243511,1.0,0.0,0.0,0.0,1.0,0.0,0.0,0.0,1.0
1463563134910730434,696,1463563134831888569,,2.23225998878,-1.88159835339,49.0182952881,0.0101220002398,1.0,0.0,0.0,0.0,1.0,0.0,0.0,0.0,1.0,-8.96341514587,-65.1219558716,-60.7926826477,1.0,0.0,0.0,0.0,1.0,0.0,0.0,0.0,1.0,-2.01591779785,-0.15322890625,-9.53371159526,1.0,0.0,0.0,0.0,1.0,0.0,0.0,0.0,1.0
1463563134911110280,697,1463563134841982346,,2.15275764465,-2.60000324249,48.4176368713,0.010095000267,1.0,0.0,0.0,0.0,1.0,0.0,0.0,0.0,1.0,-6.0365858078,-64.6951217651,-58.0487823486,1.0,0.0,0.0,0.0,1.0,0.0,0.0,0.0,1.0,-2.16435844691,-0.00957680664062,-9.65342167827,1.0,0.0,0.0,0.0,1.0,0.0,0.0,0.0,1.0
1463563134911494867,698,1463563134852111956,,2.10908269882,-3.30726361275,47.8492279053,0.0100769996643,1.0,0.0,0.0,0.0,1.0,0.0,0.0,0.0,1.0,-3.35365867615,-63.1097564697,-55.0609779358,1.0,0.0,0.0,0.0,1.0,0.0,0.0,0.0,1.0,-2.3654710941,-0.0430956298828,-9.62947966167,1.0,0.0,0.0,0.0,1.0,0.0,0.0,0.0,1.0
1463563134911806171,699,1463563134862158649,,2.08896541595,-3.99663329124,47.3158454895,0.0101030003279,1.0,0.0,0.0,0.0,1.0,0.0,0.0,0.0,1.0,-0.365853667259,-61.6463394165,-51.5853691101,1.0,0.0,0.0,0.0,1.0,0.0,0.0,0.0,1.0,-2.37983659633,0.15801730957,-9.65821008159,1.0,0.0,0.0,0.0,1.0,0.0,0.0,0.0,1.0
1463563134912133361,700,1463563134872211383,,2.10469388962,-4.6565747261,46.8124046326,0.0101349996403,1.0,0.0,0.0,0.0,1.0,0.0,0.0,0.0,1.0,2.07317066193,-59.9390258789,-48.4756126404,1.0,0.0,0.0,0.0,1.0,0.0,0.0,0.0,1.0,-2.22181914063,0.0335188255255,-9.64863327495,1.0,0.0,0.0,0.0,1.0,0.0,0.0,0.0,1.0
1463563134912481177,701,1463563134882264899,,2.16071987152,-5.28609895706,46.3558921814,0.0100499996915,1.0,0.0,0.0,0.0,1.0,0.0,0.0,0.0,1.0,4.2682929039,-58.9024391174,-44.0853652954,1.0,0.0,0.0,0.0,1.0,0.0,0.0,0.0,1.0,-2.06859023437,-0.258573779297,-9.70609353027,1.0,0.0,0.0,0.0,1.0,0.0,0.0,0.0,1.0
1463563135275457131,702,1463563134892487531,,2.24224901199,-5.90437078476,45.9357032776,0.0101629998535,1.0,0.0,0.0,0.0,1.0,0.0,0.0,0.0,1.0,5.18292713165,-58.0487823486,-39.817073822,1.0,0.0,0.0,0.0,1.0,0.0,0.0,0.0,1.0,-2.03028300781,-0.531512805087,-9.89762966309,1.0,0.0,0.0,0.0,1.0,0.0,0.0,0.0,1.0
1463563135276531150,703,1463563134903043968,,2.33159947395,-6.51330566406,45.5728187561,0.0100899999961,1.0,0.0,0.0,0.0,1.0,0.0,0.0,0.0,1.0,5.06097555161,-56.6463394165,-34.2682952881,1.0,0.0,0.0,0.0,1.0,0.0,0.0,0.0,1.0,-2.23139594727,-0.727837304687,-9.66299848491,1.0,0.0,0.0,0.0,1.0,0.0,0.0,0.0,1.0
1463563135277768035,704,1463563134913694623,,2.40769839287,-7.17772579193,45.2251091003,0.0112370001152,1.0,0.0,0.0,0.0,1.0,0.0,0.0,0.0,1.0,4.63414621353,-54.5121955872,-29.3902435303,1.0,0.0,0.0,0.0,1.0,0.0,0.0,0.0,1.0,-2.53306535645,-0.497993945312,-9.88805285645,1.0,0.0,0.0,0.0,1.0,0.0,0.0,0.0,1.0
1463563135279252004,705,1463563134922695006,,2.46354413033,-7.68381118774,44.9780387878,0.0090460004285,1.0,0.0,0.0,0.0,1.0,0.0,0.0,0.0,1.0,4.45121955872,-52.8048782349,-25.7926845551,1.0,0.0,0.0,0.0,1.0,0.0,0.0,0.0,1.0,-2.40856701625,-0.474051928711,-10.1035310059,1.0,0.0,0.0,0.0,1.0,0.0,0.0,0.0,1.0
1463563135279844509,706,1463563134932752116,,2.51593160629,-8.23196792603,44.7454490662,0.00997199956328,1.0,0.0,0.0,0.0,1.0,0.0,0.0,0.0,1.0,4.75609779358,-51.1585388184,-21.9512195587,1.0,0.0,0.0,0.0,1.0,0.0,0.0,0.0,1.0,-2.54743056641,-0.3064578125,-9.88805285645,1.0,0.0,0.0,0.0,1.0,0.0,0.0,0.0,1.0
1463563135280162220,707,1463563134945555705,,2.57998228073,-8.77661895752,44.54920578,0.0101789999753,1.0,0.0,0.0,0.0,1.0,0.0,0.0,0.0,1.0,5.12195110321,-47.8658561707,-17.8658542633,1.0,0.0,0.0,0.0,1.0,0.0,0.0,0.0,1.0,-3.02148249512,-0.517147558594,-10.0652237793,1.0,0.0,0.0,0.0,1.0,0.0,0.0,0.0,1.0
1463563135280442274,708,1463563134953007586,,2.64971184731,-9.28127861023,44.3837966919,0.0100739998743,1.0,0.0,0.0,0.0,1.0,0.0,0.0,0.0,1.0,4.14634132385,-44.5121955872,-14.8170728683,1.0,0.0,0.0,0.0,1.0,0.0,0.0,0.0,1.0,-3.05500131836,-0.871489404297,-9.92636008301,1.0,0.0,0.0,0.0,1.0,0.0,0.0,0.0,1.0
1463563135280751495,709,1463563134962980893,,2.70006513596,-9.74980163574,44.2602348328,0.010098000057,1.0,0.0,0.0,0.0,1.0,0.0,0.0,0.0,1.0,2.56097555161,-41.0365867615,-10.7317075729,1.0,0.0,0.0,0.0,1.0,0.0,0.0,0.0,1.0,-3.07894333496,-0.92416184082,-9.94072529297,1.0,0.0,0.0,0.0,1.0,0.0,0.0,0.0,1.0
1463563135281105196,710,1463563134973150556,,2.72668266296,-10.1826887131,44.1721839905,0.0101009998471,1.0,0.0,0.0,0.0,1.0,0.0,0.0,0.0,1.0,1.2804877758,-38.0487823486,-7.43902492523,1.0,0.0,0.0,0.0,1.0,0.0,0.0,0.0,1.0,-3.09809694824,-0.847547387695,-10.165780249,1.0,0.0,0.0,0.0,1.0,0.0,0.0,0.0,1.0
1463563135281482907,711,1463563134984758875,,2.73315000534,-10.6137599945,44.1031684875,0.0112129999325,1.0,0.0,0.0,0.0,1.0,0.0,0.0,0.0,1.0,-0.12195122242,-35.3048782349,-5.06097555161,1.0,0.0,0.0,0.0,1.0,0.0,0.0,0.0,1.0,-2.94486804199,-0.833182177734,-10.5727945312,1.0,0.0,0.0,0.0,1.0,0.0,0.0,0.0,1.0
1463563135281864525,712,1463563134993435245,,2.73049736023,-10.9328079224,44.061126709,0.00894400011748,1.0,0.0,0.0,0.0,1.0,0.0,0.0,0.0,1.0,-0.365853667259,-33.2926826477,-3.7804877758,1.0,0.0,0.0,0.0,1.0,0.0,0.0,0.0,1.0,-2.92092602539,-0.77093293457,-10.7834842773,1.0,0.0,0.0,0.0,1.0,0.0,0.0,0.0,1.0
1463563135282204423,713,1463563135003870274,,2.73207092285,-11.2742471695,44.0162620544,0.0101370001212,1.0,0.0,0.0,0.0,1.0,0.0,0.0,0.0,1.0,-0.853658556938,-32.4390220642,-3.35365867615,1.0,0.0,0.0,0.0,1.0,0.0,0.0,0.0,1.0,-2.81558115234,-0.986411083984,-11.03248125,1.0,0.0,0.0,0.0,1.0,0.0,0.0,0.0,1.0
1463563135282506144,714,1463563135013502120,,2.72775697708,-11.5988502502,43.9825515747,0.0100899999961,1.0,0.0,0.0,0.0,1.0,0.0,0.0,0.0,1.0,-2.98780488968,-31.7682914734,-1.95121955872,1.0,0.0,0.0,0.0,1.0,0.0,0.0,0.0,1.0,-2.72938989258,-1.35990654297,-11.1426145264,1.0,0.0,0.0,0.0,1.0,0.0,0.0,0.0,1.0
1463563135282776615,715,1463563135023485636,,2.69677376747,-11.9389781952,43.9693603516,0.0101190004498,1.0,0.0,0.0,0.0,1.0,0.0,0.0,0.0,1.0,-6.58536624908,-30.975610733,0.304878056049,1.0,0.0,0.0,0.0,1.0,0.0,0.0,0.0,1.0,-3.18428820801,-1.62326872559,-10.898405957,1.0,0.0,0.0,0.0,1.0,0.0,0.0,0.0,1.0
1463563135283026721,716,1463563135033678423,,2.62868404388,-12.2551221848,43.9832267761,0.0100779999048,1.0,0.0,0.0,0.0,1.0,0.0,0.0,0.0,1.0,-8.04878044128,-29.3292694092,2.5,1.0,0.0,0.0,0.0,1.0,0.0,0.0,0.0,1.0,-3.19865341797,-1.30723410645,-11.2431709961,1.0,0.0,0.0,0.0,1.0,0.0,0.0,0.0,1.0
1463563135283308859,717,1463563135043845378,,2.53297114372,-12.5505104065,44.0240592957,0.0100830001757,1.0,0.0,0.0,0.0,1.0,0.0,0.0,0.0,1.0,-10.3658542633,-26.5243911743,5.0,1.0,0.0,0.0,0.0,1.0,0.0,0.0,0.0,1.0,-3.3470939209,-1.31202250977,-11.0660000732,1.0,0.0,0.0,0.0,1.0,0.0,0.0,0.0,1.0
1463563135283569851,718,1463563135054296501,,2.39695310593,-12.8326940536,44.0950660706,0.0106260003522,1.0,0.0,0.0,0.0,1.0,0.0,0.0,0.0,1.0,-12.8658542633,-24.0243911743,7.37804937363,1.0,0.0,0.0,0.0,1.0,0.0,0.0,0.0,1.0,-3.33751711426,-1.2497732666,-11.0707884766,1.0,0.0,0.0,0.0,1.0,0.0,0.0,0.0,1.0
1463563135283831884,719,1463563135065348254,,2.24122142792,-13.0750961304,44.1818962097,0.00977700017393,1.0,0.0,0.0,0.0,1.0,0.0,0.0,0.0,1.0,-14.2073173523,-23.0487823486,9.14634132385,1.0,0.0,0.0,0.0,1.0,0.0,0.0,0.0,1.0,-3.14119257812,-0.933738647461,-10.8265799072,1.0,0.0,0.0,0.0,1.0,0.0,0.0,0.0,1.0
1463563135284213606,720,1463563135074144103,,2.06683802605,-13.2880811691,44.2897987366,0.00988799985498,1.0,0.0,0.0,0.0,1.0,0.0,0.0,0.0,1.0,-14.3902444839,-20.6097564697,10.7317075729,1.0,0.0,0.0,0.0,1.0,0.0,0.0,0.0,1.0,-2.93529123535,-0.675164868164,-10.553640918,1.0,0.0,0.0,0.0,1.0,0.0,0.0,0.0,1.0
1463563135284582358,721,1463563135084164702,,1.88457715511,-13.5076255798,44.4152297974,0.0101190004498,1.0,0.0,0.0,0.0,1.0,0.0,0.0,0.0,1.0,-13.5975618362,-19.6951236725,11.8902444839,1.0,0.0,0.0,0.0,1.0,0.0,0.0,0.0,1.0,-3.16513459473,-0.483628735352,-10.4674496582,1.0,0.0,0.0,0.0,1.0,0.0,0.0,0.0,1.0
1463563135284886632,722,1463563135094344990,,1.70839834213,-13.7065553665,44.5627975464,0.010150000453,1.0,0.0,0.0,0.0,1.0,0.0,0.0,0.0,1.0,-11.9512195587,-19.0243911743,13.7804880142,1.0,0.0,0.0,0.0,1.0,0.0,0.0,0.0,1.0,-2.93050283203,-0.363918652344,-10.5153336914,1.0,0.0,0.0,0.0,1.0,0.0,0.0,0.0,1.0
1463563135285277364,723,1463563135104312516,,1.55152010918,-13.8898849487,44.7248382568,0.0100769996643,1.0,0.0,0.0,0.0,1.0,0.0,0.0,0.0,1.0,-9.63414573669,-18.7804889679,15.1829271317,1.0,0.0,0.0,0.0,1.0,0.0,0.0,0.0,1.0,-2.75333190918,-0.31124621582,-10.5727945312,1.0,0.0,0.0,0.0,1.0,0.0,0.0,0.0,1.0
1463563135285584918,724,1463563135114676346,,1.43339812756,-14.0587282181,44.9120483398,0.010156000033,1.0,0.0,0.0,0.0,1.0,0.0,0.0,0.0,1.0,-5.54878091812,-19.8780498505,17.5609760284,1.0,0.0,0.0,0.0,1.0,0.0,0.0,0.0,1.0,-2.27927998047,-0.378283862305,-10.6637741943,1.0,0.0,0.0,0.0,1.0,0.0,0.0,0.0,1.0
1463563135285892681,725,1463563135124683560,,1.34521436691,-14.2233333588,45.1171913147,0.0100170001388,1.0,0.0,0.0,0.0,1.0,0.0,0.0,0.0,1.0,-2.56097555161,-21.2804889679,19.6341457367,1.0,0.0,0.0,0.0,1.0,0.0,0.0,0.0,1.0,-2.04943662109,-0.445321508789,-10.9462899902,1.0,0.0,0.0,0.0,1.0,0.0,0.0,0.0,1.0
1463563135286212736,726,1463563135135495363,,1.28173601627,-14.4180440903,45.3541107178,0.010158999823,1.0,0.0,0.0,0.0,1.0,0.0,0.0,0.0,1.0,1.2195122242,-24.9390239716,22.3170719147,1.0,0.0,0.0,0.0,1.0,0.0,0.0,0.0,1.0,-1.8866309082,-0.335188232422,-10.9223479736,1.0,0.0,0.0,0.0,1.0,0.0,0.0,0.0,1.0
1463563135286514613,727,1463563135145117625,,1.25393712521,-14.6218366623,45.6036071777,0.0100549999624,1.0,0.0,0.0,0.0,1.0,0.0,0.0,0.0,1.0,3.59756112099,-28.5365848541,24.2073173523,1.0,0.0,0.0,0.0,1.0,0.0,0.0,0.0,1.0,-1.42694418945,-0.636857641602,-10.927136377,1.0,0.0,0.0,0.0,1.0,0.0,0.0,0.0,1.0
1463563135286823157,728,1463563135155087130,,1.23096644878,-14.8779621124,45.8817749023,0.0100910002366,1.0,0.0,0.0,0.0,1.0,0.0,0.0,0.0,1.0,3.41463422775,-32.5609779358,27.317073822,1.0,0.0,0.0,0.0,1.0,0.0,0.0,0.0,1.0,-1.74297880859,-0.972045874023,-11.3963999023,1.0,0.0,0.0,0.0,1.0,0.0,0.0,0.0,1.0
1463563135287176233,729,1463563135164896790,,1.21542215347,-15.1557950974,46.1812210083,0.0101100001484,1.0,0.0,0.0,0.0,1.0,0.0,0.0,0.0,1.0,3.10975623131,-36.7073173523,29.8170719147,1.0,0.0,0.0,0.0,1.0,0.0,0.0,0.0,1.0,-1.35032973633,-1.31681091309,-11.3149970459,1.0,0.0,0.0,0.0,1.0,0.0,0.0,0.0,1.0
1463563135288772495,730,1463563135175268954,,1.1798813343,-15.4706630707,46.5117149353,0.0101009998471,1.0,0.0,0.0,0.0,1.0,0.0,0.0,0.0,1.0,-0.975609779358,-41.4024391174,33.7195129395,1.0,0.0,0.0,0.0,1.0,0.0,0.0,0.0,1.0,-1.1540052002,-1.93451494141,-11.1090957031,1.0,0.0,0.0,0.0,1.0,0.0,0.0,0.0,1.0
1463563135289164894,731,1463563135185063301,,1.06768643856,-15.8300619125,46.8863182068,0.0101020000875,1.0,0.0,0.0,0.0,1.0,0.0,0.0,0.0,1.0,-6.40243911743,-46.1585388184,37.7439041138,1.0,0.0,0.0,0.0,1.0,0.0,0.0,0.0,1.0,-1.14921679688,-1.77170922852,-11.1809217529,1.0,0.0,0.0,0.0,1.0,0.0,0.0,0.0,1.0
1463563135289834795,732,1463563135195429372,,0.870005249977,-16.2123966217,47.314617157,0.0100750001147,1.0,0.0,0.0,0.0,1.0,0.0,0.0,0.0,1.0,-9.81707286835,-50.7317085266,41.9512214661,1.0,0.0,0.0,0.0,1.0,0.0,0.0,0.0,1.0,-0.794874951172,-1.04387185076,-11.2240173828,1.0,0.0,0.0,0.0,1.0,0.0,0.0,0.0,1.0
1463563135290158704,733,1463563135205451533,,0.649974107742,-16.6596984863,47.7713546753,0.0102300001308,1.0,0.0,0.0,0.0,1.0,0.0,0.0,0.0,1.0,-9.87804889679,-58.1707344055,43.5975608826,1.0,0.0,0.0,0.0,1.0,0.0,0.0,0.0,1.0,-0.541089611728,-0.780509741211,-10.7834842773,1.0,0.0,0.0,0.0,1.0,0.0,0.0,0.0,1.0
1463563135290432456,734,1463563135215711249,,0.419818013906,-17.1582508087,48.2544059753,0.0101570002735,1.0,0.0,0.0,0.0,1.0,0.0,0.0,0.0,1.0,-8.41463470459,-65.6707305908,45.7317085266,1.0,0.0,0.0,0.0,1.0,0.0,0.0,0.0,1.0,-0.229843359375,-0.440533105469,-10.3668931885,1.0,0.0,0.0,0.0,1.0,0.0,0.0,0.0,1.0
1463563135291016679,735,1463563135226183987,,0.199630394578,-17.7246189117,48.7375297546,0.0099419998005,1.0,0.0,0.0,0.0,1.0,0.0,0.0,0.0,1.0,-6.21951246262,-72.4390258789,46.0975646973,1.0,0.0,0.0,0.0,1.0,0.0,0.0,0.0,1.0,-0.545877978516,-0.210689746094,-9.98382092285,1.0,0.0,0.0,0.0,1.0,0.0,0.0,0.0,1.0
1463563135291348974,736,1463563135235869114,,0.00620462652296,-18.3611030579,49.2464256287,0.0101079996675,1.0,0.0,0.0,0.0,1.0,0.0,0.0,0.0,1.0,-2.74390244484,-80.3048858643,47.5609779358,1.0,0.0,0.0,0.0,1.0,0.0,0.0,0.0,1.0,-0.335188232422,-0.277727392578,-9.96466730957,1.0,0.0,0.0,0.0,1.0,0.0,0.0,0.0,1.0
1463563135291722518,737,1463563135245868567,,-0.141763210297,-19.0498447418,49.7428512573,0.0101300003007,1.0,0.0,0.0,0.0,1.0,0.0,0.0,0.0,1.0,-1.2804877758,-86.7073135376,46.9512214661,1.0,0.0,0.0,0.0,1.0,0.0,0.0,0.0,1.0,-0.210689746094,-0.837970581055,-9.94551369629,1.0,0.0,0.0,0.0,1.0,0.0,0.0,0.0,1.0
1463563135292045906,738,1463563135256126616,,-0.281009078026,-19.8025760651,50.2351570129,0.0100750001147,1.0,0.0,0.0,0.0,1.0,0.0,0.0,0.0,1.0,-1.40243899822,-93.0487823486,46.9512214661,1.0,0.0,0.0,0.0,1.0,0.0,0.0,0.0,1.0,-0.416591088867,-1.08696755371,-9.92636008301,1.0,0.0,0.0,0.0,1.0,0.0,0.0,0.0,1.0
1463563135292361638,739,1463563135266271330,,-0.456747978926,-20.6332874298,50.7424545288,0.010108999908,1.0,0.0,0.0,0.0,1.0,0.0,0.0,0.0,1.0,-1.95121955872,-98.7195129395,47.0731697083,1.0,0.0,0.0,0.0,1.0,0.0,0.0,0.0,1.0,-0.900219824219,-0.699106884766,-9.79707319336,1.0,0.0,0.0,0.0,1.0,0.0,0.0,0.0,1.0
1463563135292674036,740,1463563135276414066,,-0.641604721546,-21.5105686188,51.2562179565,0.0102450000122,1.0,0.0,0.0,0.0,1.0,0.0,0.0,0.0,1.0,0.792682945728,-101.768295288,45.4878082275,1.0,0.0,0.0,0.0,1.0,0.0,0.0,0.0,1.0,-1.14442839355,-0.167594116211,-9.73961235352,1.0,0.0,0.0,0.0,1.0,0.0,0.0,0.0,1.0
1463563135292964455,741,1463563135286835449,,-0.778843641281,-22.392698288,51.7338981628,0.00996000040323,1.0,0.0,0.0,0.0,1.0,0.0,0.0,0.0,1.0,4.08536577225,-104.756103516,43.2317085266,1.0,0.0,0.0,0.0,1.0,0.0,0.0,0.0,1.0,-1.26413847656,-0.292092584273,-9.42357714985,1.0,0.0,0.0,0.0,1.0,0.0,0.0,0.0,1.0
1463563135383510630,742,1463563135296424170,,-0.905481100082,-23.2859630585,52.2041244507,0.0100739998743,1.0,0.0,0.0,0.0,1.0,0.0,0.0,0.0,1.0,6.70731735229,-106.89025116,41.0365867615,1.0,0.0,0.0,0.0,1.0,0.0,0.0,0.0,1.0,-1.04387185076,-0.0478840332031,-9.13148513184,1.0,0.0,0.0,0.0,1.0,0.0,0.0,0.0,1.0
1463563135383838497,743,1463563135306553207,,-0.99231159687,-24.1953258514,52.6518783569,0.0101049998775,1.0,0.0,0.0,0.0,1.0,0.0,0.0,0.0,1.0,10.0,-109.634147644,38.5365829468,1.0,0.0,0.0,0.0,1.0,0.0,0.0,0.0,1.0,-0.900219824219,-0.0957680664062,-8.61912656108,1.0,0.0,0.0,0.0,1.0,0.0,0.0,0.0,1.0
1463563135384165062,744,1463563135316641098,,-1.0483379364,-25.1348514557,53.0742759705,0.0101340003312,1.0,0.0,0.0,0.0,1.0,0.0,0.0,0.0,1.0,11.6463422775,-111.707321167,36.1585350037,1.0,0.0,0.0,0.0,1.0,0.0,0.0,0.0,1.0,-1.11569797363,-0.244208569336,-8.40843564595,1.0,0.0,0.0,0.0,1.0,0.0,0.0,0.0,1.0
1463563135384514231,745,1463563135326448258,,-1.06789946556,-26.0786895752,53.4572982788,0.0100520001724,1.0,0.0,0.0,0.0,1.0,0.0,0.0,0.0,1.0,11.1585359573,-113.048782349,34.0853691101,1.0,0.0,0.0,0.0,1.0,0.0,0.0,0.0,1.0,-1.16358193377,-0.732625708008,-8.04451757812,1.0,0.0,0.0,0.0,1.0,0.0,0.0,0.0,1.0
1463563135384823661,746,1463563135336834120,,-1.07562994957,-27.0282649994,53.815952301,0.0101669998839,1.0,0.0,0.0,0.0,1.0,0.0,0.0,0.0,1.0,7.19512224197,-111.402442932,33.5975608826,1.0,0.0,0.0,0.0,1.0,0.0,0.0,0.0,1.0,-1.43652099609,-1.47482822266,-8.0157871582,1.0,0.0,0.0,0.0,1.0,0.0,0.0,0.0,1.0
1463563135385136892,747,1463563135346968574,,-1.15065562725,-27.9649353027,54.164352417,0.0100579997525,1.0,0.0,0.0,0.0,1.0,0.0,0.0,0.0,1.0,-0.18292683363,-109.39024353,33.4146347046,1.0,0.0,0.0,0.0,1.0,0.0,0.0,0.0,1.0,-1.84832368164,-1.66636435547,-8.04930598145,1.0,0.0,0.0,0.0,1.0,0.0,0.0,0.0,1.0
1463563135385523093,748,1463563135356817036,,-1.318177104,-28.8842658997,54.5134239197,0.0100840004161,1.0,0.0,0.0,0.0,1.0,0.0,0.0,0.0,1.0,-7.80487823486,-107.5,32.6219520569,1.0,0.0,0.0,0.0,1.0,0.0,0.0,0.0,1.0,-2.00155258789,-1.49877023926,-8.07324799805,1.0,0.0,0.0,0.0,1.0,0.0,0.0,0.0,1.0
1463563135385830648,749,1463563135367233315,,-1.59218752384,-29.7638168335,54.8770103455,0.0101410001516,1.0,0.0,0.0,0.0,1.0,0.0,0.0,0.0,1.0,-11.8902444839,-103.597564697,30.4268321991,1.0,0.0,0.0,0.0,1.0,0.0,0.0,0.0,1.0,-2.1691467041,-0.603338854892,-8.30787917622,1.0,0.0,0.0,0.0,1.0,0.0,0.0,0.0,1.0
1463563135418140900,750,1463563135377137143,,-1.89253365993,-30.5939750671,55.229309082,0.0101410001516,1.0,0.0,0.0,0.0,1.0,0.0,0.0,0.0,1.0,-11.0975618362,-99.7560958862,26.8902454376,1.0,0.0,0.0,0.0,1.0,0.0,0.0,0.0,1.0,-2.25054956055,0.0430956298828,-8.63828017437,1.0,0.0,0.0,0.0,1.0,0.0,0.0,0.0,1.0
1463563135418198921,751,1463563135387682798,,-2.13939404488,-31.3634414673,55.5283088684,0.0100029995665,1.0,0.0,0.0,0.0,1.0,0.0,0.0,0.0,1.0,-6.82926845551,-95.6097564697,21.341463089,1.0,0.0,0.0,0.0,1.0,0.0,0.0,0.0,1.0,-2.27449157715,0.349553442383,-8.74841286621,1.0,0.0,0.0,0.0,1.0,0.0,0.0,0.0,1.0
1463563135418238088,752,1463563135397206414,,-2.31762886047,-32.11951828,55.7755050659,0.010169999674,1.0,0.0,0.0,0.0,1.0,0.0,0.0,0.0,1.0,-4.02439022064,-91.6463470459,17.2560977936,1.0,0.0,0.0,0.0,1.0,0.0,0.0,0.0,1.0,-2.61925661621,0.0574608398438,-8.72925925293,1.0,0.0,0.0,0.0,1.0,0.0,0.0,0.0,1.0
1463563135418290692,753,1463563135407310711,,-2.43269228935,-32.8153572083,55.962726593,0.0100520001724,1.0,0.0,0.0,0.0,1.0,0.0,0.0,0.0,1.0,-3.17073178291,-86.5243911743,13.841463089,1.0,0.0,0.0,0.0,1.0,0.0,0.0,0.0,1.0,-2.8060043457,-0.397437475586,-9.03092866211,1.0,0.0,0.0,0.0,1.0,0.0,0.0,0.0,1.0
1463563135455360044,754,1463563135418046628,,-2.51329493523,-33.4501075745,56.0982322693,0.0101309996098,1.0,0.0,0.0,0.0,1.0,0.0,0.0,0.0,1.0,-4.75609779358,-79.5121994019,11.0975618362,1.0,0.0,0.0,0.0,1.0,0.0,0.0,0.0,1.0,-3.03584770508,-0.890643017578,-9.23683000488,1.0,0.0,0.0,0.0,1.0,0.0,0.0,0.0,1.0
1463563135455408638,755,1463563135427748058,,-2.60836338997,-33.9969978333,56.2065505981,0.0100769996643,1.0,0.0,0.0,0.0,1.0,0.0,0.0,0.0,1.0,-8.65853691101,-71.5853652954,9.87804889679,1.0,0.0,0.0,0.0,1.0,0.0,0.0,0.0,1.0,-3.064578125,-1.12048637695,-9.30865547017,1.0,0.0,0.0,0.0,1.0,0.0,0.0,0.0,1.0
1463563135455449107,756,1463563135437601208,,-2.72825336456,-34.4622879028,56.2973709106,0.0101009998471,1.0,0.0,0.0,0.0,1.0,0.0,0.0,0.0,1.0,-11.8902444839,-65.365852356,8.5365858078,1.0,0.0,0.0,0.0,1.0,0.0,0.0,0.0,1.0,-2.79642753906,-1.08217922346,-9.38048151997,1.0,0.0,0.0,0.0,1.0,0.0,0.0,0.0,1.0
1463563135455490670,757,1463563135448048529,,-2.87966918945,-34.8140220642,56.3751487732,0.0101140001789,1.0,0.0,0.0,0.0,1.0,0.0,0.0,0.0,1.0,-14.3902444839,-57.6829299927,6.82926845551,1.0,0.0,0.0,0.0,1.0,0.0,0.0,0.0,1.0,-2.22181914063,-0.780509741211,-9.48582756206,1.0,0.0,0.0,0.0,1.0,0.0,0.0,0.0,1.0
1463563135460256540,758,1463563135457860272,,-3.02060580254,-35.1076469421,56.425983429,0.0100870002061,1.0,0.0,0.0,0.0,1.0,0.0,0.0,0.0,1.0,-15.3658533096,-52.8658561707,5.12195110321,1.0,0.0,0.0,0.0,1.0,0.0,0.0,0.0,1.0,-2.13083962367,-0.871489404297,-9.62469125835,1.0,0.0,0.0,0.0,1.0,0.0,0.0,0.0,1.0
1463563135470895686,759,1463563135468335406,,-3.13983607292,-35.362361908,56.4344711304,0.0101129999384,1.0,0.0,0.0,0.0,1.0,0.0,0.0,0.0,1.0,-17.5609760284,-47.3780517578,3.29268312454,1.0,0.0,0.0,0.0,1.0,0.0,0.0,0.0,1.0,-2.40377861293,-1.27850368652,-9.50498117534,1.0,0.0,0.0,0.0,1.0,0.0,0.0,0.0,1.0
1463563135515946923,760,1463563135478815591,,-3.28459525108,-35.5380096436,56.4237785339,0.0101049998775,1.0,0.0,0.0,0.0,1.0,0.0,0.0,0.0,1.0,-20.0,-40.2439041138,1.2195122242,1.0,0.0,0.0,0.0,1.0,0.0,0.0,0.0,1.0,-2.35110588414,-1.01035310059,-9.64863327495,1.0,0.0,0.0,0.0,1.0,0.0,0.0,0.0,1.0
1463563135516272758,761,1463563135489186453,,-3.46211647987,-35.662071228,56.412021637,0.0101309996098,1.0,0.0,0.0,0.0,1.0,0.0,0.0,0.0,1.0,-21.0975627899,-34.6951217651,-0.18292683363,1.0,0.0,0.0,0.0,1.0,0.0,0.0,0.0,1.0,-2.48039291992,-0.517147558594,-9.66299848491,1.0,0.0,0.0,0.0,1.0,0.0,0.0,0.0,1.0
1463563135516651095,762,1463563135499157104,,-3.60497903824,-35.6861534119,56.3600540161,0.010869000107,1.0,0.0,0.0,0.0,1.0,0.0,0.0,0.0,1.0,-19.5121955872,-27.9268302917,-2.31707310677,1.0,0.0,0.0,0.0,1.0,0.0,0.0,0.0,1.0,-1.8866309082,-0.636857641602,-9.97424411621,1.0,0.0,0.0,0.0,1.0,0.0,0.0,0.0,1.0
1463563135517489487,763,1463563135509173016,,-3.85959672928,-35.6157302856,56.389465332,0.009282999672,1.0,0.0,0.0,0.0,1.0,0.0,0.0,0.0,1.0,-17.2560977936,-22.9268302917,-4.2682929039,1.0,0.0,0.0,0.0,1.0,0.0,0.0,0.0,1.0,-0.713472094727,1.65199914551,-8.07803640137,1.0,0.0,0.0,0.0,1.0,0.0,0.0,0.0,1.0
1463563135642689317,764,1463563135518563766,,-4.00324010849,-35.9720458984,56.3141593933,0.0100819999352,1.0,0.0,0.0,0.0,1.0,0.0,0.0,0.0,1.0,-13.5365858078,-25.4878044128,-10.7317075729,1.0,0.0,0.0,0.0,1.0,0.0,0.0,0.0,1.0,-8.76277807617,1.33117612305,-8.0397291748,1.0,0.0,0.0,0.0,1.0,0.0,0.0,0.0,1.0
1463563135643011976,765,1463563135528478010,,-4.00092554092,-35.7393264771,56.1908111572,0.0101209999993,1.0,0.0,0.0,0.0,1.0,0.0,0.0,0.0,1.0,-5.97560977936,-5.24390268326,-10.3048782349,1.0,0.0,0.0,0.0,1.0,0.0,0.0,0.0,1.0,-1.26413847656,0.440533105469,-9.43794235981,1.0,0.0,0.0,0.0,1.0,0.0,0.0,0.0,1.0
1463563135643321874,766,1463563135538923404,,-3.98855948448,-35.3071632385,55.9938201904,0.0104940002784,1.0,0.0,0.0,0.0,1.0,0.0,0.0,0.0,1.0,-10.6707315445,9.87804889679,-13.3536586761,1.0,0.0,0.0,0.0,1.0,0.0,0.0,0.0,1.0,-0.732625708008,0.0814028564453,-12.4163298096,1.0,0.0,0.0,0.0,1.0,0.0,0.0,0.0,1.0
1463563135643677606,767,1463563135548847127,,-3.92606806755,-35.0347518921,55.7800979614,0.00984700024128,1.0,0.0,0.0,0.0,1.0,0.0,0.0,0.0,1.0,-9.32926845551,-1.2804877758,-15.0000009537,1.0,0.0,0.0,0.0,1.0,0.0,0.0,0.0,1.0,-1.36469494629,-0.598550451572,-14.0204449219,1.0,0.0,0.0,0.0,1.0,0.0,0.0,0.0,1.0
1463563135643991254,768,1463563135562496035,,-3.76609778404,-34.7595977783,55.4602470398,0.00996300019324,1.0,0.0,0.0,0.0,1.0,0.0,0.0,0.0,1.0,-12.7439022064,8.04878044128,-17.8658542633,1.0,0.0,0.0,0.0,1.0,0.0,0.0,0.0,1.0,-2.23618435059,-1.82438166504,-8.49941647808,1.0,0.0,0.0,0.0,1.0,0.0,0.0,0.0,1.0
1463563135644281777,769,1463563135569669008,,-3.70168328285,-34.3372192383,55.1621665955,0.0101009998471,1.0,0.0,0.0,0.0,1.0,0.0,0.0,0.0,1.0,-12.9268293381,17.8658542633,-20.8536586761,1.0,0.0,0.0,0.0,1.0,0.0,0.0,0.0,1.0,-1.8626888916,-0.339976635742,-10.2519715088,1.0,0.0,0.0,0.0,1.0,0.0,0.0,0.0,1.0
1463563135644559644,770,1463563135579191166,,-3.6113653183,-33.8262939453,54.8628616333,0.0101020000875,1.0,0.0,0.0,0.0,1.0,0.0,0.0,0.0,1.0,-13.841463089,15.7317075729,-18.841463089,1.0,0.0,0.0,0.0,1.0,0.0,0.0,0.0,1.0,0.837970581055,-1.60890351563,-14.4992852539,1.0,0.0,0.0,0.0,1.0,0.0,0.0,0.0,1.0
1463563135644826365,771,1463563135589195202,,-3.56507301331,-33.2834968567,54.5573387146,0.0101020000875,1.0,0.0,0.0,0.0,1.0,0.0,0.0,0.0,1.0,-15.2439022064,23.475610733,-21.2195129395,1.0,0.0,0.0,0.0,1.0,0.0,0.0,0.0,1.0,-0.407014282227,-0.502782348633,-11.2671130127,1.0,0.0,0.0,0.0,1.0,0.0,0.0,0.0,1.0
1463563135645112877,772,1463563135599309708,,-3.67425775528,-32.7940216064,54.3233337402,0.010098000057,1.0,0.0,0.0,0.0,1.0,0.0,0.0,0.0,1.0,-16.5243911743,21.0975627899,-22.2560977936,1.0,0.0,0.0,0.0,1.0,0.0,0.0,0.0,1.0,-0.814028564453,1.62326872559,-9.55765361187,1.0,0.0,0.0,0.0,1.0,0.0,0.0,0.0,1.0
1463563135647295863,773,1463563135609574111,,-3.5474190712,-32.2028388977,53.9366111755,0.010108999908,1.0,0.0,0.0,0.0,1.0,0.0,0.0,0.0,1.0,-17.6829280853,29.4512195587,-23.7804889679,1.0,0.0,0.0,0.0,1.0,0.0,0.0,0.0,1.0,-0.301669427446,-2.3415290775,-12.6749035889,1.0,0.0,0.0,0.0,1.0,0.0,0.0,0.0,1.0
1463563135647634980,774,1463563135619854660,,-3.33245706558,-31.7207927704,53.495262146,0.0101020000875,1.0,0.0,0.0,0.0,1.0,0.0,0.0,0.0,1.0,-15.3658533096,25.9146347046,-26.5853652954,1.0,0.0,0.0,0.0,1.0,0.0,0.0,0.0,1.0,-1.98239897461,-3.68707055664,-13.3021844238,1.0,0.0,0.0,0.0,1.0,0.0,0.0,0.0,1.0
1463563135647913889,775,1463563135629567756,,-3.25747489929,-31.1323509216,53.0875701904,0.0100840004161,1.0,0.0,0.0,0.0,1.0,0.0,0.0,0.0,1.0,-13.048781395,34.0243911743,-32.6219520569,1.0,0.0,0.0,0.0,1.0,0.0,0.0,0.0,1.0,-1.38384855957,0.378283862305,-12.5360398926,1.0,0.0,0.0,0.0,1.0,0.0,0.0,0.0,1.0
1463563135852241263,776,1463563135639757419,,-3.16851425171,-30.4052906036,52.6686897278,0.0101319998503,1.0,0.0,0.0,0.0,1.0,0.0,0.0,0.0,1.0,-6.89024400711,40.9146385193,-36.3414611816,1.0,0.0,0.0,0.0,1.0,0.0,0.0,0.0,1.0,0.421379492187,1.46525141602,-11.1857101562,1.0,0.0,0.0,0.0,1.0,0.0,0.0,0.0,1.0
1463563135852551942,777,1463563135649918644,,-3.00714969635,-29.7640895844,52.2027168274,0.0100990002975,1.0,0.0,0.0,0.0,1.0,0.0,0.0,0.0,1.0,-1.64634156227,38.2926864624,-40.9146385193,1.0,0.0,0.0,0.0,1.0,0.0,0.0,0.0,1.0,-0.727837304687,1.50355864258,-11.6358200684,1.0,0.0,0.0,0.0,1.0,0.0,0.0,0.0,1.0
1463563135852856684,778,1463563135660149505,,-2.8938293457,-28.9864997864,51.7078590393,0.0100720003247,1.0,0.0,0.0,0.0,1.0,0.0,0.0,0.0,1.0,2.25609779358,47.0121994019,-48.9634170532,1.0,0.0,0.0,0.0,1.0,0.0,0.0,0.0,1.0,1.06781401349,4.33350529714,-12.871228125,1.0,0.0,0.0,0.0,1.0,0.0,0.0,0.0,1.0
1463563135853138353,779,1463563135670497242,,-2.43077850342,-28.2735919952,51.0695343018,0.0101260002702,1.0,0.0,0.0,0.0,1.0,0.0,0.0,0.0,1.0,4.39024400711,43.5975608826,-47.0121994019,1.0,0.0,0.0,0.0,1.0,0.0,0.0,0.0,1.0,0.191536132812,-3.25132585449,-14.7387054199,1.0,0.0,0.0,0.0,1.0,0.0,0.0,0.0,1.0
1463563135855239672,780,1463563135679949191,,-2.03674435616,-27.5279006958,50.4432754517,0.0100760003552,1.0,0.0,0.0,0.0,1.0,0.0,0.0,0.0,1.0,-0.243902444839,53.5975608826,-47.1951255798,1.0,0.0,0.0,0.0,1.0,0.0,0.0,0.0,1.0,-2.08295529821,-3.87381828613,-18.4592947998,1.0,0.0,0.0,0.0,1.0,0.0,0.0,0.0,1.0
1463563135855559362,781,1463563135690886411,,-1.91591382027,-26.713388443,49.9476623535,0.0100990002975,1.0,0.0,0.0,0.0,1.0,0.0,0.0,0.0,1.0,-0.487804889679,54.5731735229,-46.9512214661,1.0,0.0,0.0,0.0,1.0,0.0,0.0,0.0,1.0,0.0,2.37025978969,-11.9901619141,1.0,0.0,0.0,0.0,1.0,0.0,0.0,0.0,1.0
1463563135855823947,782,1463563135700508413,,-1.62427008152,-25.7582187653,49.3544960022,0.0101340003312,1.0,0.0,0.0,0.0,1.0,0.0,0.0,0.0,1.0,-2.07317066193,65.365852356,-47.9878044128,1.0,0.0,0.0,0.0,1.0,0.0,0.0,0.0,1.0,0.895431420898,-1.40779057617,-13.4745669434,1.0,0.0,0.0,0.0,1.0,0.0,0.0,0.0,1.0
1463563135856119158,783,1463563135710754587,,-1.37930309772,-24.959733963,48.7704544067,0.0100649995729,1.0,0.0,0.0,0.0,1.0,0.0,0.0,0.0,1.0,-3.90243911743,62.9878044128,-49.1463432312,1.0,0.0,0.0,0.0,1.0,0.0,0.0,0.0,1.0,-2.35589428746,-1.10133276367,-14.0779057617,1.0,0.0,0.0,0.0,1.0,0.0,0.0,0.0,1.0
1463563135856425723,784,1463563135721793423,,-1.09988617897,-23.9378757477,48.156867981,0.0101220002398,1.0,0.0,0.0,0.0,1.0,0.0,0.0,0.0,1.0,-3.35365867615,77.1951217651,-50.8536605835,1.0,0.0,0.0,0.0,1.0,0.0,0.0,0.0,1.0,-0.143652099609,-1.57538469238,-12.1481792236,1.0,0.0,0.0,0.0,1.0,0.0,0.0,0.0,1.0
1463563135857752347,785,1463563135730707190,,-0.853840768337,-23.0649604797,47.5304946899,0.0100790001452,1.0,0.0,0.0,0.0,1.0,0.0,0.0,0.0,1.0,-3.23170733452,68.9024429321,-54.634147644,1.0,0.0,0.0,0.0,1.0,0.0,0.0,0.0,1.0,-1.5322890625,-0.986411083984,-13.1728975342,1.0,0.0,0.0,0.0,1.0,0.0,0.0,0.0,1.0
1463563135858064954,786,1463563135740773988,,-0.617335438728,-22.0213890076,46.9022293091,0.0101229995489,1.0,0.0,0.0,0.0,1.0,0.0,0.0,0.0,1.0,0.914634168148,73.5975646973,-57.134147644,1.0,0.0,0.0,0.0,1.0,0.0,0.0,0.0,1.0,1.97761057129,0.0478840332031,-16.0507279297,1.0,0.0,0.0,0.0,1.0,0.0,0.0,0.0,1.0
1463563135858340842,787,1463563135751412508,,-0.302872061729,-20.840549469,46.2219696045,0.0102810002863,1.0,0.0,0.0,0.0,1.0,0.0,0.0,0.0,1.0,6.70731735229,85.3048782349,-61.2804870605,1.0,0.0,0.0,0.0,1.0,0.0,0.0,0.0,1.0,2.32237546422,-0.359130249023,-16.8216608643,1.0,0.0,0.0,0.0,1.0,0.0,0.0,0.0,1.0
1463563135858606104,788,1463563135762315301,,-0.00975171849132,-19.8474178314,45.6085929871,0.0100969998166,1.0,0.0,0.0,0.0,1.0,0.0,0.0,0.0,1.0,12.0121955872,73.7804870605,-58.5975608826,1.0,0.0,0.0,0.0,1.0,0.0,0.0,0.0,1.0,0.909796630859,0.785298144531,-17.3435979952,1.0,0.0,0.0,0.0,1.0,0.0,0.0,0.0,1.0
1463563135858901367,789,1463563135771201412,,0.215587854385,-18.963312149,45.011089325,0.00992900040001,1.0,0.0,0.0,0.0,1.0,0.0,0.0,0.0,1.0,7.31707334518,72.5,-58.8414649963,1.0,0.0,0.0,0.0,1.0,0.0,0.0,0.0,1.0,-1.1875240965,0.684741674805,-13.8049667725,1.0,0.0,0.0,0.0,1.0,0.0,0.0,0.0,1.0
1463563135859177359,790,1463563135781838006,,0.474613189697,-17.8842773438,44.4470977783,0.0102979997173,1.0,0.0,0.0,0.0,1.0,0.0,0.0,0.0,1.0,7.86585378647,80.9146347046,-52.8048782349,1.0,0.0,0.0,0.0,1.0,0.0,0.0,0.0,1.0,1.04866025408,-0.679953271484,-16.654065579,1.0,0.0,0.0,0.0,1.0,0.0,0.0,0.0,1.0
1463563135859694029,791,1463563135792399911,,0.548420548439,-16.7946796417,43.9769821167,0.0099189998582,1.0,0.0,0.0,0.0,1.0,0.0,0.0,0.0,1.0,2.43902444839,84.3902511597,-49.3292694092,1.0,0.0,0.0,0.0,1.0,0.0,0.0,0.0,1.0,1.70945998535,1.87705410156,-14.9254531494,1.0,0.0,0.0,0.0,1.0,0.0,0.0,0.0,1.0
1463563135860187523,792,1463563135801818682,,0.735971987247,-15.7155818939,43.4757766724,0.0100750001147,1.0,0.0,0.0,0.0,1.0,0.0,0.0,0.0,1.0,2.68292689323,79.9390258789,-48.4756126404,1.0,0.0,0.0,0.0,1.0,0.0,0.0,0.0,1.0,3.30399829102,-1.72382519531,-20.3076184814,1.0,0.0,0.0,0.0,1.0,0.0,0.0,0.0,1.0
1463563135860487890,793,1463563135812536735,,0.847534775734,-14.6616382599,43.0373268127,0.010108999908,1.0,0.0,0.0,0.0,1.0,0.0,0.0,0.0,1.0,3.23170733452,81.8902435303,-44.4512176514,1.0,0.0,0.0,0.0,1.0,0.0,0.0,0.0,1.0,1.35990654297,0.244208569336,-15.7777889404,1.0,0.0,0.0,0.0,1.0,0.0,0.0,0.0,1.0
1463563135860775340,794,1463563135822219987,,1.02466547489,-13.6444950104,42.5575523376,0.0101260002702,1.0,0.0,0.0,0.0,1.0,0.0,0.0,0.0,1.0,7.68292665482,89.1463470459,-48.3536567688,1.0,0.0,0.0,0.0,1.0,0.0,0.0,0.0,1.0,-1.78128603516,-0.339976635742,-17.4872489258,1.0,0.0,0.0,0.0,1.0,0.0,0.0,0.0,1.0
1463563135861043727,795,1463563135833005852,,1.22679388523,-12.4799566269,42.1501922607,0.0101199997589,1.0,0.0,0.0,0.0,1.0,0.0,0.0,0.0,1.0,17.6829280853,94.8170700073,-43.2926864624,1.0,0.0,0.0,0.0,1.0,0.0,0.0,0.0,1.0,1.24498486328,1.07739082014,-15.5670991943,1.0,0.0,0.0,0.0,1.0,0.0,0.0,0.0,1.0
1463563136077889168,796,1463563135842318373,,1.57884287834,-11.4221506119,41.6968269348,0.0100560002029,1.0,0.0,0.0,0.0,1.0,0.0,0.0,0.0,1.0,20.6707324982,83.7804870605,-45.6707344055,1.0,0.0,0.0,0.0,1.0,0.0,0.0,0.0,1.0,1.97761057129,-2.51391174316,-16.6157583524,1.0,0.0,0.0,0.0,1.0,0.0,0.0,0.0,1.0
1463563136078179066,797,1463563135852885539,,1.87735617161,-10.1428070068,41.2744026184,0.010158999823,1.0,0.0,0.0,0.0,1.0,0.0,0.0,0.0,1.0,22.7439041138,103.231712341,-44.8780479431,1.0,0.0,0.0,0.0,1.0,0.0,0.0,0.0,1.0,2.27449157715,-0.646434448242,-14.5806881104,1.0,0.0,0.0,0.0,1.0,0.0,0.0,0.0,1.0
1463563136078483443,798,1463563135862506135,,2.08636665344,-9.20174121857,40.9092140198,0.0100600002334,1.0,0.0,0.0,0.0,1.0,0.0,0.0,0.0,1.0,19.6951236725,86.5243911743,-40.3658561707,1.0,0.0,0.0,0.0,1.0,0.0,0.0,0.0,1.0,-1.44130939941,0.272938989258,-13.3165496338,1.0,0.0,0.0,0.0,1.0,0.0,0.0,0.0,1.0
1463563136078770581,799,1463563135873107884,,2.28254413605,-7.98676013947,40.5644302368,0.0102120004594,1.0,0.0,0.0,0.0,1.0,0.0,0.0,0.0,1.0,19.9390239716,96.8902511597,-38.7804870605,1.0,0.0,0.0,0.0,1.0,0.0,0.0,0.0,1.0,2.56658417969,0.435744702148,-14.0731173584,1.0,0.0,0.0,0.0,1.0,0.0,0.0,0.0,1.0
1463563136079064437,800,1463563135882381550,,2.54387378693,-7.0913939476,40.2243156433,0.00999400019646,1.0,0.0,0.0,0.0,1.0,0.0,0.0,0.0,1.0,10.7926826477,88.841468811,-36.7073173523,1.0,0.0,0.0,0.0,1.0,0.0,0.0,0.0,1.0,-3.46201560059,-5.22414802246,-18.3778919434,1.0,0.0,0.0,0.0,1.0,0.0,0.0,0.0,1.0
1463563136079377409,801,1463563135892902622,,2.70714855194,-6.31635951996,39.7218437195,0.0101180002093,1.0,0.0,0.0,0.0,1.0,0.0,0.0,0.0,1.0,23.2317085266,125.06098175,-57.4390220642,1.0,0.0,0.0,0.0,1.0,0.0,0.0,0.0,1.0,-42.5689055176,8.12592043457,-9.25598361816,1.0,0.0,0.0,0.0,1.0,0.0,0.0,0.0,1.0
1463563136080065747,802,1463563135902963950,,1.93892550468,-2.27784228325,39.506652832,0.0100760003552,1.0,0.0,0.0,0.0,1.0,0.0,0.0,0.0,1.0,-69.5731735229,350.548797607,-37.0121955872,1.0,0.0,0.0,0.0,1.0,0.0,0.0,0.0,1.0,23.0801040039,2.4277204834,-18.4497179932,1.0,0.0,0.0,0.0,1.0,0.0,0.0,0.0,1.0
1463563136080354656,803,1463563135913046633,,1.52805662155,-0.309819042683,39.8120994568,0.0101009998471,1.0,0.0,0.0,0.0,1.0,0.0,0.0,0.0,1.0,-43.7804870605,138.475616455,25.4878044128,1.0,0.0,0.0,0.0,1.0,0.0,0.0,0.0,1.0,16.8216608643,-1.67594116211,2.29364519043,1.0,0.0,0.0,0.0,1.0,0.0,0.0,0.0,1.0
1463563136080650804,804,1463563135923632601,,1.07526791096,-0.0223797820508,40.122051239,0.0102899996564,1.0,0.0,0.0,0.0,1.0,0.0,0.0,0.0,1.0,-9.45121955872,72.9878082275,27.1341457367,1.0,0.0,0.0,0.0,1.0,0.0,0.0,0.0,1.0,-11.7698953613,8.30787917622,1.26413847656,1.0,0.0,0.0,0.0,1.0,0.0,0.0,0.0,1.0
1463563136080916379,805,1463563135933330749,,0.815453708172,0.463994711637,40.2174034119,0.00993600022048,1.0,0.0,0.0,0.0,1.0,0.0,0.0,0.0,1.0,-31.2804889679,82.8658599854,7.19512224197,1.0,0.0,0.0,0.0,1.0,0.0,0.0,0.0,1.0,-26.5756384277,-5.95198532715,-32.5228353516,1.0,0.0,0.0,0.0,1.0,0.0,0.0,0.0,1.0
1463563136081189871,806,1463563135944190000,,0.215220168233,5.38017702103,40.2848396301,0.0102390004322,1.0,0.0,0.0,0.0,1.0,0.0,0.0,0.0,1.0,-37.5609779358,455.731719971,1.8902438879,1.0,0.0,0.0,0.0,1.0,0.0,0.0,0.0,1.0,7.44596716309,5.87537087402,-15.1074124756,1.0,0.0,0.0,0.0,1.0,0.0,0.0,0.0,1.0
1463563136081476592,807,1463563135953268925,,0.412667810917,6.43566942215,39.9932746887,0.00997100025415,1.0,0.0,0.0,0.0,1.0,0.0,0.0,0.0,1.0,24.5731716156,70.7317123413,-30.4878044128,1.0,0.0,0.0,0.0,1.0,0.0,0.0,0.0,1.0,14.3843635742,-0.0718260498047,24.4687409668,1.0,0.0,0.0,0.0,1.0,0.0,0.0,0.0,1.0
1463563136081765135,808,1463563135963782393,,0.426299870014,5.45832443237,40.0793190002,0.0101629998535,1.0,0.0,0.0,0.0,1.0,0.0,0.0,0.0,1.0,7.62195110321,-66.6463470459,8.5365858078,1.0,0.0,0.0,0.0,1.0,0.0,0.0,0.0,1.0,-12.4402718262,2.29364519043,-24.2197439941,1.0,0.0,0.0,0.0,1.0,0.0,0.0,0.0,1.0
1463563136082036648,809,1463563135973606688,,-0.319160372019,8.31676197052,40.1017112732,0.0100269997492,1.0,0.0,0.0,0.0,1.0,0.0,0.0,0.0,1.0,-52.6219520569,232.804870605,3.41463422775,1.0,0.0,0.0,0.0,1.0,0.0,0.0,0.0,1.0,33.8348578613,13.0148802246,-6.94797321777,1.0,0.0,0.0,0.0,1.0,0.0,0.0,0.0,1.0
1463563136082328525,810,1463563135983842914,,-0.412379980087,7.57687520981,40.4722442627,0.0101100001484,1.0,0.0,0.0,0.0,1.0,0.0,0.0,0.0,1.0,-39.8780479431,-121.28049469,30.5487804413,1.0,0.0,0.0,0.0,1.0,0.0,0.0,0.0,1.0,10.6206785645,-6.1530982666,-2.41814367676,1.0,0.0,0.0,0.0,1.0,0.0,0.0,0.0,1.0
1463563136082606913,811,1463563135993796429,,-1.48413085938,7.15275669098,41.0293731689,0.0100619997829,1.0,0.0,0.0,0.0,1.0,0.0,0.0,0.0,1.0,-101.280487061,10.7317075729,55.0609779358,1.0,0.0,0.0,0.0,1.0,0.0,0.0,0.0,1.0,-37.1197025391,7.12993254395,-6.49786330566,1.0,0.0,0.0,0.0,1.0,0.0,0.0,0.0,1.0
1463563136082897280,812,1463563136003223586,,-2.46554327011,11.493888855,41.231098175,0.0100720003247,1.0,0.0,0.0,0.0,1.0,0.0,0.0,0.0,1.0,-131.829269409,414.634155273,29.3902435303,1.0,0.0,0.0,0.0,1.0,0.0,0.0,0.0,1.0,5.76044919434,-9.45230756977,-12.3875993896,1.0,0.0,0.0,0.0,1.0,0.0,0.0,0.0,1.0
1463563136083201292,813,1463563136014490496,,-3.09922480583,11.1161994934,41.5321464539,0.0101380003616,1.0,0.0,0.0,0.0,1.0,0.0,0.0,0.0,1.0,-75.365852356,-95.4268341064,22.0731716156,1.0,0.0,0.0,0.0,1.0,0.0,0.0,0.0,1.0,30.8516825928,-5.99986936035,11.9710083008,1.0,0.0,0.0,0.0,1.0,0.0,0.0,0.0,1.0
1463563136083478743,814,1463563136023666141,,-3.96690750122,8.68836116791,42.2103004456,0.0101290000603,1.0,0.0,0.0,0.0,1.0,0.0,0.0,0.0,1.0,-98.6585388184,-222.439025879,50.5487785339,1.0,0.0,0.0,0.0,1.0,0.0,0.0,0.0,1.0,-11.2096521729,-0.469263525391,-49.8472785645,1.0,0.0,0.0,0.0,1.0,0.0,0.0,0.0,1.0
1463563136083780932,815,1463563136033595385,,-5.05186748505,9.06132793427,42.5113945007,0.0100630000234,1.0,0.0,0.0,0.0,1.0,0.0,0.0,0.0,1.0,-101.829269409,73.7804870605,35.6707344055,1.0,0.0,0.0,0.0,1.0,0.0,0.0,0.0,1.0,-11.3820346924,3.84508786621,-14.097059375,1.0,0.0,0.0,0.0,1.0,0.0,0.0,0.0,1.0
1463563136084052445,816,1463563136043776089,,-5.8004360199,9.6408033371,42.9065971375,0.010098000057,1.0,0.0,0.0,0.0,1.0,0.0,0.0,0.0,1.0,-102.926834106,82.2560958862,41.7682952881,1.0,0.0,0.0,0.0,1.0,0.0,0.0,0.0,1.0,-16.7498336454,-12.7754600586,15.3276790283,1.0,0.0,0.0,0.0,1.0,0.0,0.0,0.0,1.0
1463563136088087112,817,1463563136053738979,,-6.88165903091,10.2902173996,43.3339195251,0.0100779999048,1.0,0.0,0.0,0.0,1.0,0.0,0.0,0.0,1.0,-107.926834106,9.08536529541,43.5975608826,1.0,0.0,0.0,0.0,1.0,0.0,0.0,0.0,1.0,6.90487758789,0.890643017578,-2.5234885498,1.0,0.0,0.0,0.0,1.0,0.0,0.0,0.0,1.0
1463563136088447375,818,1463563136064030518,,-8.42035961151,8.91948604584,43.9582901001,0.0101150004193,1.0,0.0,0.0,0.0,1.0,0.0,0.0,0.0,1.0,-142.500015259,-170.121963501,41.4024391174,1.0,0.0,0.0,0.0,1.0,0.0,0.0,0.0,1.0,7.91044228516,5.45877978516,-9.25119521484,1.0,0.0,0.0,0.0,1.0,0.0,0.0,0.0,1.0
1463563136088723888,819,1463563136073928981,,-9.4772939682,10.4851388931,44.0460472107,0.0100910002366,1.0,0.0,0.0,0.0,1.0,0.0,0.0,0.0,1.0,-102.682929993,205.731719971,40.3658561707,1.0,0.0,0.0,0.0,1.0,0.0,0.0,0.0,1.0,-17.3100780029,0.517147558594,-0.186747729492,1.0,0.0,0.0,0.0,1.0,0.0,0.0,0.0,1.0
1463563136184254320,820,1463563136084635939,,-10.7949056625,10.2046966553,44.1991653442,0.0101290000603,1.0,0.0,0.0,0.0,1.0,0.0,0.0,0.0,1.0,-113.536590576,-75.9756088257,4.63414621353,1.0,0.0,0.0,0.0,1.0,0.0,0.0,0.0,1.0,9.08838950195,2.63362182617,9.7348239502,1.0,0.0,0.0,0.0,1.0,0.0,0.0,0.0,1.0
1463563136184543333,821,1463563136095650973,,-12.0750799179,10.3069534302,44.3942108154,0.0102490000427,1.0,0.0,0.0,0.0,1.0,0.0,0.0,0.0,1.0,-115.121955872,47.317073822,29.7560997009,1.0,0.0,0.0,0.0,1.0,0.0,0.0,0.0,1.0,-19.6899144531,9.91678327637,-19.9484882324,1.0,0.0,0.0,0.0,1.0,0.0,0.0,0.0,1.0
1463563136184824689,822,1463563136104424531,,-13.2237129211,11.6564149857,44.1690254211,0.00995500013232,1.0,0.0,0.0,0.0,1.0,0.0,0.0,0.0,1.0,-103.353660583,87.5,-1.95121955872,1.0,0.0,0.0,0.0,1.0,0.0,0.0,0.0,1.0,20.8774384766,-0.976834277344,18.0618573242,1.0,0.0,0.0,0.0,1.0,0.0,0.0,0.0,1.0
1463563136188258674,823,1463563136114561954,,-14.9302721024,8.83400440216,44.7952957153,0.0101460004225,1.0,0.0,0.0,0.0,1.0,0.0,0.0,0.0,1.0,-154.329269409,-254.939025879,2.31707310677,1.0,0.0,0.0,0.0,1.0,0.0,0.0,0.0,1.0,-10.5680061279,13.962984082,-16.2374768282,1.0,0.0,0.0,0.0,1.0,0.0,0.0,0.0,1.0
1463563136188329716,824,1463563136124393020,,-15.8418617249,9.56768417358,44.2051086426,0.0100229997188,1.0,0.0,0.0,0.0,1.0,0.0,0.0,0.0,1.0,-71.0975646973,133.597564697,-22.8048782349,1.0,0.0,0.0,0.0,1.0,0.0,0.0,0.0,1.0,-19.1536144503,6.47870969238,-10.8457335205,1.0,0.0,0.0,0.0,1.0,0.0,0.0,0.0,1.0
1463563136188661229,825,1463563136135006384,,-16.8950080872,10.2338638306,43.4884223938,0.0101309996098,1.0,0.0,0.0,0.0,1.0,0.0,0.0,0.0,1.0,-72.8048782349,57.6219482422,-52.8048782349,1.0,0.0,0.0,0.0,1.0,0.0,0.0,0.0,1.0,7.87692346191,7.20654699707,-9.46667277974,1.0,0.0,0.0,0.0,1.0,0.0,0.0,0.0,1.0
1463563136188971544,826,1463563136144656407,,-17.5010547638,8.16155910492,43.6139373779,0.0100739998743,1.0,0.0,0.0,0.0,1.0,0.0,0.0,0.0,1.0,-61.6463394165,-147.804885864,-34.0243911743,1.0,0.0,0.0,0.0,1.0,0.0,0.0,0.0,1.0,-18.4976020264,0.584185168546,-3.71580097656,1.0,0.0,0.0,0.0,1.0,0.0,0.0,0.0,1.0
1463563136189261807,827,1463563136154832580,,-18.3324203491,8.84887695312,42.7652435303,0.0101290000603,1.0,0.0,0.0,0.0,1.0,0.0,0.0,0.0,1.0,-74.1463394165,113.231712341,-51.8292694092,1.0,0.0,0.0,0.0,1.0,0.0,0.0,0.0,1.0,-3.80678063965,2.03985981445,-10.9175595703,1.0,0.0,0.0,0.0,1.0,0.0,0.0,0.0,1.0
1463563136350778691,828,1463563136165110421,,-19.4248981476,9.51899719238,42.1585578918,0.0100880004466,1.0,0.0,0.0,0.0,1.0,0.0,0.0,0.0,1.0,-72.1951293945,37.4390220642,-45.7317085266,1.0,0.0,0.0,0.0,1.0,0.0,0.0,0.0,1.0,23.7025964355,7.967903125,23.2237561035,1.0,0.0,0.0,0.0,1.0,0.0,0.0,0.0,1.0
1463563136351053953,829,1463563136175141957,,-19.5936412811,6.55776977539,42.5507049561,0.0101100001484,1.0,0.0,0.0,0.0,1.0,0.0,0.0,0.0,1.0,-28.1707324982,-284.573181152,-62.2560997009,1.0,0.0,0.0,0.0,1.0,0.0,0.0,0.0,1.0,2.07337849156,7.21612380371,-36.5546732854,1.0,0.0,0.0,0.0,1.0,0.0,0.0,0.0,1.0
1463563136351412863,830,1463563136185166775,,-20.0002574921,7.59982252121,41.3414306641,0.010098000057,1.0,0.0,0.0,0.0,1.0,0.0,0.0,0.0,1.0,-54.9390258789,172.865859985,-68.1097564697,1.0,0.0,0.0,0.0,1.0,0.0,0.0,0.0,1.0,-19.2972665499,-10.6541973877,-22.4097275391,1.0,0.0,0.0,0.0,1.0,0.0,0.0,0.0,1.0
1463563136351506249,831,1463563136195151280,,-20.2363033295,8.67462825775,40.5136108398,0.0100809996948,1.0,0.0,0.0,0.0,1.0,0.0,0.0,0.0,1.0,-2.01219511032,73.2926864624,-58.7195129395,1.0,0.0,0.0,0.0,1.0,0.0,0.0,0.0,1.0,23.2955821533,1.92493813477,4.21858303293,1.0,0.0,0.0,0.0,1.0,0.0,0.0,0.0,1.0
1463563136351788751,832,1463563136205322661,,-20.0695571899,7.13803768158,40.3581085205,0.0101079996675,1.0,0.0,0.0,0.0,1.0,0.0,0.0,0.0,1.0,10.7926826477,-157.621948242,-76.2804946899,1.0,0.0,0.0,0.0,1.0,0.0,0.0,0.0,1.0,7.76679018555,2.07337849156,-13.6517378662,1.0,0.0,0.0,0.0,1.0,0.0,0.0,0.0,1.0
1463563136352046357,833,1463563136216112537,,-19.7971801758,6.74846696854,39.4754066467,0.0102709997445,1.0,0.0,0.0,0.0,1.0,0.0,0.0,0.0,1.0,41.0975646973,37.8048782349,-76.8292694092,1.0,0.0,0.0,0.0,1.0,0.0,0.0,0.0,1.0,-19.4504942871,5.87537087402,-13.3740104736,1.0,0.0,0.0,0.0,1.0,0.0,0.0,0.0,1.0
1463563136352302765,834,1463563136225866155,,-19.889705658,8.32539653778,37.7920150757,0.00994400028139,1.0,0.0,0.0,0.0,1.0,0.0,0.0,0.0,1.0,6.64634132385,192.012207031,-110.243904114,1.0,0.0,0.0,0.0,1.0,0.0,0.0,0.0,1.0,21.0977050293,10.4578728516,-54.8367948242,1.0,0.0,0.0,0.0,1.0,0.0,0.0,0.0,1.0
1463563136352583288,835,1463563136236392330,,-19.0358448029,6.76029682159,37.5760231018,0.0101129999384,1.0,0.0,0.0,0.0,1.0,0.0,0.0,0.0,1.0,63.8414649963,-141.89024353,-77.134147644,1.0,0.0,0.0,0.0,1.0,0.0,0.0,0.0,1.0,1.35990654297,-1.00077629395,-7.55610043945,1.0,0.0,0.0,0.0,1.0,0.0,0.0,0.0,1.0
1463563136352866468,836,1463563136246650327,,-18.3921928406,8.05747032166,36.2655220032,0.0100910002366,1.0,0.0,0.0,0.0,1.0,0.0,0.0,0.0,1.0,61.707321167,191.585372925,-73.5975646973,1.0,0.0,0.0,0.0,1.0,0.0,0.0,0.0,1.0,-15.8208845703,-2.98317526855,-30.8899898193,1.0,0.0,0.0,0.0,1.0,0.0,0.0,0.0,1.0
1463563136355250601,837,1463563136256284777,,-17.5925559998,9.61351680756,35.1745834351,0.0101169999689,1.0,0.0,0.0,0.0,1.0,0.0,0.0,0.0,1.0,106.951225281,127.134147644,-70.0000076294,1.0,0.0,0.0,0.0,1.0,0.0,0.0,0.0,1.0,30.6266276367,0.344765039063,17.0706578369,1.0,0.0,0.0,0.0,1.0,0.0,0.0,0.0,1.0
1463563136355670500,838,1463563136265988030,,-16.5451164246,8.8427772522,34.4883575439,0.0100819999352,1.0,0.0,0.0,0.0,1.0,0.0,0.0,0.0,1.0,113.292678833,-85.3048782349,-97.9878082275,1.0,0.0,0.0,0.0,1.0,0.0,0.0,0.0,1.0,15.1217776855,3.39976635742,-15.3947166748,1.0,0.0,0.0,0.0,1.0,0.0,0.0,0.0,1.0
1463563136355973106,839,1463563136276245037,,-15.388874054,8.5310754776,33.768699646,0.0101199997589,1.0,0.0,0.0,0.0,1.0,0.0,0.0,0.0,1.0,105.304878235,19.0853652954,-71.2804870605,1.0,0.0,0.0,0.0,1.0,0.0,0.0,0.0,1.0,-10.3237975586,-3.36145913086,-21.1408006592,1.0,0.0,0.0,0.0,1.0,0.0,0.0,0.0,1.0
1463563136356253213,840,1463563136286416418,,-14.5836029053,9.84845638275,32.8852424622,0.0100649995729,1.0,0.0,0.0,0.0,1.0,0.0,0.0,0.0,1.0,105.487808228,93.9024429321,-63.9024429321,1.0,0.0,0.0,0.0,1.0,0.0,0.0,0.0,1.0,23.2093908936,1.81959326172,8.96867941895,1.0,0.0,0.0,0.0,1.0,0.0,0.0,0.0,1.0
1463563136356517434,841,1463563136296394413,,-14.1468954086,7.85795593262,32.7608833313,0.0101410001516,1.0,0.0,0.0,0.0,1.0,0.0,0.0,0.0,1.0,76.1585388184,-235.975616455,-68.6585388184,1.0,0.0,0.0,0.0,1.0,0.0,0.0,0.0,1.0,15.8496149902,8.44195446919,9.18415756836,1.0,0.0,0.0,0.0,1.0,0.0,0.0,0.0,1.0
1463563136358069060,842,1463563136306596159,,-13.0345964432,7.71889352798,32.1156806946,0.0102949999273,1.0,0.0,0.0,0.0,1.0,0.0,0.0,0.0,1.0,115.792694092,53.7804908752,-51.1585388184,1.0,0.0,0.0,0.0,1.0,0.0,0.0,0.0,1.0,-30.138210498,0.828393774414,-9.96466730957,1.0,0.0,0.0,0.0,1.0,0.0,0.0,0.0,1.0
1463563136358131717,843,1463563136316795301,,-11.9280166626,9.19774341583,31.2596759796,0.00998899992555,1.0,0.0,0.0,0.0,1.0,0.0,0.0,0.0,1.0,110.609764099,115.000007629,-64.3902435303,1.0,0.0,0.0,0.0,1.0,0.0,0.0,0.0,1.0,6.46913288574,-1.2976572998,-2.84909997559,1.0,0.0,0.0,0.0,1.0,0.0,0.0,0.0,1.0
1463563136564991194,844,1463563136326771525,,-10.4024858475,8.40159988403,30.7669830322,0.00998399965465,1.0,0.0,0.0,0.0,1.0,0.0,0.0,0.0,1.0,135.121948242,-64.1463394165,-67.5,1.0,0.0,0.0,0.0,1.0,0.0,0.0,0.0,1.0,0.411802685547,-3.01190568848,-9.62947966167,1.0,0.0,0.0,0.0,1.0,0.0,0.0,0.0,1.0
1463563136567808456,845,1463563136337070563,,-8.9370174408,9.49974060059,29.9752292633,0.0102120004594,1.0,0.0,0.0,0.0,1.0,0.0,0.0,0.0,1.0,151.463409424,109.695121765,-60.6097564697,1.0,0.0,0.0,0.0,1.0,0.0,0.0,0.0,1.0,9.02614025879,2.01112939453,-30.7750681396,1.0,0.0,0.0,0.0,1.0,0.0,0.0,0.0,1.0
1463563136568127885,846,1463563136347187882,,-7.62626838684,7.91682291031,29.7826309204,0.0100090000778,1.0,0.0,0.0,0.0,1.0,0.0,0.0,0.0,1.0,129.634155273,-121.524398804,-38.3536567688,1.0,0.0,0.0,0.0,1.0,0.0,0.0,0.0,1.0,-3.43328518066,0.172382519531,-6.4834980957,1.0,0.0,0.0,0.0,1.0,0.0,0.0,0.0,1.0
1463563136568429190,847,1463563136357307336,,-6.1582942009,9.81512832642,29.3580360413,0.0101079996675,1.0,0.0,0.0,0.0,1.0,0.0,0.0,0.0,1.0,144.146347046,171.097564697,-23.3536586761,1.0,0.0,0.0,0.0,1.0,0.0,0.0,0.0,1.0,28.8884372314,-3.49074602051,-55.4257684326,1.0,0.0,0.0,0.0,1.0,0.0,0.0,0.0,1.0
1463563136568692317,848,1463563136368099347,,-4.98885440826,8.35855007172,29.2539806366,0.0102230003104,1.0,0.0,0.0,0.0,1.0,0.0,0.0,0.0,1.0,105.792686462,-167.804885864,-29.7560997009,1.0,0.0,0.0,0.0,1.0,0.0,0.0,0.0,1.0,9.27034882812,-2.14520483363,-12.4785790527,1.0,0.0,0.0,0.0,1.0,0.0,0.0,0.0,1.0
1463563136568957319,849,1463563136377044000,,-3.65971708298,8.60556697845,29.100851059,0.00995600037277,1.0,0.0,0.0,0.0,1.0,0.0,0.0,0.0,1.0,134.634155273,76.8902435303,-10.0609760284,1.0,0.0,0.0,0.0,1.0,0.0,0.0,0.0,1.0,-20.6380183105,-1.64242233887,4.42927307129,1.0,0.0,0.0,0.0,1.0,0.0,0.0,0.0,1.0
1463563136569219613,850,1463563136387430435,,-2.65181946754,8.66631507874,29.154542923,0.0101100001484,1.0,0.0,0.0,0.0,1.0,0.0,0.0,0.0,1.0,101.219512939,-50.8536605835,1.15853655338,1.0,0.0,0.0,0.0,1.0,0.0,0.0,0.0,1.0,6.79953271484,-0.162805712891,2.91134921875,1.0,0.0,0.0,0.0,1.0,0.0,0.0,0.0,1.0
1463563136569580084,851,1463563136397644577,,-1.81052100658,7.65189170837,29.2633285522,0.0101779997349,1.0,0.0,0.0,0.0,1.0,0.0,0.0,0.0,1.0,74.8170776367,-63.6585388184,6.21951246262,1.0,0.0,0.0,0.0,1.0,0.0,0.0,0.0,1.0,-12.4067530029,-2.50912333984,-18.3778919434,1.0,0.0,0.0,0.0,1.0,0.0,0.0,0.0,1.0
