%time,field.header.seq,field.header.stamp,field.header.frame_id,field.orientation.x,field.orientation.y,field.orientation.z,field.orientation.w,field.orientation_covariance0,field.orientation_covariance1,field.orientation_covariance2,field.orientation_covariance3,field.orientation_covariance4,field.orientation_covariance5,field.orientation_covariance6,field.orientation_covariance7,field.orientation_covariance8,field.angular_velocity.x,field.angular_velocity.y,field.angular_velocity.z,field.angular_velocity_covariance0,field.angular_velocity_covariance1,field.angular_velocity_covariance2,field.angular_velocity_covariance3,field.angular_velocity_covariance4,field.angular_velocity_covariance5,field.angular_velocity_covariance6,field.angular_velocity_covariance7,field.angular_velocity_covariance8,field.linear_acceleration.x,field.linear_acceleration.y,field.linear_acceleration.z,field.linear_acceleration_covariance0,field.linear_acceleration_covariance1,field.linear_acceleration_covariance2,field.linear_acceleration_covariance3,field.linear_acceleration_covariance4,field.linear_acceleration_covariance5,field.linear_acceleration_covariance6,field.linear_acceleration_covariance7,field.linear_acceleration_covariance8
1463562836277522997,456,1463562836268172768,,-4.73457765579,-0.752046525478,142.230377197,0.0103280004114,1.0,0.0,0.0,0.0,1.0,0.0,0.0,0.0,1.0,10.3048782349,-0.12195122242,1.58536589146,1.0,0.0,0.0,0.0,1.0,0.0,0.0,0.0,1.0,-0.569819995117,-1.5322890625,-9.95030209961,1.0,0.0,0.0,0.0,1.0,0.0,0.0,0.0,1.0
1463562836283586117,457,1463562836278051803,,-4.57353925705,-0.747742831707,142.260131836,0.0103049995378,1.0,0.0,0.0,0.0,1.0,0.0,0.0,0.0,1.0,7.13414621353,-0.243902444839,2.56097555161,1.0,0.0,0.0,0.0,1.0,0.0,0.0,0.0,1.0,-0.675164868164,-1.0534486574,-10.1370498291,1.0,0.0,0.0,0.0,1.0,0.0,0.0,0.0,1.0
1463562836294457608,458,1463562836287670316,,-4.43433952332,-0.731371939182,142.284469604,0.00965499971062,1.0,0.0,0.0,0.0,1.0,0.0,0.0,0.0,1.0,5.67073154449,0.670731723309,2.25609779358,1.0,0.0,0.0,0.0,1.0,0.0,0.0,0.0,1.0,-0.593762048251,-1.11090957031,-9.98382092285,1.0,0.0,0.0,0.0,1.0,0.0,0.0,0.0,1.0
1463562836302205221,459,1463562836297736905,,-4.32363080978,-0.717439115047,142.310272217,0.0100880004466,1.0,0.0,0.0,0.0,1.0,0.0,0.0,0.0,1.0,4.57317066193,-0.0609756112099,2.19512200356,1.0,0.0,0.0,0.0,1.0,0.0,0.0,0.0,1.0,-0.526724328702,-0.727837304687,-10.2280294922,1.0,0.0,0.0,0.0,1.0,0.0,0.0,0.0,1.0
1463562836312773689,460,1463562836308198549,,-4.20070981979,-0.69710958004,142.323486328,0.0100570004433,1.0,0.0,0.0,0.0,1.0,0.0,0.0,0.0,1.0,3.84146332741,0.853658556938,1.03658533096,1.0,0.0,0.0,0.0,1.0,0.0,0.0,0.0,1.0,-0.550666381836,-1.09654436035,-10.0939541992,1.0,0.0,0.0,0.0,1.0,0.0,0.0,0.0,1.0
1463562836321051201,461,1463562836318263315,,-4.10651826859,-0.684640705585,142.335647583,0.0101190004498,1.0,0.0,0.0,0.0,1.0,0.0,0.0,0.0,1.0,2.31707310677,0.243902444839,0.853658556938,1.0,0.0,0.0,0.0,1.0,0.0,0.0,0.0,1.0,-0.584185168546,-0.876277807617,-10.2376062988,1.0,0.0,0.0,0.0,1.0,0.0,0.0,0.0,1.0
1463562836331231437,462,1463562836328052245,,-4.02146816254,-0.655998885632,142.354248047,0.0101450001821,1.0,0.0,0.0,0.0,1.0,0.0,0.0,0.0,1.0,0.731707334518,0.853658556938,1.52439022064,1.0,0.0,0.0,0.0,1.0,0.0,0.0,0.0,1.0,-0.411802685547,-1.01514150391,-10.2376062988,1.0,0.0,0.0,0.0,1.0,0.0,0.0,0.0,1.0
1463562836374150417,463,1463562836339629315,,-3.97267889977,-0.639875769615,142.376983643,0.0109059996903,1.0,0.0,0.0,0.0,1.0,0.0,0.0,0.0,1.0,0.365853667259,-1.09756100178,1.58536589146,1.0,0.0,0.0,0.0,1.0,0.0,0.0,0.0,1.0,-0.31124621582,-0.397437475586,-10.7020814209,1.0,0.0,0.0,0.0,1.0,0.0,0.0,0.0,1.0
1463562836374222084,464,1463562836349571476,,-3.92660880089,-0.647260546684,142.397903442,0.00922599993646,1.0,0.0,0.0,0.0,1.0,0.0,0.0,0.0,1.0,-0.12195122242,-0.365853667259,1.8292683363,1.0,0.0,0.0,0.0,1.0,0.0,0.0,0.0,1.0,-0.847547387695,-0.579396801758,-10.2807019287,1.0,0.0,0.0,0.0,1.0,0.0,0.0,0.0,1.0
1463562836374262033,465,1463562836358243418,,-3.87761425972,-0.646046459675,142.407592773,0.0101250000298,1.0,0.0,0.0,0.0,1.0,0.0,0.0,0.0,1.0,-0.670731723309,0.0,0.548780500889,1.0,0.0,0.0,0.0,1.0,0.0,0.0,0.0,1.0,-0.708683691406,-0.636857641602,-9.95987890625,1.0,0.0,0.0,0.0,1.0,0.0,0.0,0.0,1.0
1463562836374303960,466,1463562836368559071,,-3.83797287941,-0.645175158978,142.408493042,0.0101100001484,1.0,0.0,0.0,0.0,1.0,0.0,0.0,0.0,1.0,-1.03658533096,-0.609756112099,-0.365853667259,1.0,0.0,0.0,0.0,1.0,0.0,0.0,0.0,1.0,-0.60812722168,-0.555454785156,-10.1753570557,1.0,0.0,0.0,0.0,1.0,0.0,0.0,0.0,1.0
1463562836392800719,467,1463562836378454774,,-3.8210735321,-0.637465536594,142.398422241,0.0100750001147,1.0,0.0,0.0,0.0,1.0,0.0,0.0,0.0,1.0,-1.03658533096,0.548780500889,-1.40243899822,1.0,0.0,0.0,0.0,1.0,0.0,0.0,0.0,1.0,-0.718260498047,-0.162805712891,-10.7356002441,1.0,0.0,0.0,0.0,1.0,0.0,0.0,0.0,1.0
1463562836393064367,468,1463562836388888501,,-3.77906537056,-0.621879220009,142.394348145,0.0101039996371,1.0,0.0,0.0,0.0,1.0,0.0,0.0,0.0,1.0,0.670731723309,-0.243902444839,-0.853658556938,1.0,0.0,0.0,0.0,1.0,0.0,0.0,0.0,1.0,-0.416591088867,-0.3064578125,-10.5009684814,1.0,0.0,0.0,0.0,1.0,0.0,0.0,0.0,1.0
1463562836423542521,469,1463562836398664358,,-3.74385237694,-0.627798378468,142.391540527,0.0101079996675,1.0,0.0,0.0,0.0,1.0,0.0,0.0,0.0,1.0,-0.304878056049,-0.304878056049,-0.731707334518,1.0,0.0,0.0,0.0,1.0,0.0,0.0,0.0,1.0,-0.780509741211,-0.363918652344,-10.2423947021,1.0,0.0,0.0,0.0,1.0,0.0,0.0,0.0,1.0
1463562836423924555,470,1463562836413657340,,-3.72480893135,-0.625478923321,142.408737183,0.010108999908,1.0,0.0,0.0,0.0,1.0,0.0,0.0,0.0,1.0,-0.304878056049,-0.304878056049,1.2195122242,1.0,0.0,0.0,0.0,1.0,0.0,0.0,0.0,1.0,-0.646434448242,-0.0814028564453,-10.0843773926,1.0,0.0,0.0,0.0,1.0,0.0,0.0,0.0,1.0
1463562836424301121,471,1463562836419377749,,-3.68994283676,-0.621978640556,142.422714233,0.0100919995457,1.0,0.0,0.0,0.0,1.0,0.0,0.0,0.0,1.0,-0.365853667259,-0.426829278469,0.914634168148,1.0,0.0,0.0,0.0,1.0,0.0,0.0,0.0,1.0,-0.603338854892,-0.378283862305,-10.1466266357,1.0,0.0,0.0,0.0,1.0,0.0,0.0,0.0,1.0
1463562836432284620,472,1463562836429371316,,-3.65641069412,-0.612935960293,142.439712524,0.0101549997926,1.0,0.0,0.0,0.0,1.0,0.0,0.0,0.0,1.0,0.12195122242,0.0,1.2195122242,1.0,0.0,0.0,0.0,1.0,0.0,0.0,0.0,1.0,-0.603338854892,-0.277727392578,-10.4722380615,1.0,0.0,0.0,0.0,1.0,0.0,0.0,0.0,1.0
1463562836447585208,473,1463562836439140195,,-3.6151444912,-0.602916181087,142.442626953,0.0100520001724,1.0,0.0,0.0,0.0,1.0,0.0,0.0,0.0,1.0,0.975609779358,-0.304878056049,-0.18292683363,1.0,0.0,0.0,0.0,1.0,0.0,0.0,0.0,1.0,-0.493205541992,-0.263362164351,-10.1466266357,1.0,0.0,0.0,0.0,1.0,0.0,0.0,0.0,1.0
1463562836455616990,474,1463562836449209231,,-3.57464361191,-0.585616648197,142.438659668,0.0101319998503,1.0,0.0,0.0,0.0,1.0,0.0,0.0,0.0,1.0,1.70731711388,0.0,-0.853658556938,1.0,0.0,0.0,0.0,1.0,0.0,0.0,0.0,1.0,-0.416591088867,-0.119710083008,-10.2902787354,1.0,0.0,0.0,0.0,1.0,0.0,0.0,0.0,1.0
1463562836462697201,475,1463562836459519989,,-3.51849150658,-0.578347504139,142.428283691,0.0100750001147,1.0,0.0,0.0,0.0,1.0,0.0,0.0,0.0,1.0,2.43902444839,-0.609756112099,-1.52439022064,1.0,0.0,0.0,0.0,1.0,0.0,0.0,0.0,1.0,-0.478840332031,-0.282515795898,-10.3812583984,1.0,0.0,0.0,0.0,1.0,0.0,0.0,0.0,1.0
1463562836473760725,476,1463562836471487686,,-3.46640276909,-0.56945168972,142.428970337,0.0100880004466,1.0,0.0,0.0,0.0,1.0,0.0,0.0,0.0,1.0,2.5,-0.426829278469,-0.426829278469,1.0,0.0,0.0,0.0,1.0,0.0,0.0,0.0,1.0,-0.488417138672,-0.205901342773,-10.2615483154,1.0,0.0,0.0,0.0,1.0,0.0,0.0,0.0,1.0
1463562836493723537,477,1463562836479557228,,-3.39736628532,-0.564853489399,142.437698364,0.0101159997284,1.0,0.0,0.0,0.0,1.0,0.0,0.0,0.0,1.0,2.31707310677,-0.670731723309,0.365853667259,1.0,0.0,0.0,0.0,1.0,0.0,0.0,0.0,1.0,-0.526724328702,-0.550666381836,-10.2136642822,1.0,0.0,0.0,0.0,1.0,0.0,0.0,0.0,1.0
1463562836493792704,478,1463562836489784027,,-3.34401154518,-0.556753098965,142.453765869,0.0100840004161,1.0,0.0,0.0,0.0,1.0,0.0,0.0,0.0,1.0,1.70731711388,-0.365853667259,1.09756100178,1.0,0.0,0.0,0.0,1.0,0.0,0.0,0.0,1.0,-0.526724328702,-0.397437475586,-10.2423947021,1.0,0.0,0.0,0.0,1.0,0.0,0.0,0.0,1.0
1463562836502923817,479,1463562836500566142,,-3.3006966114,-0.545710682869,142.46131897,0.0102359997109,1.0,0.0,0.0,0.0,1.0,0.0,0.0,0.0,1.0,2.07317066193,-0.12195122242,0.243902444839,1.0,0.0,0.0,0.0,1.0,0.0,0.0,0.0,1.0,-0.517147558594,-0.148440512063,-10.3860468018,1.0,0.0,0.0,0.0,1.0,0.0,0.0,0.0,1.0
1463562836512499829,480,1463562836510099133,,-3.24422192574,-0.532809436321,142.461303711,0.0100419996306,1.0,0.0,0.0,0.0,1.0,0.0,0.0,0.0,1.0,3.47560977936,0.0609756112099,-0.487804889679,1.0,0.0,0.0,0.0,1.0,0.0,0.0,0.0,1.0,-0.502782348633,-0.15322890625,-10.3812583984,1.0,0.0,0.0,0.0,1.0,0.0,0.0,0.0,1.0
1463562836521469951,481,1463562836520042388,,-3.17701101303,-0.515599727631,142.447692871,0.0100269997492,1.0,0.0,0.0,0.0,1.0,0.0,0.0,0.0,1.0,4.45121955872,0.243902444839,-1.8292683363,1.0,0.0,0.0,0.0,1.0,0.0,0.0,0.0,1.0,-0.445321508789,-0.181959326172,-10.4866032715,1.0,0.0,0.0,0.0,1.0,0.0,0.0,0.0,1.0
1463562836540300358,482,1463562836530359395,,-3.09616327286,-0.509035348892,142.432922363,0.0102350004017,1.0,0.0,0.0,0.0,1.0,0.0,0.0,0.0,1.0,6.64634132385,-0.12195122242,-1.95121955872,1.0,0.0,0.0,0.0,1.0,0.0,0.0,0.0,1.0,-0.569819995117,-0.00957680664062,-10.4291424316,1.0,0.0,0.0,0.0,1.0,0.0,0.0,0.0,1.0
1463562836546031340,483,1463562836540299473,,-3.02535915375,-0.493845820427,142.416641235,0.00997500028461,1.0,0.0,0.0,0.0,1.0,0.0,0.0,0.0,1.0,7.98780536652,-0.670731723309,-2.19512200356,1.0,0.0,0.0,0.0,1.0,0.0,0.0,0.0,1.0,-0.301669427446,0.368707055664,-10.3668931885,1.0,0.0,0.0,0.0,1.0,0.0,0.0,0.0,1.0
1463562836553423638,484,1463562836550505750,,-2.93272638321,-0.492145985365,142.406433105,0.0100969998166,1.0,0.0,0.0,0.0,1.0,0.0,0.0,0.0,1.0,9.63414573669,-0.914634168148,-1.58536589146,1.0,0.0,0.0,0.0,1.0,0.0,0.0,0.0,1.0,-0.512359155273,0.277727392578,-10.4435076416,1.0,0.0,0.0,0.0,1.0,0.0,0.0,0.0,1.0
1463562836565544201,485,1463562836560884633,,-2.83051633835,-0.493030697107,142.399612427,0.0100999996066,1.0,0.0,0.0,0.0,1.0,0.0,0.0,0.0,1.0,11.4634151459,-1.2195122242,-1.2804877758,1.0,0.0,0.0,0.0,1.0,0.0,0.0,0.0,1.0,-0.493205541992,0.411802685547,-10.165780249,1.0,0.0,0.0,0.0,1.0,0.0,0.0,0.0,1.0
1463562836575840739,486,1463562836570521115,,-2.71656417847,-0.508013308048,142.398529053,0.010111999698,1.0,0.0,0.0,0.0,1.0,0.0,0.0,0.0,1.0,13.1097564697,-1.46341466904,-0.731707334518,1.0,0.0,0.0,0.0,1.0,0.0,0.0,0.0,1.0,-0.708683691406,0.483628735352,-10.2040874756,1.0,0.0,0.0,0.0,1.0,0.0,0.0,0.0,1.0
1463562836586463999,487,1463562836581011821,,-2.57110118866,-0.506756782532,142.400238037,0.0100959995762,1.0,0.0,0.0,0.0,1.0,0.0,0.0,0.0,1.0,15.0000009537,-0.914634168148,-0.426829278469,1.0,0.0,0.0,0.0,1.0,0.0,0.0,0.0,1.0,-0.526724328702,0.239420166016,-10.299855542,1.0,0.0,0.0,0.0,1.0,0.0,0.0,0.0,1.0
1463562836605790140,488,1463562836590901273,,-2.40689229965,-0.516858458519,142.407608032,0.0101479999721,1.0,0.0,0.0,0.0,1.0,0.0,0.0,0.0,1.0,16.5853652954,-0.975609779358,0.12195122242,1.0,0.0,0.0,0.0,1.0,0.0,0.0,0.0,1.0,-0.723048901367,0.177170922852,-10.285490332,1.0,0.0,0.0,0.0,1.0,0.0,0.0,0.0,1.0
1463562836606091861,489,1463562836601244687,,-2.23129153252,-0.52482676506,142.413589478,0.010045000352,1.0,0.0,0.0,0.0,1.0,0.0,0.0,0.0,1.0,17.2560977936,-0.792682945728,-0.0,1.0,0.0,0.0,0.0,1.0,0.0,0.0,0.0,1.0,-0.727837304687,0.0335188255255,-10.4004120117,1.0,0.0,0.0,0.0,1.0,0.0,0.0,0.0,1.0
1463562836624480754,490,1463562836618844095,,-2.04246449471,-0.537035405636,142.419235229,0.0101140001789,1.0,0.0,0.0,0.0,1.0,0.0,0.0,0.0,1.0,18.5975627899,-1.15853655338,-0.0609756112099,1.0,0.0,0.0,0.0,1.0,0.0,0.0,0.0,1.0,-0.723048901367,0.0287304199219,-10.1945106689,1.0,0.0,0.0,0.0,1.0,0.0,0.0,0.0,1.0
1463562836637106321,491,1463562836626784001,,-1.80838012695,-0.547813296318,142.415115356,0.0107760000974,1.0,0.0,0.0,0.0,1.0,0.0,0.0,0.0,1.0,20.3048782349,-0.731707334518,-0.975609779358,1.0,0.0,0.0,0.0,1.0,0.0,0.0,0.0,1.0,-0.76614453125,-0.248996972656,-10.2902787354,1.0,0.0,0.0,0.0,1.0,0.0,0.0,0.0,1.0
1463562836637406584,492,1463562836632197168,,-1.59120762348,-0.557063102722,142.420425415,0.0104080000892,1.0,0.0,0.0,0.0,1.0,0.0,0.0,0.0,1.0,20.7926826477,-1.03658533096,-0.12195122242,1.0,0.0,0.0,0.0,1.0,0.0,0.0,0.0,1.0,-0.699106884766,-0.0478840332031,-10.3237975586,1.0,0.0,0.0,0.0,1.0,0.0,0.0,0.0,1.0
1463562836648522556,493,1463562836641204114,,-1.3779592514,-0.564972639084,142.422729492,0.00912399962544,1.0,0.0,0.0,0.0,1.0,0.0,0.0,0.0,1.0,21.7682933807,-0.853658556938,-0.365853667259,1.0,0.0,0.0,0.0,1.0,0.0,0.0,0.0,1.0,-0.723048901367,-0.363918652344,-10.2376062988,1.0,0.0,0.0,0.0,1.0,0.0,0.0,0.0,1.0
1463562836658945293,494,1463562836651412787,,-1.1595697403,-0.560110926628,142.434768677,0.0100809996948,1.0,0.0,0.0,0.0,1.0,0.0,0.0,0.0,1.0,21.7073173523,-0.548780500889,0.548780500889,1.0,0.0,0.0,0.0,1.0,0.0,0.0,0.0,1.0,-0.541089611728,-0.105344873047,-10.2950671387,1.0,0.0,0.0,0.0,1.0,0.0,0.0,0.0,1.0
1463562836736820067,495,1463562836661544793,,-0.902289807796,-0.568415641785,142.448028564,0.0101669998839,1.0,0.0,0.0,0.0,1.0,0.0,0.0,0.0,1.0,22.8048782349,-0.914634168148,0.670731723309,1.0,0.0,0.0,0.0,1.0,0.0,0.0,0.0,1.0,-0.708683691406,-0.60812722168,-10.2615483154,1.0,0.0,0.0,0.0,1.0,0.0,0.0,0.0,1.0
1463562836737198247,496,1463562836671392943,,-0.671597063541,-0.558934211731,142.473800659,0.0100469999015,1.0,0.0,0.0,0.0,1.0,0.0,0.0,0.0,1.0,22.8658542633,-0.426829278469,1.8902438879,1.0,0.0,0.0,0.0,1.0,0.0,0.0,0.0,1.0,-0.483628735352,-0.220266552734,-10.3429511719,1.0,0.0,0.0,0.0,1.0,0.0,0.0,0.0,1.0
1463562836737582990,497,1463562836682009223,,-0.40792247653,-0.567640483379,142.495285034,0.0101239997894,1.0,0.0,0.0,0.0,1.0,0.0,0.0,0.0,1.0,22.8658542633,-1.2804877758,1.46341466904,1.0,0.0,0.0,0.0,1.0,0.0,0.0,0.0,1.0,-0.651222851562,-0.823605371094,-10.285490332,1.0,0.0,0.0,0.0,1.0,0.0,0.0,0.0,1.0
1463562836737636792,498,1463562836692932433,,-0.193813815713,-0.54500079155,142.536361694,0.0100840004161,1.0,0.0,0.0,0.0,1.0,0.0,0.0,0.0,1.0,22.1951236725,-0.426829278469,3.35365867615,1.0,0.0,0.0,0.0,1.0,0.0,0.0,0.0,1.0,-0.244208569336,-0.119710083008,-10.3908352051,1.0,0.0,0.0,0.0,1.0,0.0,0.0,0.0,1.0
1463562836738083619,499,1463562836703742049,,0.0931932926178,-0.550027430058,142.596450806,0.0120580000803,1.0,0.0,0.0,0.0,1.0,0.0,0.0,0.0,1.0,22.7439041138,-1.03658533096,4.2682929039,1.0,0.0,0.0,0.0,1.0,0.0,0.0,0.0,1.0,-0.60812722168,-0.526724328702,-10.2807019287,1.0,0.0,0.0,0.0,1.0,0.0,0.0,0.0,1.0
1463562836738419559,500,1463562836712279511,,0.289850503206,-0.549226939678,142.641647339,0.0081609999761,1.0,0.0,0.0,0.0,1.0,0.0,0.0,0.0,1.0,21.8902435303,-0.548780500889,4.81707286835,1.0,0.0,0.0,0.0,1.0,0.0,0.0,0.0,1.0,-0.593762048251,-0.780509741211,-10.1609918457,1.0,0.0,0.0,0.0,1.0,0.0,0.0,0.0,1.0
1463562836738703051,501,1463562836722713499,,0.524658024311,-0.549821138382,142.686981201,0.0100899999961,1.0,0.0,0.0,0.0,1.0,0.0,0.0,0.0,1.0,20.3048782349,-1.03658533096,3.7804877758,1.0,0.0,0.0,0.0,1.0,0.0,0.0,0.0,1.0,-0.541089611728,-0.967257470703,-10.3333743652,1.0,0.0,0.0,0.0,1.0,0.0,0.0,0.0,1.0
1463562836739595818,502,1463562836733047954,,0.78501701355,-0.553699553013,142.738372803,0.0100720003247,1.0,0.0,0.0,0.0,1.0,0.0,0.0,0.0,1.0,21.4024391174,-1.09756100178,4.39024400711,1.0,0.0,0.0,0.0,1.0,0.0,0.0,0.0,1.0,-0.569819995117,-1.2497732666,-10.0317049561,1.0,0.0,0.0,0.0,1.0,0.0,0.0,0.0,1.0
1463562837013249930,503,1463562836742353756,,1.0331633091,-0.55329811573,142.778884888,0.010106000118,1.0,0.0,0.0,0.0,1.0,0.0,0.0,0.0,1.0,19.2682914734,-0.548780500889,3.29268312454,1.0,0.0,0.0,0.0,1.0,0.0,0.0,0.0,1.0,-0.598550451572,-1.4604630127,-10.1274730225,1.0,0.0,0.0,0.0,1.0,0.0,0.0,0.0,1.0
1463562837013288993,504,1463562836752422585,,1.25040173531,-0.544175446033,142.822174072,0.0100990002975,1.0,0.0,0.0,0.0,1.0,0.0,0.0,0.0,1.0,17.9878044128,-0.487804889679,3.53658556938,1.0,0.0,0.0,0.0,1.0,0.0,0.0,0.0,1.0,-0.450109912109,-1.1875240965,-10.1753570557,1.0,0.0,0.0,0.0,1.0,0.0,0.0,0.0,1.0
1463562837018541482,505,1463562836762304016,,1.45453560352,-0.556975364685,142.868164062,0.0101279998198,1.0,0.0,0.0,0.0,1.0,0.0,0.0,0.0,1.0,16.8902435303,-0.548780500889,3.7804877758,1.0,0.0,0.0,0.0,1.0,0.0,0.0,0.0,1.0,-0.847547387695,-1.21146604004,-10.4291424316,1.0,0.0,0.0,0.0,1.0,0.0,0.0,0.0,1.0
1463562837018876485,506,1463562836772865817,,1.63957071304,-0.559474408627,142.914657593,0.0101800002158,1.0,0.0,0.0,0.0,1.0,0.0,0.0,0.0,1.0,16.4024391174,-0.487804889679,3.7804877758,1.0,0.0,0.0,0.0,1.0,0.0,0.0,0.0,1.0,-0.665588061523,-0.967257470703,-10.405200415,1.0,0.0,0.0,0.0,1.0,0.0,0.0,0.0,1.0
1463562837018953673,507,1463562836784172207,,1.83885836601,-0.569712817669,142.948043823,0.0112260002643,1.0,0.0,0.0,0.0,1.0,0.0,0.0,0.0,1.0,15.975610733,-0.731707334518,2.19512200356,1.0,0.0,0.0,0.0,1.0,0.0,0.0,0.0,1.0,-0.737414111328,-0.981622680664,-10.2184526855,1.0,0.0,0.0,0.0,1.0,0.0,0.0,0.0,1.0
1463562837019005652,508,1463562836793093318,,1.98759412766,-0.571187376976,142.987625122,0.00887400005013,1.0,0.0,0.0,0.0,1.0,0.0,0.0,0.0,1.0,15.4878053665,-0.731707334518,3.65853667259,1.0,0.0,0.0,0.0,1.0,0.0,0.0,0.0,1.0,-0.584185168546,-0.91458503418,-10.0700121826,1.0,0.0,0.0,0.0,1.0,0.0,0.0,0.0,1.0
1463562837019044090,509,1463562836802873134,,2.17374444008,-0.581085503101,143.037658691,0.0101509997621,1.0,0.0,0.0,0.0,1.0,0.0,0.0,0.0,1.0,15.1219511032,-0.914634168148,4.14634132385,1.0,0.0,0.0,0.0,1.0,0.0,0.0,0.0,1.0,-0.708683691406,-1.32159931641,-10.2902787354,1.0,0.0,0.0,0.0,1.0,0.0,0.0,0.0,1.0
1463562837019084872,510,1463562836812932952,,2.34455132484,-0.591791272163,143.095428467,0.0100609995425,1.0,0.0,0.0,0.0,1.0,0.0,0.0,0.0,1.0,14.1463422775,-0.792682945728,4.93902444839,1.0,0.0,0.0,0.0,1.0,0.0,0.0,0.0,1.0,-0.727837304687,-1.26413847656,-10.1131078125,1.0,0.0,0.0,0.0,1.0,0.0,0.0,0.0,1.0
1463562837019122633,511,1463562836823377513,,2.50814580917,-0.594880700111,143.147399902,0.0102399997413,1.0,0.0,0.0,0.0,1.0,0.0,0.0,0.0,1.0,12.7439022064,-0.670731723309,4.2682929039,1.0,0.0,0.0,0.0,1.0,0.0,0.0,0.0,1.0,-0.622492431641,-1.37906015625,-10.2088758789,1.0,0.0,0.0,0.0,1.0,0.0,0.0,0.0,1.0
1463562837019161904,512,1463562836833157902,,2.65888190269,-0.600890159607,143.204147339,0.00996099971235,1.0,0.0,0.0,0.0,1.0,0.0,0.0,0.0,1.0,12.8048782349,-0.853658556938,4.87804889679,1.0,0.0,0.0,0.0,1.0,0.0,0.0,0.0,1.0,-0.636857641602,-1.24498486328,-10.2184526855,1.0,0.0,0.0,0.0,1.0,0.0,0.0,0.0,1.0
1463562837019199508,513,1463562836844413406,,2.80435204506,-0.600233912468,143.247177124,0.0103900004178,1.0,0.0,0.0,0.0,1.0,0.0,0.0,0.0,1.0,11.8902444839,-0.243902444839,3.29268312454,1.0,0.0,0.0,0.0,1.0,0.0,0.0,0.0,1.0,-0.646434448242,-1.24498486328,-10.3477395752,1.0,0.0,0.0,0.0,1.0,0.0,0.0,0.0,1.0
1463562837019235810,514,1463562836853604832,,2.93180084229,-0.600603222847,143.287826538,0.00979099981487,1.0,0.0,0.0,0.0,1.0,0.0,0.0,0.0,1.0,12.8048782349,-0.609756112099,3.29268312454,1.0,0.0,0.0,0.0,1.0,0.0,0.0,0.0,1.0,-0.584185168546,-0.905008227539,-10.1753570557,1.0,0.0,0.0,0.0,1.0,0.0,0.0,0.0,1.0
1463562837022604847,515,1463562836863516055,,3.07598519325,-0.602744221687,143.321914673,0.0101279998198,1.0,0.0,0.0,0.0,1.0,0.0,0.0,0.0,1.0,13.5365858078,-0.426829278469,2.5,1.0,0.0,0.0,0.0,1.0,0.0,0.0,0.0,1.0,-0.670376464844,-1.03908344744,-10.4147772217,1.0,0.0,0.0,0.0,1.0,0.0,0.0,0.0,1.0
1463562837028336454,516,1463562836873868479,,3.22723913193,-0.609903097153,143.35748291,0.0100790001452,1.0,0.0,0.0,0.0,1.0,0.0,0.0,0.0,1.0,15.0609760284,-1.03658533096,2.68292689323,1.0,0.0,0.0,0.0,1.0,0.0,0.0,0.0,1.0,-0.641646044922,-0.9193734375,-10.3381627686,1.0,0.0,0.0,0.0,1.0,0.0,0.0,0.0,1.0
1463562837028823958,517,1463562836883466054,,3.38439750671,-0.608447432518,143.379898071,0.0101410001516,1.0,0.0,0.0,0.0,1.0,0.0,0.0,0.0,1.0,15.6707315445,-0.731707334518,1.34146344662,1.0,0.0,0.0,0.0,1.0,0.0,0.0,0.0,1.0,-0.555454785156,-0.92416184082,-10.3573163818,1.0,0.0,0.0,0.0,1.0,0.0,0.0,0.0,1.0
1463562837028913542,518,1463562836893587852,,3.55015659332,-0.611236393452,143.40574646,0.0100659998134,1.0,0.0,0.0,0.0,1.0,0.0,0.0,0.0,1.0,17.6829280853,-1.15853655338,1.70731711388,1.0,0.0,0.0,0.0,1.0,0.0,0.0,0.0,1.0,-0.541089611728,-0.751779321289,-10.2184526855,1.0,0.0,0.0,0.0,1.0,0.0,0.0,0.0,1.0
1463562837028955470,519,1463562836903782046,,3.73822927475,-0.613909125328,143.424133301,0.0101410001516,1.0,0.0,0.0,0.0,1.0,0.0,0.0,0.0,1.0,18.2926826477,-1.34146344662,0.975609779358,1.0,0.0,0.0,0.0,1.0,0.0,0.0,0.0,1.0,-0.517147558594,-1.0534486574,-10.2759135254,1.0,0.0,0.0,0.0,1.0,0.0,0.0,0.0,1.0
1463562837029003543,520,1463562836913912906,,3.92684912682,-0.619733512402,143.453094482,0.0100750001147,1.0,0.0,0.0,0.0,1.0,0.0,0.0,0.0,1.0,19.0853652954,-1.2195122242,2.01219511032,1.0,0.0,0.0,0.0,1.0,0.0,0.0,0.0,1.0,-0.574608398438,-0.962469067383,-10.1226846191,1.0,0.0,0.0,0.0,1.0,0.0,0.0,0.0,1.0
1463562837029051720,521,1463562836924020224,,4.12960529327,-0.62102162838,143.476409912,0.0101100001484,1.0,0.0,0.0,0.0,1.0,0.0,0.0,0.0,1.0,19.0243911743,-1.34146344662,1.46341466904,1.0,0.0,0.0,0.0,1.0,0.0,0.0,0.0,1.0,-0.483628735352,-1.25935007324,-10.2184526855,1.0,0.0,0.0,0.0,1.0,0.0,0.0,0.0,1.0
1463562837029086148,522,1463562836934088740,,4.33437633514,-0.633342921734,143.516372681,0.0101260002702,1.0,0.0,0.0,0.0,1.0,0.0,0.0,0.0,1.0,19.2073173523,-1.58536589146,3.10975623131,1.0,0.0,0.0,0.0,1.0,0.0,0.0,0.0,1.0,-0.60812722168,-1.28329208984,-10.1083194092,1.0,0.0,0.0,0.0,1.0,0.0,0.0,0.0,1.0
1463562837030655900,523,1463562836944435175,,4.53818178177,-0.634363174438,143.557815552,0.0100800003856,1.0,0.0,0.0,0.0,1.0,0.0,0.0,0.0,1.0,17.5609760284,-0.853658556938,3.23170733452,1.0,0.0,0.0,0.0,1.0,0.0,0.0,0.0,1.0,-0.541089611728,-1.62805712891,-10.1562034424,1.0,0.0,0.0,0.0,1.0,0.0,0.0,0.0,1.0
1463562837030738088,524,1463562836954475254,,4.72302436829,-0.644322216511,143.609298706,0.0101269995794,1.0,0.0,0.0,0.0,1.0,0.0,0.0,0.0,1.0,16.7682933807,-1.15853655338,4.20731735229,1.0,0.0,0.0,0.0,1.0,0.0,0.0,0.0,1.0,-0.632069238281,-1.4604630127,-10.2184526855,1.0,0.0,0.0,0.0,1.0,0.0,0.0,0.0,1.0
1463562837030777671,525,1463562836965980239,,4.90735626221,-0.66029804945,143.663619995,0.0100710000843,1.0,0.0,0.0,0.0,1.0,0.0,0.0,0.0,1.0,15.3048791885,-0.975609779358,4.51219558716,1.0,0.0,0.0,0.0,1.0,0.0,0.0,0.0,1.0,-0.756567724609,-1.73819040527,-9.99339772949,1.0,0.0,0.0,0.0,1.0,0.0,0.0,0.0,1.0
1463562837031080851,526,1463562836976036932,,5.08157587051,-0.668163657188,143.725311279,0.0100830001757,1.0,0.0,0.0,0.0,1.0,0.0,0.0,0.0,1.0,14.9390249252,-1.2195122242,5.24390268326,1.0,0.0,0.0,0.0,1.0,0.0,0.0,0.0,1.0,-0.555454785156,-1.65199914551,-9.99339772949,1.0,0.0,0.0,0.0,1.0,0.0,0.0,0.0,1.0
1463562837041556193,527,1463562836986132011,,5.26326704025,-0.675850212574,143.797943115,0.0110910004005,1.0,0.0,0.0,0.0,1.0,0.0,0.0,0.0,1.0,13.4146347046,-1.15853655338,5.67073154449,1.0,0.0,0.0,0.0,1.0,0.0,0.0,0.0,1.0,-0.550666381836,-1.82438166504,-10.1370498291,1.0,0.0,0.0,0.0,1.0,0.0,0.0,0.0,1.0
1463562837041678121,528,1463562836994661140,,5.39183664322,-0.692657470703,143.868118286,0.00910800043494,1.0,0.0,0.0,0.0,1.0,0.0,0.0,0.0,1.0,12.2560977936,-0.731707334518,6.7682929039,1.0,0.0,0.0,0.0,1.0,0.0,0.0,0.0,1.0,-0.804451757813,-1.63284553223,-9.98860932617,1.0,0.0,0.0,0.0,1.0,0.0,0.0,0.0,1.0
1463562837041794632,529,1463562837005349504,,5.54271173477,-0.706831812859,143.950454712,0.0102289998904,1.0,0.0,0.0,0.0,1.0,0.0,0.0,0.0,1.0,11.0365858078,-1.40243899822,7.19512224197,1.0,0.0,0.0,0.0,1.0,0.0,0.0,0.0,1.0,-0.60812722168,-2.03028300781,-10.165780249,1.0,0.0,0.0,0.0,1.0,0.0,0.0,0.0,1.0
1463562837041828018,530,1463562837015183071,,5.66896009445,-0.72965246439,144.042144775,0.00999999977648,1.0,0.0,0.0,0.0,1.0,0.0,0.0,0.0,1.0,8.65853691101,-1.15853655338,8.29268264771,1.0,0.0,0.0,0.0,1.0,0.0,0.0,0.0,1.0,-0.780509741211,-2.06380183105,-9.94072529297,1.0,0.0,0.0,0.0,1.0,0.0,0.0,0.0,1.0
1463562837041920571,531,1463562837025189399,,5.76955366135,-0.742573320866,144.136459351,0.010098000057,1.0,0.0,0.0,0.0,1.0,0.0,0.0,0.0,1.0,5.79268312454,-1.2804877758,8.47560977936,1.0,0.0,0.0,0.0,1.0,0.0,0.0,0.0,1.0,-0.593762048251,-2.18830031738,-10.2471831055,1.0,0.0,0.0,0.0,1.0,0.0,0.0,0.0,1.0
1463562837128774060,532,1463562837035111820,,5.84489917755,-0.753215670586,144.24029541,0.0100959995762,1.0,0.0,0.0,0.0,1.0,0.0,0.0,0.0,1.0,3.23170733452,-0.975609779358,9.39024448395,1.0,0.0,0.0,0.0,1.0,0.0,0.0,0.0,1.0,-0.574608398438,-2.15957004359,-9.95987890625,1.0,0.0,0.0,0.0,1.0,0.0,0.0,0.0,1.0
1463562837128822446,533,1463562837045359868,,5.88470172882,-0.76201736927,144.357788086,0.0100739998743,1.0,0.0,0.0,0.0,1.0,0.0,0.0,0.0,1.0,0.914634168148,-0.792682945728,10.7317075729,1.0,0.0,0.0,0.0,1.0,0.0,0.0,0.0,1.0,-0.555454785156,-1.98239897461,-10.0939541992,1.0,0.0,0.0,0.0,1.0,0.0,0.0,0.0,1.0
1463562837129131771,534,1463562837058778619,,5.91176080704,-0.774849116802,144.473419189,0.010098000057,1.0,0.0,0.0,0.0,1.0,0.0,0.0,0.0,1.0,-0.12195122242,-1.09756100178,10.548781395,1.0,0.0,0.0,0.0,1.0,0.0,0.0,0.0,1.0,-0.569819995117,-1.92493813477,-9.98382092285,1.0,0.0,0.0,0.0,1.0,0.0,0.0,0.0,1.0
1463562837129582712,535,1463562837069858288,,5.93420410156,-0.781340420246,144.575714111,0.0101180002093,1.0,0.0,0.0,0.0,1.0,0.0,0.0,0.0,1.0,-2.13414645195,-0.304878056049,9.14634132385,1.0,0.0,0.0,0.0,1.0,0.0,0.0,0.0,1.0,-0.636857641602,-2.24097275391,-10.1083194092,1.0,0.0,0.0,0.0,1.0,0.0,0.0,0.0,1.0
1463562837129927611,536,1463562837087318841,,5.97680854797,-0.799228072166,144.71282959,0.0167750008404,1.0,0.0,0.0,0.0,1.0,0.0,0.0,0.0,1.0,-3.35365867615,-0.548780500889,7.25609779358,1.0,0.0,0.0,0.0,1.0,0.0,0.0,0.0,1.0,-0.694318481445,-2.4756045166,-9.87368764648,1.0,0.0,0.0,0.0,1.0,0.0,0.0,0.0,1.0
1463562837130275947,537,1463562837089898653,,5.97102117538,-0.808992564678,144.78112793,0.00769199989736,1.0,0.0,0.0,0.0,1.0,0.0,0.0,0.0,1.0,-4.45121955872,-0.487804889679,7.92682981491,1.0,0.0,0.0,0.0,1.0,0.0,0.0,0.0,1.0,-0.732625708008,-2.09732050817,-9.95987890625,1.0,0.0,0.0,0.0,1.0,0.0,0.0,0.0,1.0
1463562837130664283,538,1463562837095593385,,5.96368455887,-0.815947890282,144.830337524,0.00583400018513,1.0,0.0,0.0,0.0,1.0,0.0,0.0,0.0,1.0,-5.36585378647,-0.609756112099,7.50000047684,1.0,0.0,0.0,0.0,1.0,0.0,0.0,0.0,1.0,-0.708683691406,-2.17393510742,-9.97424411621,1.0,0.0,0.0,0.0,1.0,0.0,0.0,0.0,1.0
1463562837131391476,539,1463562837105699974,,5.95249509811,-0.817429661751,144.90007019,0.010095000267,1.0,0.0,0.0,0.0,1.0,0.0,0.0,0.0,1.0,-6.46341466904,0.12195122242,5.91463422775,1.0,0.0,0.0,0.0,1.0,0.0,0.0,0.0,1.0,-0.684741674805,-2.39899020961,-9.96466730957,1.0,0.0,0.0,0.0,1.0,0.0,0.0,0.0,1.0
1463562837131761375,540,1463562837115813126,,5.94563770294,-0.733329534531,144.922180176,0.0101020000875,1.0,0.0,0.0,0.0,1.0,0.0,0.0,0.0,1.0,-6.89024400711,0.0609756112099,1.2195122242,1.0,0.0,0.0,0.0,1.0,0.0,0.0,0.0,1.0,0.92416184082,-3.03105930176,-11.8512982178,1.0,0.0,0.0,0.0,1.0,0.0,0.0,0.0,1.0
1463562837132403047,541,1463562837125915028,,5.89737081528,-0.727689146996,144.969528198,0.0101020000875,1.0,0.0,0.0,0.0,1.0,0.0,0.0,0.0,1.0,-8.65853691101,-0.975609779358,3.7804877758,1.0,0.0,0.0,0.0,1.0,0.0,0.0,0.0,1.0,-0.383072265625,-2.11168571813,-9.96466730957,1.0,0.0,0.0,0.0,1.0,0.0,0.0,0.0,1.0
1463562837156603861,542,1463562837136106409,,5.84590864182,-0.718672037125,145.011947632,0.0101150004193,1.0,0.0,0.0,0.0,1.0,0.0,0.0,0.0,1.0,-11.2804880142,1.03658533096,3.10975623131,1.0,0.0,0.0,0.0,1.0,0.0,0.0,0.0,1.0,-0.694318481445,-2.50912333984,-9.85932243652,1.0,0.0,0.0,0.0,1.0,0.0,0.0,0.0,1.0
1463562837158201321,543,1463562837147554936,,5.75168085098,-0.721638262272,145.04019165,0.0100929997861,1.0,0.0,0.0,0.0,1.0,0.0,0.0,0.0,1.0,-13.658536911,0.304878056049,1.76829278469,1.0,0.0,0.0,0.0,1.0,0.0,0.0,0.0,1.0,-0.809240161133,-2.18830031738,-10.0364933594,1.0,0.0,0.0,0.0,1.0,0.0,0.0,0.0,1.0
1463562837158578407,544,1463562837156263233,,5.62244129181,-0.719916820526,145.059204102,0.010106000118,1.0,0.0,0.0,0.0,1.0,0.0,0.0,0.0,1.0,-15.0609760284,0.670731723309,0.792682945728,1.0,0.0,0.0,0.0,1.0,0.0,0.0,0.0,1.0,-0.814028564453,-1.81001645508,-10.1562034424,1.0,0.0,0.0,0.0,1.0,0.0,0.0,0.0,1.0
1463562837168213691,545,1463562837166379353,,5.49107980728,-0.711282908916,145.066055298,0.0101030003279,1.0,0.0,0.0,0.0,1.0,0.0,0.0,0.0,1.0,-15.975610733,1.03658533096,-0.426829278469,1.0,0.0,0.0,0.0,1.0,0.0,0.0,0.0,1.0,-0.785298144531,-1.92972653809,-10.2423947021,1.0,0.0,0.0,0.0,1.0,0.0,0.0,0.0,1.0
1463562837178982316,546,1463562837176477401,,5.34434366226,-0.705550134182,145.077651978,0.010095000267,1.0,0.0,0.0,0.0,1.0,0.0,0.0,0.0,1.0,-17.7439022064,0.365853667259,0.12195122242,1.0,0.0,0.0,0.0,1.0,0.0,0.0,0.0,1.0,-0.703895288086,-1.94888015137,-10.2376062988,1.0,0.0,0.0,0.0,1.0,0.0,0.0,0.0,1.0
1463562837189504950,547,1463562837186584771,,5.17477941513,-0.686863899231,145.096405029,0.0101159997284,1.0,0.0,0.0,0.0,1.0,0.0,0.0,0.0,1.0,-20.5487823486,0.914634168148,0.792682945728,1.0,0.0,0.0,0.0,1.0,0.0,0.0,0.0,1.0,-0.550666381836,-2.00634099121,-10.1131078125,1.0,0.0,0.0,0.0,1.0,0.0,0.0,0.0,1.0
1463562837199824718,548,1463562837196752142,,4.97239208221,-0.675345659256,145.127044678,0.0101020000875,1.0,0.0,0.0,0.0,1.0,0.0,0.0,0.0,1.0,-22.8048782349,0.426829278469,2.01219511032,1.0,0.0,0.0,0.0,1.0,0.0,0.0,0.0,1.0,-0.560243188477,-1.7669208252,-9.98860932617,1.0,0.0,0.0,0.0,1.0,0.0,0.0,0.0,1.0
1463562837211178609,549,1463562837206794460,,4.7622089386,-0.655867338181,145.163772583,0.0100959995762,1.0,0.0,0.0,0.0,1.0,0.0,0.0,0.0,1.0,-24.5731716156,1.34146344662,2.56097555161,1.0,0.0,0.0,0.0,1.0,0.0,0.0,0.0,1.0,-0.574608398438,-1.9105729248,-9.98382092285,1.0,0.0,0.0,0.0,1.0,0.0,0.0,0.0,1.0
1463562837229105832,550,1463562837216938133,,4.51444578171,-0.633623421192,145.194854736,0.0100870002061,1.0,0.0,0.0,0.0,1.0,0.0,0.0,0.0,1.0,-26.2195129395,1.15853655338,2.01219511032,1.0,0.0,0.0,0.0,1.0,0.0,0.0,0.0,1.0,-0.507570751953,-1.52271225586,-10.2136642822,1.0,0.0,0.0,0.0,1.0,0.0,0.0,0.0,1.0
1463562837235197338,551,1463562837227048785,,4.25613260269,-0.603757500648,145.214401245,0.010111999698,1.0,0.0,0.0,0.0,1.0,0.0,0.0,0.0,1.0,-25.9146347046,1.40243899822,0.853658556938,1.0,0.0,0.0,0.0,1.0,0.0,0.0,0.0,1.0,-0.430956298828,-1.24498486328,-10.2711251221,1.0,0.0,0.0,0.0,1.0,0.0,0.0,0.0,1.0
1463562837242363748,552,1463562837237143603,,3.98915290833,-0.580949008465,145.223999023,0.0101020000875,1.0,0.0,0.0,0.0,1.0,0.0,0.0,0.0,1.0,-25.6707324982,1.40243899822,-0.12195122242,1.0,0.0,0.0,0.0,1.0,0.0,0.0,0.0,1.0,-0.569819995117,-0.995987890625,-10.3429511719,1.0,0.0,0.0,0.0,1.0,0.0,0.0,0.0,1.0
1463562837255805936,553,1463562837247068941,,3.71438837051,-0.558760583401,145.230010986,0.0100899999961,1.0,0.0,0.0,0.0,1.0,0.0,0.0,0.0,1.0,-25.6097564697,0.914634168148,-0.426829278469,1.0,0.0,0.0,0.0,1.0,0.0,0.0,0.0,1.0,-0.483628735352,-0.775721337891,-10.1897222656,1.0,0.0,0.0,0.0,1.0,0.0,0.0,0.0,1.0
1463562837261065196,554,1463562837257269072,,3.4445643425,-0.534345924854,145.238922119,0.0101110003889,1.0,0.0,0.0,0.0,1.0,0.0,0.0,0.0,1.0,-25.0609760284,0.914634168148,-0.12195122242,1.0,0.0,0.0,0.0,1.0,0.0,0.0,0.0,1.0,-0.435744702148,-0.723048901367,-10.1466266357,1.0,0.0,0.0,0.0,1.0,0.0,0.0,0.0,1.0
1463562837289972504,555,1463562837267312849,,3.19166946411,-0.509109556675,145.25428772,0.0101079996675,1.0,0.0,0.0,0.0,1.0,0.0,0.0,0.0,1.0,-24.9390239716,0.914634168148,0.548780500889,1.0,0.0,0.0,0.0,1.0,0.0,0.0,0.0,1.0,-0.416591088867,-0.967257470703,-10.285490332,1.0,0.0,0.0,0.0,1.0,0.0,0.0,0.0,1.0
1463562837290209225,556,1463562837277585689,,2.93059420586,-0.488579690456,145.284957886,0.0100919995457,1.0,0.0,0.0,0.0,1.0,0.0,0.0,0.0,1.0,-26.9512195587,1.2195122242,2.07317066193,1.0,0.0,0.0,0.0,1.0,0.0,0.0,0.0,1.0,-0.531512805087,-1.12048637695,-10.1370498291,1.0,0.0,0.0,0.0,1.0,0.0,0.0,0.0,1.0
1463562837333489667,557,1463562837289969327,,2.58431601524,-0.461857587099,145.337356567,0.0122929997742,1.0,0.0,0.0,0.0,1.0,0.0,0.0,0.0,1.0,-29.0243911743,1.58536589146,3.29268312454,1.0,0.0,0.0,0.0,1.0,0.0,0.0,0.0,1.0,-0.555454785156,-1.02471831055,-10.046070166,1.0,0.0,0.0,0.0,1.0,0.0,0.0,0.0,1.0
1463562837333528261,558,1463562837297612043,,2.35522294044,-0.44187182188,145.373321533,0.00791000016034,1.0,0.0,0.0,0.0,1.0,0.0,0.0,0.0,1.0,-30.3048782349,1.70731711388,3.59756112099,1.0,0.0,0.0,0.0,1.0,0.0,0.0,0.0,1.0,-0.517147558594,-1.06302561017,-10.1705686523,1.0,0.0,0.0,0.0,1.0,0.0,0.0,0.0,1.0
1463562837333568313,559,1463562837307870300,,2.05876588821,-0.419052124023,145.416061401,0.0101190004498,1.0,0.0,0.0,0.0,1.0,0.0,0.0,0.0,1.0,-30.8536605835,1.8902438879,3.29268312454,1.0,0.0,0.0,0.0,1.0,0.0,0.0,0.0,1.0,-0.603338854892,-1.06302561017,-10.1992990723,1.0,0.0,0.0,0.0,1.0,0.0,0.0,0.0,1.0
1463562837333606438,560,1463562837318155016,,1.75142836571,-0.403100341558,145.448425293,0.0100729996338,1.0,0.0,0.0,0.0,1.0,0.0,0.0,0.0,1.0,-31.0365867615,1.46341466904,2.31707310677,1.0,0.0,0.0,0.0,1.0,0.0,0.0,0.0,1.0,-0.651222851562,-0.818816967773,-10.180145459,1.0,0.0,0.0,0.0,1.0,0.0,0.0,0.0,1.0
1463562837333645449,561,1463562837328195250,,1.4385727644,-0.376623660326,145.465393066,0.0101039996371,1.0,0.0,0.0,0.0,1.0,0.0,0.0,0.0,1.0,-31.0975627899,2.25609779358,0.792682945728,1.0,0.0,0.0,0.0,1.0,0.0,0.0,0.0,1.0,-0.61770402832,-0.694318481445,-10.2376062988,1.0,0.0,0.0,0.0,1.0,0.0,0.0,0.0,1.0
1463562837353463676,562,1463562837347673735,,1.12086296082,-0.372234851122,145.48059082,0.0100959995762,1.0,0.0,0.0,0.0,1.0,0.0,0.0,0.0,1.0,-31.6463413239,1.15853655338,0.670731723309,1.0,0.0,0.0,0.0,1.0,0.0,0.0,0.0,1.0,-0.814028564453,-0.646434448242,-10.2471831055,1.0,0.0,0.0,0.0,1.0,0.0,0.0,0.0,1.0
1463562837355291034,563,1463562837352376793,,0.709972381592,-0.355274766684,145.515258789,0.01224500034,1.0,0.0,0.0,0.0,1.0,0.0,0.0,0.0,1.0,-33.5975608826,1.46341466904,2.01219511032,1.0,0.0,0.0,0.0,1.0,0.0,0.0,0.0,1.0,-0.675164868164,-0.550666381836,-9.97903251953,1.0,0.0,0.0,0.0,1.0,0.0,0.0,0.0,1.0
1463562837360581232,564,1463562837358406215,,0.434276819229,-0.343849420547,145.543991089,0.00797499995679,1.0,0.0,0.0,0.0,1.0,0.0,0.0,0.0,1.0,-33.7804870605,1.64634156227,2.80487799644,1.0,0.0,0.0,0.0,1.0,0.0,0.0,0.0,1.0,-0.713472094727,-0.339976635742,-10.2184526855,1.0,0.0,0.0,0.0,1.0,0.0,0.0,0.0,1.0
1463562837372908620,565,1463562837368408689,,0.0857264921069,-0.337792545557,145.577072144,0.010095000267,1.0,0.0,0.0,0.0,1.0,0.0,0.0,0.0,1.0,-33.1707305908,1.64634156227,2.5,1.0,0.0,0.0,0.0,1.0,0.0,0.0,0.0,1.0,-0.861912597656,-0.186747729492,-10.165780249,1.0,0.0,0.0,0.0,1.0,0.0,0.0,0.0,1.0
1463562837440643158,566,1463562837378415694,,-0.259562581778,-0.319941699505,145.598693848,0.0100830001757,1.0,0.0,0.0,0.0,1.0,0.0,0.0,0.0,1.0,-32.2560958862,2.01219511032,1.40243899822,1.0,0.0,0.0,0.0,1.0,0.0,0.0,0.0,1.0,-0.723048901367,-0.00957680664062,-10.2328178955,1.0,0.0,0.0,0.0,1.0,0.0,0.0,0.0,1.0
1463562837440680346,567,1463562837388880671,,-0.606745541096,-0.316971361637,145.609130859,0.0102509995922,1.0,0.0,0.0,0.0,1.0,0.0,0.0,0.0,1.0,-31.0365867615,1.34146344662,0.304878056049,1.0,0.0,0.0,0.0,1.0,0.0,0.0,0.0,1.0,-0.866701000977,0.205901342773,-10.2136642822,1.0,0.0,0.0,0.0,1.0,0.0,0.0,0.0,1.0
1463562837441224986,568,1463562837398748352,,-0.929988503456,-0.30342400074,145.622009277,0.00996300019324,1.0,0.0,0.0,0.0,1.0,0.0,0.0,0.0,1.0,-29.1463413239,1.58536589146,0.609756112099,1.0,0.0,0.0,0.0,1.0,0.0,0.0,0.0,1.0,-0.723048901367,0.354341845703,-10.285490332,1.0,0.0,0.0,0.0,1.0,0.0,0.0,0.0,1.0
1463562837441274361,569,1463562837408698899,,-1.23132872581,-0.304166764021,145.626205444,0.0100969998166,1.0,0.0,0.0,0.0,1.0,0.0,0.0,0.0,1.0,-27.317073822,1.09756100178,-0.243902444839,1.0,0.0,0.0,0.0,1.0,0.0,0.0,0.0,1.0,-0.890643017578,0.272938989258,-10.2711251221,1.0,0.0,0.0,0.0,1.0,0.0,0.0,0.0,1.0
1463562837441641760,570,1463562837419064188,,-1.53270435333,-0.29387140274,145.625671387,0.0101049998775,1.0,0.0,0.0,0.0,1.0,0.0,0.0,0.0,1.0,-26.4024391174,1.76829278469,-0.670731723309,1.0,0.0,0.0,0.0,1.0,0.0,0.0,0.0,1.0,-0.809240161133,0.488417138672,-10.2280294922,1.0,0.0,0.0,0.0,1.0,0.0,0.0,0.0,1.0
1463562837441695562,571,1463562837428982286,,-1.81708371639,-0.289145380259,145.617675781,0.0101100001484,1.0,0.0,0.0,0.0,1.0,0.0,0.0,0.0,1.0,-24.5121955872,0.975609779358,-1.40243899822,1.0,0.0,0.0,0.0,1.0,0.0,0.0,0.0,1.0,-0.76135612793,0.579396801758,-10.2471831055,1.0,0.0,0.0,0.0,1.0,0.0,0.0,0.0,1.0
1463562837442415568,572,1463562837439515441,,-2.09292197227,-0.280945241451,145.615493774,0.0100790001452,1.0,0.0,0.0,0.0,1.0,0.0,0.0,0.0,1.0,-23.2317085266,1.52439022064,-0.792682945728,1.0,0.0,0.0,0.0,1.0,0.0,0.0,0.0,1.0,-0.804451757813,0.727837304687,-10.2902787354,1.0,0.0,0.0,0.0,1.0,0.0,0.0,0.0,1.0
1463562837457492560,573,1463562837449296298,,-2.33562302589,-0.271359026432,145.613189697,0.0101049998775,1.0,0.0,0.0,0.0,1.0,0.0,0.0,0.0,1.0,-22.9268302917,0.792682945728,-0.792682945728,1.0,0.0,0.0,0.0,1.0,0.0,0.0,0.0,1.0,-0.636857641602,0.220266552734,-10.1945106689,1.0,0.0,0.0,0.0,1.0,0.0,0.0,0.0,1.0
1463562837466169920,574,1463562837459214813,,-2.5957300663,-0.262365818024,145.632263184,0.0100990002975,1.0,0.0,0.0,0.0,1.0,0.0,0.0,0.0,1.0,-24.0243911743,1.09756100178,1.34146344662,1.0,0.0,0.0,0.0,1.0,0.0,0.0,0.0,1.0,-0.727837304687,0.383072265625,-10.3429511719,1.0,0.0,0.0,0.0,1.0,0.0,0.0,0.0,1.0
1463562837505300745,575,1463562837469703697,,-2.86457967758,-0.249917834997,145.665740967,0.0102319996804,1.0,0.0,0.0,0.0,1.0,0.0,0.0,0.0,1.0,-24.6341457367,1.15853655338,2.74390244484,1.0,0.0,0.0,0.0,1.0,0.0,0.0,0.0,1.0,-0.689530078125,0.411802685547,-10.314220752,1.0,0.0,0.0,0.0,1.0,0.0,0.0,0.0,1.0
1463562837505340850,576,1463562837481012796,,-3.12346410751,-0.235320210457,145.692169189,0.0111680002883,1.0,0.0,0.0,0.0,1.0,0.0,0.0,0.0,1.0,-23.5365848541,1.46341466904,1.8902438879,1.0,0.0,0.0,0.0,1.0,0.0,0.0,0.0,1.0,-0.713472094727,0.0957680664062,-10.2136642822,1.0,0.0,0.0,0.0,1.0,0.0,0.0,0.0,1.0
1463562837505383090,577,1463562837489792239,,-3.33853578568,-0.233631432056,145.70262146,0.00895399972796,1.0,0.0,0.0,0.0,1.0,0.0,0.0,0.0,1.0,-23.5975627899,0.731707334518,0.670731723309,1.0,0.0,0.0,0.0,1.0,0.0,0.0,0.0,1.0,-0.780509741211,0.287304199219,-10.3429511719,1.0,0.0,0.0,0.0,1.0,0.0,0.0,0.0,1.0
1463562837508624157,578,1463562837502493744,,-3.5781621933,-0.226265385747,145.707763672,0.0107720000669,1.0,0.0,0.0,0.0,1.0,0.0,0.0,0.0,1.0,-23.658536911,1.64634156227,0.0609756112099,1.0,0.0,0.0,0.0,1.0,0.0,0.0,0.0,1.0,-0.823605371094,-0.00957680664062,-10.0077629395,1.0,0.0,0.0,0.0,1.0,0.0,0.0,0.0,1.0
1463562837604143391,579,1463562837509851354,,-3.79458403587,-0.218724057078,145.711532593,0.00937299989164,1.0,0.0,0.0,0.0,1.0,0.0,0.0,0.0,1.0,-23.4146347046,0.609756112099,-0.0609756112099,1.0,0.0,0.0,0.0,1.0,0.0,0.0,0.0,1.0,-0.612915625,0.225054956055,-9.95509050293,1.0,0.0,0.0,0.0,1.0,0.0,0.0,0.0,1.0
1463562837606579712,580,1463562837520683157,,-4.0414185524,-0.207159981132,145.717376709,0.0104339998215,1.0,0.0,0.0,0.0,1.0,0.0,0.0,0.0,1.0,-24.1463432312,1.64634156227,0.18292683363,1.0,0.0,0.0,0.0,1.0,0.0,0.0,0.0,1.0,-0.76135612793,0.239420166016,-10.1945106689,1.0,0.0,0.0,0.0,1.0,0.0,0.0,0.0,1.0
1463562837606730963,581,1463562837530447035,,-4.28268384933,-0.197605550289,145.730545044,0.0097890002653,1.0,0.0,0.0,0.0,1.0,0.0,0.0,0.0,1.0,-24.8780498505,0.670731723309,0.914634168148,1.0,0.0,0.0,0.0,1.0,0.0,0.0,0.0,1.0,-0.61770402832,0.330399829102,-10.1992990723,1.0,0.0,0.0,0.0,1.0,0.0,0.0,0.0,1.0
1463562837606874714,582,1463562837540132579,,-4.5428314209,-0.174604132771,145.748413086,0.0100929997861,1.0,0.0,0.0,0.0,1.0,0.0,0.0,0.0,1.0,-25.0,1.2804877758,1.40243899822,1.0,0.0,0.0,0.0,1.0,0.0,0.0,0.0,1.0,-0.502782348633,0.560243188477,-10.285490332,1.0,0.0,0.0,0.0,1.0,0.0,0.0,0.0,1.0
1463562837606914819,583,1463562837550914903,,-4.77588415146,-0.156570002437,145.754592896,0.0101269995794,1.0,0.0,0.0,0.0,1.0,0.0,0.0,0.0,1.0,-24.817073822,0.914634168148,0.243902444839,1.0,0.0,0.0,0.0,1.0,0.0,0.0,0.0,1.0,-0.507570751953,0.138863696289,-10.3094323486,1.0,0.0,0.0,0.0,1.0,0.0,0.0,0.0,1.0
1463562837606952736,584,1463562837561049513,,-5.02151727676,-0.136618107557,145.754425049,0.0100880004466,1.0,0.0,0.0,0.0,1.0,0.0,0.0,0.0,1.0,-25.5487804413,0.914634168148,-0.365853667259,1.0,0.0,0.0,0.0,1.0,0.0,0.0,0.0,1.0,-0.45968671875,0.292092584273,-10.314220752,1.0,0.0,0.0,0.0,1.0,0.0,0.0,0.0,1.0
1463562837606985028,585,1463562837571515480,,-5.25416946411,-0.11675042659,145.748001099,0.010098000057,1.0,0.0,0.0,0.0,1.0,0.0,0.0,0.0,1.0,-25.182926178,0.792682945728,-0.975609779358,1.0,0.0,0.0,0.0,1.0,0.0,0.0,0.0,1.0,-0.421379492187,0.162805712891,-10.2088758789,1.0,0.0,0.0,0.0,1.0,0.0,0.0,0.0,1.0
1463562837607104143,586,1463562837581434516,,-5.50762081146,-0.0886751040816,145.73890686,0.0100819999352,1.0,0.0,0.0,0.0,1.0,0.0,0.0,0.0,1.0,-25.7317085266,1.52439022064,-1.15853655338,1.0,0.0,0.0,0.0,1.0,0.0,0.0,0.0,1.0,-0.397437475586,0.483628735352,-10.180145459,1.0,0.0,0.0,0.0,1.0,0.0,0.0,0.0,1.0
1463562837607310968,587,1463562837591596002,,-5.7808599472,-0.0689584612846,145.70640564,0.0108080003411,1.0,0.0,0.0,0.0,1.0,0.0,0.0,0.0,1.0,-24.9390239716,1.03658533096,-3.29268312454,1.0,0.0,0.0,0.0,1.0,0.0,0.0,0.0,1.0,-0.440533105469,0.699106884766,-10.1945106689,1.0,0.0,0.0,0.0,1.0,0.0,0.0,0.0,1.0
1463562837608059724,588,1463562837601147326,,-6.02598810196,-0.0547333024442,145.676086426,0.00942599959671,1.0,0.0,0.0,0.0,1.0,0.0,0.0,0.0,1.0,-24.3902435303,1.70731711388,-3.41463422775,1.0,0.0,0.0,0.0,1.0,0.0,0.0,0.0,1.0,-0.612915625,0.981622680664,-10.2232410889,1.0,0.0,0.0,0.0,1.0,0.0,0.0,0.0,1.0
1463562837668970042,589,1463562837611232300,,-6.25835704803,-0.0479782409966,145.622558594,0.0101800002158,1.0,0.0,0.0,0.0,1.0,0.0,0.0,0.0,1.0,-21.7073173523,0.670731723309,-5.54878091812,1.0,0.0,0.0,0.0,1.0,0.0,0.0,0.0,1.0,-0.531512805087,0.933738647461,-10.2040874756,1.0,0.0,0.0,0.0,1.0,0.0,0.0,0.0,1.0
1463562837669248117,590,1463562837621494516,,-6.50788402557,-0.0279423054308,145.571563721,0.0100880004466,1.0,0.0,0.0,0.0,1.0,0.0,0.0,0.0,1.0,-20.7317085266,1.46341466904,-5.24390268326,1.0,0.0,0.0,0.0,1.0,0.0,0.0,0.0,1.0,-0.445321508789,1.52750065918,-10.3716815918,1.0,0.0,0.0,0.0,1.0,0.0,0.0,0.0,1.0
1463562837669898904,591,1463562837645002824,,-6.73309135437,-0.017956353724,145.501541138,0.0111199999228,1.0,0.0,0.0,0.0,1.0,0.0,0.0,0.0,1.0,-18.4146347046,0.975609779358,-6.52439069748,1.0,0.0,0.0,0.0,1.0,0.0,0.0,0.0,1.0,-0.517147558594,1.16358193377,-10.314220752,1.0,0.0,0.0,0.0,1.0,0.0,0.0,0.0,1.0
1463562837669946769,592,1463562837650913964,,-7.02837276459,-0.0200513005257,145.392196655,0.0159440003335,1.0,0.0,0.0,0.0,1.0,0.0,0.0,0.0,1.0,-16.0365848541,-0.0609756112099,-7.19512224197,1.0,0.0,0.0,0.0,1.0,0.0,0.0,0.0,1.0,-0.488417138672,1.30244570312,-10.1466266357,1.0,0.0,0.0,0.0,1.0,0.0,0.0,0.0,1.0
1463562837670276823,593,1463562837655837179,,-7.12121200562,-0.0189443845302,145.354431152,0.00530300009996,1.0,0.0,0.0,0.0,1.0,0.0,0.0,0.0,1.0,-16.2804889679,0.487804889679,-7.37804937363,1.0,0.0,0.0,0.0,1.0,0.0,0.0,0.0,1.0,-0.521935925381,1.13963999023,-10.2567599121,1.0,0.0,0.0,0.0,1.0,0.0,0.0,0.0,1.0
1463562837670700212,594,1463562837662257490,,-7.29314947128,-0.0138567462564,145.298782349,0.00874400045723,1.0,0.0,0.0,0.0,1.0,0.0,0.0,0.0,1.0,-15.9146347046,0.731707334518,-6.58536624908,1.0,0.0,0.0,0.0,1.0,0.0,0.0,0.0,1.0,-0.507570751953,1.59453830566,-10.0843773926,1.0,0.0,0.0,0.0,1.0,0.0,0.0,0.0,1.0
1463562837675880513,595,1463562837671402040,,-7.44324541092,-0.00458604516461,145.233764648,0.00928900018334,1.0,0.0,0.0,0.0,1.0,0.0,0.0,0.0,1.0,-14.0243902206,0.365853667259,-7.25609779358,1.0,0.0,0.0,0.0,1.0,0.0,0.0,0.0,1.0,-0.349553442383,1.34554133301,-10.1897222656,1.0,0.0,0.0,0.0,1.0,0.0,0.0,0.0,1.0
1463562837683631927,596,1463562837681681860,,-7.59839677811,0.0157322734594,145.170303345,0.0101150004193,1.0,0.0,0.0,0.0,1.0,0.0,0.0,0.0,1.0,-13.048781395,0.792682945728,-6.46341466904,1.0,0.0,0.0,0.0,1.0,0.0,0.0,0.0,1.0,-0.253785375977,1.38384855957,-10.0652237793,1.0,0.0,0.0,0.0,1.0,0.0,0.0,0.0,1.0
1463562837720183671,597,1463562837693517109,,-7.73200702667,0.0121372463182,145.107696533,0.010095000267,1.0,0.0,0.0,0.0,1.0,0.0,0.0,0.0,1.0,-12.3780488968,-0.243902444839,-6.52439069748,1.0,0.0,0.0,0.0,1.0,0.0,0.0,0.0,1.0,-0.493205541992,1.17315874041,-10.2423947021,1.0,0.0,0.0,0.0,1.0,0.0,0.0,0.0,1.0
1463562837720593934,598,1463562837701646026,,-7.85911417007,0.0322269685566,145.035690308,0.0100990002975,1.0,0.0,0.0,0.0,1.0,0.0,0.0,0.0,1.0,-12.1341466904,1.15853655338,-7.25609779358,1.0,0.0,0.0,0.0,1.0,0.0,0.0,0.0,1.0,-0.301669427446,1.13485158691,-10.3477395752,1.0,0.0,0.0,0.0,1.0,0.0,0.0,0.0,1.0
1463562837722076342,599,1463562837711848033,,-7.9832572937,0.0284710042179,144.959823608,0.0101070003584,1.0,0.0,0.0,0.0,1.0,0.0,0.0,0.0,1.0,-10.7317075729,-0.548780500889,-7.86585378647,1.0,0.0,0.0,0.0,1.0,0.0,0.0,0.0,1.0,-0.402225878906,1.35511813965,-10.299855542,1.0,0.0,0.0,0.0,1.0,0.0,0.0,0.0,1.0
1463562837737136094,600,1463562837722211551,,-8.11292362213,0.047089677304,144.888900757,0.010095000267,1.0,0.0,0.0,0.0,1.0,0.0,0.0,0.0,1.0,-9.32926845551,1.15853655338,-7.13414621353,1.0,0.0,0.0,0.0,1.0,0.0,0.0,0.0,1.0,-0.325611425781,1.75255561523,-10.3573163818,1.0,0.0,0.0,0.0,1.0,0.0,0.0,0.0,1.0
1463562837737187657,601,1463562837733528775,,-8.19963264465,0.0212028287351,144.795623779,0.0101039996371,1.0,0.0,0.0,0.0,1.0,0.0,0.0,0.0,1.0,-5.91463422775,-0.853658556938,-9.63414573669,1.0,0.0,0.0,0.0,1.0,0.0,0.0,0.0,1.0,-0.703895288086,1.62326872559,-10.3956236084,1.0,0.0,0.0,0.0,1.0,0.0,0.0,0.0,1.0
1463562837746612627,602,1463562837742098633,,-8.26793289185,0.0176942460239,144.680404663,0.0100959995762,1.0,0.0,0.0,0.0,1.0,0.0,0.0,0.0,1.0,-4.63414621353,0.365853667259,-11.6463422775,1.0,0.0,0.0,0.0,1.0,0.0,0.0,0.0,1.0,-0.45489831543,1.5083470459,-10.1897222656,1.0,0.0,0.0,0.0,1.0,0.0,0.0,0.0,1.0
1463562837780739195,603,1463562837752323817,,-8.31505680084,-0.0134808728471,144.551101685,0.0101100001484,1.0,0.0,0.0,0.0,1.0,0.0,0.0,0.0,1.0,-0.0609756112099,-1.03658533096,-13.2317075729,1.0,0.0,0.0,0.0,1.0,0.0,0.0,0.0,1.0,-0.665588061523,1.98718737793,-10.2328178955,1.0,0.0,0.0,0.0,1.0,0.0,0.0,0.0,1.0
1463562837780786956,604,1463562837762609678,,-8.31906414032,-0.0393777526915,144.42149353,0.0101319998503,1.0,0.0,0.0,0.0,1.0,0.0,0.0,0.0,1.0,2.07317066193,-0.18292683363,-13.1097564697,1.0,0.0,0.0,0.0,1.0,0.0,0.0,0.0,1.0,-0.723048901367,1.58974990234,-10.1705686523,1.0,0.0,0.0,0.0,1.0,0.0,0.0,0.0,1.0
1463562837781405867,605,1463562837772742726,,-8.31394386292,-0.0670848563313,144.287017822,0.0100910002366,1.0,0.0,0.0,0.0,1.0,0.0,0.0,0.0,1.0,3.04878044128,-1.09756100178,-13.7804880142,1.0,0.0,0.0,0.0,1.0,0.0,0.0,0.0,1.0,-0.579396801758,1.6041151123,-10.165780249,1.0,0.0,0.0,0.0,1.0,0.0,0.0,0.0,1.0
1463562837875316911,606,1463562837782765408,,-8.32664871216,-0.0823614373803,144.171279907,0.0100800003856,1.0,0.0,0.0,0.0,1.0,0.0,0.0,0.0,1.0,2.43902444839,-0.426829278469,-11.8292684555,1.0,0.0,0.0,0.0,1.0,0.0,0.0,0.0,1.0,-0.536301208408,1.82438166504,-10.2040874756,1.0,0.0,0.0,0.0,1.0,0.0,0.0,0.0,1.0
1463562837879695695,607,1463562837794248831,,-8.35559558868,-0.102477863431,144.09223938,0.0101410001516,1.0,0.0,0.0,0.0,1.0,0.0,0.0,0.0,1.0,2.07317066193,-0.731707334518,-8.17073154449,1.0,0.0,0.0,0.0,1.0,0.0,0.0,0.0,1.0,-0.670376464844,2.05901342773,-10.2184526855,1.0,0.0,0.0,0.0,1.0,0.0,0.0,0.0,1.0
1463562837880302367,608,1463562837802778533,,-8.38879299164,-0.115268059075,144.038803101,0.0100859999657,1.0,0.0,0.0,0.0,1.0,0.0,0.0,0.0,1.0,2.13414645195,-0.792682945728,-5.67073154449,1.0,0.0,0.0,0.0,1.0,0.0,0.0,0.0,1.0,-0.593762048251,2.14041643031,-10.1370498291,1.0,0.0,0.0,0.0,1.0,0.0,0.0,0.0,1.0
1463562837880355857,609,1463562837813378564,,-8.41756153107,-0.133654549718,144.003311157,0.0100919995457,1.0,0.0,0.0,0.0,1.0,0.0,0.0,0.0,1.0,3.04878044128,-0.548780500889,-3.84146332741,1.0,0.0,0.0,0.0,1.0,0.0,0.0,0.0,1.0,-0.804451757813,2.26970317383,-10.2902787354,1.0,0.0,0.0,0.0,1.0,0.0,0.0,0.0,1.0
1463562837880397055,610,1463562837823496872,,-8.43399810791,-0.149485692382,143.991622925,0.0101429997012,1.0,0.0,0.0,0.0,1.0,0.0,0.0,0.0,1.0,4.20731735229,-1.34146344662,-1.58536589146,1.0,0.0,0.0,0.0,1.0,0.0,0.0,0.0,1.0,-0.665588061523,2.23139594727,-10.1609918457,1.0,0.0,0.0,0.0,1.0,0.0,0.0,0.0,1.0
1463562837880440232,611,1463562837833651013,,-8.43169689178,-0.168797269464,144.001266479,0.0101039996371,1.0,0.0,0.0,0.0,1.0,0.0,0.0,0.0,1.0,4.93902444839,-0.853658556938,0.609756112099,1.0,0.0,0.0,0.0,1.0,0.0,0.0,0.0,1.0,-0.881066210937,2.03028300781,-10.1897222656,1.0,0.0,0.0,0.0,1.0,0.0,0.0,0.0,1.0
1463562837880480649,612,1463562837843080722,,-8.40987586975,-0.186673879623,144.019714355,0.0100389998406,1.0,0.0,0.0,0.0,1.0,0.0,0.0,0.0,1.0,6.46341466904,-1.09756100178,1.46341466904,1.0,0.0,0.0,0.0,1.0,0.0,0.0,0.0,1.0,-0.847547387695,1.97282216797,-10.3094323486,1.0,0.0,0.0,0.0,1.0,0.0,0.0,0.0,1.0
1463562837881052945,613,1463562837853581950,,-8.35761165619,-0.19944961369,144.040161133,0.0103010004386,1.0,0.0,0.0,0.0,1.0,0.0,0.0,0.0,1.0,9.08536529541,-0.853658556938,1.64634156227,1.0,0.0,0.0,0.0,1.0,0.0,0.0,0.0,1.0,-0.794874951172,1.90578452148,-10.2567599121,1.0,0.0,0.0,0.0,1.0,0.0,0.0,0.0,1.0
1463562837881106904,614,1463562837864246304,,-8.27612113953,-0.218607142568,144.051773071,0.00991799961776,1.0,0.0,0.0,0.0,1.0,0.0,0.0,0.0,1.0,11.2804880142,-1.09756100178,0.792682945728,1.0,0.0,0.0,0.0,1.0,0.0,0.0,0.0,1.0,-0.857124194336,1.72382519531,-10.285490332,1.0,0.0,0.0,0.0,1.0,0.0,0.0,0.0,1.0
1463562837881174613,615,1463562837873464501,,-8.17540359497,-0.231198906898,144.049942017,0.0100840004161,1.0,0.0,0.0,0.0,1.0,0.0,0.0,0.0,1.0,14.0853662491,-0.914634168148,-0.548780500889,1.0,0.0,0.0,0.0,1.0,0.0,0.0,0.0,1.0,-0.742202514648,1.92493813477,-10.405200415,1.0,0.0,0.0,0.0,1.0,0.0,0.0,0.0,1.0
1463562837920346793,616,1463562837883539632,,-8.04218769073,-0.242630600929,144.029434204,0.0101009998471,1.0,0.0,0.0,0.0,1.0,0.0,0.0,0.0,1.0,17.8048782349,-1.09756100178,-2.43902444839,1.0,0.0,0.0,0.0,1.0,0.0,0.0,0.0,1.0,-0.632069238281,1.98239897461,-10.285490332,1.0,0.0,0.0,0.0,1.0,0.0,0.0,0.0,1.0
1463562837920678879,617,1463562837893803826,,-7.87617397308,-0.255643934011,144.006561279,0.0100929997861,1.0,0.0,0.0,0.0,1.0,0.0,0.0,0.0,1.0,21.2804889679,-1.52439022064,-2.74390244484,1.0,0.0,0.0,0.0,1.0,0.0,0.0,0.0,1.0,-0.579396801758,2.00155258789,-10.3046439453,1.0,0.0,0.0,0.0,1.0,0.0,0.0,0.0,1.0
1463562837920727213,618,1463562837904513337,,-7.67554855347,-0.250945150852,143.987579346,0.0109419999644,1.0,0.0,0.0,0.0,1.0,0.0,0.0,0.0,1.0,23.9634151459,-1.34146344662,-2.19512200356,1.0,0.0,0.0,0.0,1.0,0.0,0.0,0.0,1.0,-0.316034619141,2.14520483363,-10.4291424316,1.0,0.0,0.0,0.0,1.0,0.0,0.0,0.0,1.0
1463562837921597272,619,1463562837913843201,,-7.47249984741,-0.254006177187,143.973556519,0.00926799979061,1.0,0.0,0.0,0.0,1.0,0.0,0.0,0.0,1.0,25.8536586761,-1.64634156227,-2.01219511032,1.0,0.0,0.0,0.0,1.0,0.0,0.0,0.0,1.0,-0.392649072266,1.73340200195,-10.1226846191,1.0,0.0,0.0,0.0,1.0,0.0,0.0,0.0,1.0
1463562837925730065,620,1463562837924232293,,-7.22494649887,-0.250726789236,143.967391968,0.0101180002093,1.0,0.0,0.0,0.0,1.0,0.0,0.0,0.0,1.0,27.3780498505,-1.09756100178,-1.03658533096,1.0,0.0,0.0,0.0,1.0,0.0,0.0,0.0,1.0,-0.397437475586,1.51313544922,-10.1705686523,1.0,0.0,0.0,0.0,1.0,0.0,0.0,0.0,1.0
1463562837935737070,621,1463562837934298777,,-6.96780538559,-0.26041829586,143.967681885,0.0100849997252,1.0,0.0,0.0,0.0,1.0,0.0,0.0,0.0,1.0,28.2926845551,-1.76829278469,-0.487804889679,1.0,0.0,0.0,0.0,1.0,0.0,0.0,0.0,1.0,-0.521935925381,1.44609780273,-10.1705686523,1.0,0.0,0.0,0.0,1.0,0.0,0.0,0.0,1.0
1463562837946681322,622,1463562837944123489,,-6.67564821243,-0.253550678492,143.971633911,0.0101100001484,1.0,0.0,0.0,0.0,1.0,0.0,0.0,0.0,1.0,29.6341457367,-0.731707334518,-0.0,1.0,0.0,0.0,0.0,1.0,0.0,0.0,0.0,1.0,-0.421379492187,1.02471831055,-10.180145459,1.0,0.0,0.0,0.0,1.0,0.0,0.0,0.0,1.0
1463562837958488653,623,1463562837954726228,,-6.37684059143,-0.254556328058,143.981719971,0.0104860002175,1.0,0.0,0.0,0.0,1.0,0.0,0.0,0.0,1.0,29.0853672028,-1.34146344662,0.487804889679,1.0,0.0,0.0,0.0,1.0,0.0,0.0,0.0,1.0,-0.45489831543,0.933738647461,-10.060435376,1.0,0.0,0.0,0.0,1.0,0.0,0.0,0.0,1.0
1463562837978080316,624,1463562837964441981,,-6.09003973007,-0.2582667768,143.991104126,0.00970999989659,1.0,0.0,0.0,0.0,1.0,0.0,0.0,0.0,1.0,29.2073173523,-0.792682945728,0.548780500889,1.0,0.0,0.0,0.0,1.0,0.0,0.0,0.0,1.0,-0.612915625,0.727837304687,-10.2280294922,1.0,0.0,0.0,0.0,1.0,0.0,0.0,0.0,1.0
1463562837978500216,625,1463562837974545133,,-5.78407621384,-0.260693311691,144.002410889,0.010108999908,1.0,0.0,0.0,0.0,1.0,0.0,0.0,0.0,1.0,29.3902435303,-1.52439022064,0.609756112099,1.0,0.0,0.0,0.0,1.0,0.0,0.0,0.0,1.0,-0.450109912109,0.569819995117,-10.1035310059,1.0,0.0,0.0,0.0,1.0,0.0,0.0,0.0,1.0
1463562838002161650,626,1463562837984653701,,-5.47315311432,-0.258037000895,144.003768921,0.010095000267,1.0,0.0,0.0,0.0,1.0,0.0,0.0,0.0,1.0,28.5975608826,-0.792682945728,-0.304878056049,1.0,0.0,0.0,0.0,1.0,0.0,0.0,0.0,1.0,-0.478840332031,0.282515795898,-10.2328178955,1.0,0.0,0.0,0.0,1.0,0.0,0.0,0.0,1.0
1463562838002637695,627,1463562837994692633,,-5.18752622604,-0.256666123867,144.007522583,0.0101039996371,1.0,0.0,0.0,0.0,1.0,0.0,0.0,0.0,1.0,28.1097564697,-1.09756100178,-0.12195122242,1.0,0.0,0.0,0.0,1.0,0.0,0.0,0.0,1.0,-0.45489831543,0.603338854892,-10.3429511719,1.0,0.0,0.0,0.0,1.0,0.0,0.0,0.0,1.0
1463562838031971362,628,1463562838004872452,,-4.89627456665,-0.256712019444,143.99899292,0.0101049998775,1.0,0.0,0.0,0.0,1.0,0.0,0.0,0.0,1.0,29.6951236725,-0.975609779358,-1.34146344662,1.0,0.0,0.0,0.0,1.0,0.0,0.0,0.0,1.0,-0.483628735352,0.742202514648,-10.3573163818,1.0,0.0,0.0,0.0,1.0,0.0,0.0,0.0,1.0
1463562838032400636,629,1463562838014800707,,-4.60847043991,-0.260065585375,143.983703613,0.0100840004161,1.0,0.0,0.0,0.0,1.0,0.0,0.0,0.0,1.0,31.4024391174,-1.46341466904,-2.07317066193,1.0,0.0,0.0,0.0,1.0,0.0,0.0,0.0,1.0,-0.440533105469,1.04387185076,-10.2423947021,1.0,0.0,0.0,0.0,1.0,0.0,0.0,0.0,1.0
1463562838032725847,630,1463562838030994739,,-4.12783765793,-0.258634835482,143.931549072,0.0161460004747,1.0,0.0,0.0,0.0,1.0,0.0,0.0,0.0,1.0,34.6951217651,-1.15853655338,-3.7804877758,1.0,0.0,0.0,0.0,1.0,0.0,0.0,0.0,1.0,-0.397437475586,1.36469494629,-10.1945106689,1.0,0.0,0.0,0.0,1.0,0.0,0.0,0.0,1.0
1463562838038222244,631,1463562838035016698,,-4.0022559166,-0.2602622509,143.918045044,0.00406799977645,1.0,0.0,0.0,0.0,1.0,0.0,0.0,0.0,1.0,36.0365867615,-2.19512200356,-3.96341490746,1.0,0.0,0.0,0.0,1.0,0.0,0.0,0.0,1.0,-0.296881024126,1.31202250977,-10.1274730225,1.0,0.0,0.0,0.0,1.0,0.0,0.0,0.0,1.0
1463562838055864100,632,1463562838045243965,,-3.66901111603,-0.260041177273,143.892715454,0.0101159997284,1.0,0.0,0.0,0.0,1.0,0.0,0.0,0.0,1.0,37.5609779358,-0.792682945728,-3.04878044128,1.0,0.0,0.0,0.0,1.0,0.0,0.0,0.0,1.0,-0.493205541992,1.20667770978,-10.2759135254,1.0,0.0,0.0,0.0,1.0,0.0,0.0,0.0,1.0
1463562838072531574,633,1463562838055215241,,-3.3142311573,-0.268247365952,143.884429932,0.0100830001757,1.0,0.0,0.0,0.0,1.0,0.0,0.0,0.0,1.0,38.7195129395,-2.07317066193,-1.46341466904,1.0,0.0,0.0,0.0,1.0,0.0,0.0,0.0,1.0,-0.430956298828,0.943315454102,-10.2567599121,1.0,0.0,0.0,0.0,1.0,0.0,0.0,0.0,1.0
1463562838072896629,634,1463562838067077312,,-2.8848490715,-0.265941411257,143.885116577,0.0116779999807,1.0,0.0,0.0,0.0,1.0,0.0,0.0,0.0,1.0,39.0243911743,-0.304878056049,-0.487804889679,1.0,0.0,0.0,0.0,1.0,0.0,0.0,0.0,1.0,-0.584185168546,0.651222851562,-10.3477395752,1.0,0.0,0.0,0.0,1.0,0.0,0.0,0.0,1.0
1463562838078993343,635,1463562838075398211,,-2.56824398041,-0.288649767637,143.891311646,0.00851500034332,1.0,0.0,0.0,0.0,1.0,0.0,0.0,0.0,1.0,39.5121955872,-2.31707310677,0.0609756112099,1.0,0.0,0.0,0.0,1.0,0.0,0.0,0.0,1.0,-0.737414111328,0.579396801758,-10.2328178955,1.0,0.0,0.0,0.0,1.0,0.0,0.0,0.0,1.0
1463562838190371242,636,1463562838086188607,,-2.15161991119,-0.295537084341,143.89263916,0.010106000118,1.0,0.0,0.0,0.0,1.0,0.0,0.0,0.0,1.0,39.2682914734,-0.18292683363,-0.426829278469,1.0,0.0,0.0,0.0,1.0,0.0,0.0,0.0,1.0,-0.76135612793,-0.253785375977,-10.2184526855,1.0,0.0,0.0,0.0,1.0,0.0,0.0,0.0,1.0
1463562838190417232,637,1463562838095642952,,-1.7994607687,-0.310546606779,143.924697876,0.0101079996675,1.0,0.0,0.0,0.0,1.0,0.0,0.0,0.0,1.0,36.1585350037,-1.8292683363,2.5,1.0,0.0,0.0,0.0,1.0,0.0,0.0,0.0,1.0,-0.632069238281,0.263362164351,-10.2807019287,1.0,0.0,0.0,0.0,1.0,0.0,0.0,0.0,1.0
1463562838190454264,638,1463562838105712041,,-1.41890740395,-0.308926582336,143.983581543,0.0101380003616,1.0,0.0,0.0,0.0,1.0,0.0,0.0,0.0,1.0,33.2926826477,-0.365853667259,5.18292713165,1.0,0.0,0.0,0.0,1.0,0.0,0.0,0.0,1.0,-0.603338854892,-0.804451757813,-10.1178962158,1.0,0.0,0.0,0.0,1.0,0.0,0.0,0.0,1.0
1463562838190608640,639,1463562838115903839,,-1.11336147785,-0.31961530447,144.078063965,0.0100530004129,1.0,0.0,0.0,0.0,1.0,0.0,0.0,0.0,1.0,28.8414649963,-0.548780500889,8.71951198578,1.0,0.0,0.0,0.0,1.0,0.0,0.0,0.0,1.0,-0.799663354492,-0.392649072266,-10.1562034424,1.0,0.0,0.0,0.0,1.0,0.0,0.0,0.0,1.0
1463562838199028445,640,1463562838125846052,,-0.799202084541,-0.348145216703,144.175689697,0.010106000118,1.0,0.0,0.0,0.0,1.0,0.0,0.0,0.0,1.0,27.0731716156,-1.46341466904,8.96341514587,1.0,0.0,0.0,0.0,1.0,0.0,0.0,0.0,1.0,-0.928950244141,-0.876277807617,-9.93593688965,1.0,0.0,0.0,0.0,1.0,0.0,0.0,0.0,1.0
1463562838199086883,641,1463562838136097277,,-0.550560414791,-0.333559125662,144.280578613,0.0101749999449,1.0,0.0,0.0,0.0,1.0,0.0,0.0,0.0,1.0,27.1951236725,0.426829278469,9.5731716156,1.0,0.0,0.0,0.0,1.0,0.0,0.0,0.0,1.0,-0.512359155273,0.268150604204,-10.0748005859,1.0,0.0,0.0,0.0,1.0,0.0,0.0,0.0,1.0
1463562838199126988,642,1463562838146131522,,-0.257059365511,-0.362732440233,144.355255127,0.010050999932,1.0,0.0,0.0,0.0,1.0,0.0,0.0,0.0,1.0,27.5609760284,-1.8292683363,6.70731735229,1.0,0.0,0.0,0.0,1.0,0.0,0.0,0.0,1.0,-0.881066210937,-0.565031591797,-10.1945106689,1.0,0.0,0.0,0.0,1.0,0.0,0.0,0.0,1.0
1463562838199162561,643,1463562838156263737,,0.0282966177911,-0.364971965551,144.406829834,0.0100769996643,1.0,0.0,0.0,0.0,1.0,0.0,0.0,0.0,1.0,28.7195110321,-0.243902444839,4.39024400711,1.0,0.0,0.0,0.0,1.0,0.0,0.0,0.0,1.0,-0.675164868164,-0.244208569336,-10.1370498291,1.0,0.0,0.0,0.0,1.0,0.0,0.0,0.0,1.0
1463562838199302197,644,1463562838166415587,,0.340321004391,-0.398890405893,144.442459106,0.0101140001789,1.0,0.0,0.0,0.0,1.0,0.0,0.0,0.0,1.0,29.7560997009,-1.95121955872,2.80487799644,1.0,0.0,0.0,0.0,1.0,0.0,0.0,0.0,1.0,-0.948103857422,-0.574608398438,-10.3381627686,1.0,0.0,0.0,0.0,1.0,0.0,0.0,0.0,1.0
1463562838199352510,645,1463562838176477957,,0.654366910458,-0.413262367249,144.463989258,0.010106000118,1.0,0.0,0.0,0.0,1.0,0.0,0.0,0.0,1.0,30.6097583771,-1.34146344662,1.40243899822,1.0,0.0,0.0,0.0,1.0,0.0,0.0,0.0,1.0,-0.694318481445,-0.502782348633,-10.1178962158,1.0,0.0,0.0,0.0,1.0,0.0,0.0,0.0,1.0
1463562838200476061,646,1463562838186687672,,0.990764200687,-0.441630125046,144.469299316,0.0101810004562,1.0,0.0,0.0,0.0,1.0,0.0,0.0,0.0,1.0,29.5121974945,-1.34146344662,-0.18292683363,1.0,0.0,0.0,0.0,1.0,0.0,0.0,0.0,1.0,-0.948103857422,-1.11090957031,-10.1083194092,1.0,0.0,0.0,0.0,1.0,0.0,0.0,0.0,1.0
1463562838200538874,647,1463562838196756084,,1.27341878414,-0.449529021978,144.500076294,0.0100100003183,1.0,0.0,0.0,0.0,1.0,0.0,0.0,0.0,1.0,27.5,-1.2804877758,2.31707310677,1.0,0.0,0.0,0.0,1.0,0.0,0.0,0.0,1.0,-0.593762048251,-0.670376464844,-10.1466266357,1.0,0.0,0.0,0.0,1.0,0.0,0.0,0.0,1.0
1463562838265063908,648,1463562838206739703,,1.58284938335,-0.454403162003,144.537231445,0.0100990002975,1.0,0.0,0.0,0.0,1.0,0.0,0.0,0.0,1.0,25.3658542633,-0.487804889679,2.92682933807,1.0,0.0,0.0,0.0,1.0,0.0,0.0,0.0,1.0,-0.675164868164,-1.5322890625,-10.0317049561,1.0,0.0,0.0,0.0,1.0,0.0,0.0,0.0,1.0
1463562838265107762,649,1463562838217070044,,1.82524681091,-0.470444709063,144.591720581,0.0100940000266,1.0,0.0,0.0,0.0,1.0,0.0,0.0,0.0,1.0,21.4634151459,-1.58536589146,4.63414621353,1.0,0.0,0.0,0.0,1.0,0.0,0.0,0.0,1.0,-0.679953271484,-1.12527478027,-10.3046439453,1.0,0.0,0.0,0.0,1.0,0.0,0.0,0.0,1.0
1463562838265146669,650,1463562838227109549,,2.05744695663,-0.476617544889,144.638595581,0.010111999698,1.0,0.0,0.0,0.0,1.0,0.0,0.0,0.0,1.0,18.9634151459,-0.426829278469,3.84146332741,1.0,0.0,0.0,0.0,1.0,0.0,0.0,0.0,1.0,-0.708683691406,-1.41736738281,-10.1562034424,1.0,0.0,0.0,0.0,1.0,0.0,0.0,0.0,1.0
1463562838265184065,651,1463562838237252597,,2.24349212646,-0.487064361572,144.707641602,0.0100880004466,1.0,0.0,0.0,0.0,1.0,0.0,0.0,0.0,1.0,16.4634151459,-1.09756100178,6.0365858078,1.0,0.0,0.0,0.0,1.0,0.0,0.0,0.0,1.0,-0.641646044922,-1.08696755371,-10.1035310059,1.0,0.0,0.0,0.0,1.0,0.0,0.0,0.0,1.0
1463562838265220055,652,1463562838247301165,,2.42819857597,-0.492358952761,144.766845703,0.0101420003921,1.0,0.0,0.0,0.0,1.0,0.0,0.0,0.0,1.0,14.2682924271,0.0,5.0,1.0,0.0,0.0,0.0,1.0,0.0,0.0,0.0,1.0,-0.756567724609,-1.47961662598,-10.1178962158,1.0,0.0,0.0,0.0,1.0,0.0,0.0,0.0,1.0
1463562838265259691,653,1463562838257558328,,2.56248474121,-0.505430698395,144.82699585,0.0100849997252,1.0,0.0,0.0,0.0,1.0,0.0,0.0,0.0,1.0,12.8048782349,-0.792682945728,5.12195110321,1.0,0.0,0.0,0.0,1.0,0.0,0.0,0.0,1.0,-0.751779321289,-0.895431420898,-10.1992990723,1.0,0.0,0.0,0.0,1.0,0.0,0.0,0.0,1.0
1463562838324996927,654,1463562838267432416,,2.72430634499,-0.488558679819,144.878601074,0.0100699998438,1.0,0.0,0.0,0.0,1.0,0.0,0.0,0.0,1.0,13.2317075729,-1.46341466904,4.32926845551,1.0,0.0,0.0,0.0,1.0,0.0,0.0,0.0,1.0,-0.0909796630859,-1.23540805664,-9.38048151997,1.0,0.0,0.0,0.0,1.0,0.0,0.0,0.0,1.0
1463562838325386618,655,1463562838277820518,,2.87682986259,-0.520987689495,144.928146362,0.0101640000939,1.0,0.0,0.0,0.0,1.0,0.0,0.0,0.0,1.0,12.0731716156,-1.58536589146,4.08536577225,1.0,0.0,0.0,0.0,1.0,0.0,0.0,0.0,1.0,-0.948103857422,-1.37427175293,-10.0652237793,1.0,0.0,0.0,0.0,1.0,0.0,0.0,0.0,1.0
1463562838325449066,656,1463562838294312105,,2.9983189106,-0.501856207848,144.967208862,0.0100670000538,1.0,0.0,0.0,0.0,1.0,0.0,0.0,0.0,1.0,8.65853691101,0.487804889679,2.98780488968,1.0,0.0,0.0,0.0,1.0,0.0,0.0,0.0,1.0,-0.407014282227,-1.44609780273,-9.80665,1.0,0.0,0.0,0.0,1.0,0.0,0.0,0.0,1.0
1463562838360244910,657,1463562838297675568,,3.07465696335,-0.517040669918,145.018218994,0.0100769996643,1.0,0.0,0.0,0.0,1.0,0.0,0.0,0.0,1.0,7.37804937363,-2.13414645195,4.2682929039,1.0,0.0,0.0,0.0,1.0,0.0,0.0,0.0,1.0,-0.541089611728,-0.928950244141,-10.0891657959,1.0,0.0,0.0,0.0,1.0,0.0,0.0,0.0,1.0
1463562838360513975,658,1463562838307852418,,3.15483307838,-0.50773203373,145.072601318,0.0101359998807,1.0,0.0,0.0,0.0,1.0,0.0,0.0,0.0,1.0,5.97560977936,0.304878056049,4.45121955872,1.0,0.0,0.0,0.0,1.0,0.0,0.0,0.0,1.0,-0.555454785156,-1.28329208984,-10.3046439453,1.0,0.0,0.0,0.0,1.0,0.0,0.0,0.0,1.0
1463562838360768560,659,1463562838317883226,,3.20905590057,-0.504213809967,145.120010376,0.0100760003552,1.0,0.0,0.0,0.0,1.0,0.0,0.0,0.0,1.0,5.18292713165,-0.914634168148,3.84146332741,1.0,0.0,0.0,0.0,1.0,0.0,0.0,0.0,1.0,-0.445321508789,-0.991199487305,-10.4626612549,1.0,0.0,0.0,0.0,1.0,0.0,0.0,0.0,1.0
1463562838361058406,660,1463562838327999451,,3.25181102753,-0.50362432003,145.153076172,0.0101030003279,1.0,0.0,0.0,0.0,1.0,0.0,0.0,0.0,1.0,4.81707286835,-1.52439022064,2.43902444839,1.0,0.0,0.0,0.0,1.0,0.0,0.0,0.0,1.0,-0.387860668945,-0.828393774414,-10.1609918457,1.0,0.0,0.0,0.0,1.0,0.0,0.0,0.0,1.0
1463562838361359346,661,1463562838338015258,,3.30301070213,-0.49902126193,145.175140381,0.0100919995457,1.0,0.0,0.0,0.0,1.0,0.0,0.0,0.0,1.0,5.48780488968,-0.18292683363,1.2804877758,1.0,0.0,0.0,0.0,1.0,0.0,0.0,0.0,1.0,-0.569819995117,-0.866701000977,-10.1753570557,1.0,0.0,0.0,0.0,1.0,0.0,0.0,0.0,1.0
1463562838430321342,662,1463562838348102159,,3.35297179222,-0.489847809076,145.189315796,0.0100919995457,1.0,0.0,0.0,0.0,1.0,0.0,0.0,0.0,1.0,5.91463422775,-1.15853655338,0.548780500889,1.0,0.0,0.0,0.0,1.0,0.0,0.0,0.0,1.0,-0.320823022461,-0.780509741211,-10.2471831055,1.0,0.0,0.0,0.0,1.0,0.0,0.0,0.0,1.0
1463562838430610094,663,1463562838358244634,,3.40917134285,-0.488072872162,145.198745728,0.0101199997589,1.0,0.0,0.0,0.0,1.0,0.0,0.0,0.0,1.0,6.15853643417,-0.792682945728,0.0609756112099,1.0,0.0,0.0,0.0,1.0,0.0,0.0,0.0,1.0,-0.531512805087,-0.866701000977,-10.3956236084,1.0,0.0,0.0,0.0,1.0,0.0,0.0,0.0,1.0
1463562838430860982,664,1463562838368370078,,3.45937800407,-0.478155404329,145.203857422,0.0100769996643,1.0,0.0,0.0,0.0,1.0,0.0,0.0,0.0,1.0,5.30487823486,-0.792682945728,-0.365853667259,1.0,0.0,0.0,0.0,1.0,0.0,0.0,0.0,1.0,-0.383072265625,-0.9193734375,-10.2950671387,1.0,0.0,0.0,0.0,1.0,0.0,0.0,0.0,1.0
1463562838431150255,665,1463562838378471563,,3.50807523727,-0.468948721886,145.212738037,0.0101349996403,1.0,0.0,0.0,0.0,1.0,0.0,0.0,0.0,1.0,5.18292713165,-0.792682945728,-0.0,1.0,0.0,0.0,0.0,1.0,0.0,0.0,0.0,1.0,-0.383072265625,-0.900219824219,-10.0843773926,1.0,0.0,0.0,0.0,1.0,0.0,0.0,0.0,1.0
1463562838431416350,666,1463562838388543568,,3.54140996933,-0.460125863552,145.22555542,0.0100689996034,1.0,0.0,0.0,0.0,1.0,0.0,0.0,0.0,1.0,4.2682929039,-0.426829278469,0.365853667259,1.0,0.0,0.0,0.0,1.0,0.0,0.0,0.0,1.0,-0.450109912109,-0.809240161133,-10.1322614258,1.0,0.0,0.0,0.0,1.0,0.0,0.0,0.0,1.0
1463562838431689113,667,1463562838398613491,,3.57707381248,-0.455317258835,145.239929199,0.0101190004498,1.0,0.0,0.0,0.0,1.0,0.0,0.0,0.0,1.0,4.57317066193,-1.03658533096,0.548780500889,1.0,0.0,0.0,0.0,1.0,0.0,0.0,0.0,1.0,-0.407014282227,-0.794874951172,-10.0795889893,1.0,0.0,0.0,0.0,1.0,0.0,0.0,0.0,1.0
1463562838432174690,668,1463562838408798935,,3.59635972977,-0.452327460051,145.256561279,0.0100830001757,1.0,0.0,0.0,0.0,1.0,0.0,0.0,0.0,1.0,4.14634132385,-0.487804889679,0.731707334518,1.0,0.0,0.0,0.0,1.0,0.0,0.0,0.0,1.0,-0.541089611728,-0.598550451572,-10.2328178955,1.0,0.0,0.0,0.0,1.0,0.0,0.0,0.0,1.0
1463562838432497505,669,1463562838418810419,,3.62217950821,-0.43916413188,145.260726929,0.0101180002093,1.0,0.0,0.0,0.0,1.0,0.0,0.0,0.0,1.0,4.81707286835,-0.731707334518,-0.487804889679,1.0,0.0,0.0,0.0,1.0,0.0,0.0,0.0,1.0,-0.330399829102,-0.598550451572,-10.299855542,1.0,0.0,0.0,0.0,1.0,0.0,0.0,0.0,1.0
1463562838438674063,670,1463562838429006800,,3.65268182755,-0.429685473442,145.265670776,0.0100929997861,1.0,0.0,0.0,0.0,1.0,0.0,0.0,0.0,1.0,5.54878091812,-0.548780500889,-0.426829278469,1.0,0.0,0.0,0.0,1.0,0.0,0.0,0.0,1.0,-0.426167895508,-0.555454785156,-10.2950671387,1.0,0.0,0.0,0.0,1.0,0.0,0.0,0.0,1.0
1463562838539864071,671,1463562838439089119,,3.69650626183,-0.422109603882,145.260848999,0.0101290000603,1.0,0.0,0.0,0.0,1.0,0.0,0.0,0.0,1.0,6.34146356583,-1.2195122242,-1.34146344662,1.0,0.0,0.0,0.0,1.0,0.0,0.0,0.0,1.0,-0.344765039063,-0.646434448242,-10.1897222656,1.0,0.0,0.0,0.0,1.0,0.0,0.0,0.0,1.0
1463562838549879149,672,1463562838449178781,,3.73870229721,-0.41256415844,145.269241333,0.0100809996948,1.0,0.0,0.0,0.0,1.0,0.0,0.0,0.0,1.0,5.73170757294,-0.853658556938,-0.0609756112099,1.0,0.0,0.0,0.0,1.0,0.0,0.0,0.0,1.0,-0.363918652344,-0.751779321289,-10.3429511719,1.0,0.0,0.0,0.0,1.0,0.0,0.0,0.0,1.0
1463562838551133690,673,1463562838459364589,,3.79383301735,-0.404224097729,145.280670166,0.0101340003312,1.0,0.0,0.0,0.0,1.0,0.0,0.0,0.0,1.0,4.93902444839,-0.792682945728,0.243902444839,1.0,0.0,0.0,0.0,1.0,0.0,0.0,0.0,1.0,-0.387860668945,-1.12048637695,-10.1945106689,1.0,0.0,0.0,0.0,1.0,0.0,0.0,0.0,1.0
1463562838551513068,674,1463562838469357167,,3.83940839767,-0.400855988264,145.310333252,0.0100680002943,1.0,0.0,0.0,0.0,1.0,0.0,0.0,0.0,1.0,2.68292689323,-0.975609779358,2.07317066193,1.0,0.0,0.0,0.0,1.0,0.0,0.0,0.0,1.0,-0.416591088867,-1.36469494629,-10.0939541992,1.0,0.0,0.0,0.0,1.0,0.0,0.0,0.0,1.0
1463562838551805726,675,1463562838479602507,,3.87435746193,-0.378503978252,145.347473145,0.0101110003889,1.0,0.0,0.0,0.0,1.0,0.0,0.0,0.0,1.0,-0.670731723309,0.0609756112099,2.74390244484,1.0,0.0,0.0,0.0,1.0,0.0,0.0,0.0,1.0,-0.258573779297,-1.80043964844,-10.1466266357,1.0,0.0,0.0,0.0,1.0,0.0,0.0,0.0,1.0
1463562838552080104,676,1463562838489569981,,3.85637879372,-0.363167762756,145.399627686,0.0100929997861,1.0,0.0,0.0,0.0,1.0,0.0,0.0,0.0,1.0,-3.96341490746,0.18292683363,4.20731735229,1.0,0.0,0.0,0.0,1.0,0.0,0.0,0.0,1.0,-0.387860668945,-1.47003981934,-10.2902787354,1.0,0.0,0.0,0.0,1.0,0.0,0.0,0.0,1.0
1463562838552341929,677,1463562838500148032,,3.82406115532,-0.336400598288,145.440002441,0.0101129999384,1.0,0.0,0.0,0.0,1.0,0.0,0.0,0.0,1.0,-5.24390268326,0.0,3.04878044128,1.0,0.0,0.0,0.0,1.0,0.0,0.0,0.0,1.0,-0.15801730957,-1.42694418945,-10.1992990723,1.0,0.0,0.0,0.0,1.0,0.0,0.0,0.0,1.0
1463562838552782609,678,1463562838509884618,,3.7697031498,-0.318516939878,145.459625244,0.0101150004193,1.0,0.0,0.0,0.0,1.0,0.0,0.0,0.0,1.0,-5.60975599289,0.243902444839,0.975609779358,1.0,0.0,0.0,0.0,1.0,0.0,0.0,0.0,1.0,-0.387860668945,-1.10612116699,-10.3764699951,1.0,0.0,0.0,0.0,1.0,0.0,0.0,0.0,1.0
1463562838553039538,679,1463562838520111625,,3.70809555054,-0.289344787598,145.456237793,0.0100830001757,1.0,0.0,0.0,0.0,1.0,0.0,0.0,0.0,1.0,-4.57317066193,-0.0609756112099,-1.2804877758,1.0,0.0,0.0,0.0,1.0,0.0,0.0,0.0,1.0,-0.148440512063,-0.76614453125,-10.3716815918,1.0,0.0,0.0,0.0,1.0,0.0,0.0,0.0,1.0
1463562838553314019,680,1463562838530166652,,3.64904689789,-0.268208622932,145.443603516,0.0101220002398,1.0,0.0,0.0,0.0,1.0,0.0,0.0,0.0,1.0,-4.08536577225,0.0609756112099,-2.19512200356,1.0,0.0,0.0,0.0,1.0,0.0,0.0,0.0,1.0,-0.320823022461,-0.708683691406,-10.2759135254,1.0,0.0,0.0,0.0,1.0,0.0,0.0,0.0,1.0
1463562838553627407,681,1463562838540276105,,3.57968139648,-0.248926073313,145.433700562,0.0100729996338,1.0,0.0,0.0,0.0,1.0,0.0,0.0,0.0,1.0,-4.45121955872,-0.548780500889,-1.8902438879,1.0,0.0,0.0,0.0,1.0,0.0,0.0,0.0,1.0,-0.234631762695,-0.574608398438,-10.299855542,1.0,0.0,0.0,0.0,1.0,0.0,0.0,0.0,1.0
1463562838553968452,682,1463562838550276912,,3.49037408829,-0.24044534564,145.43762207,0.0101070003584,1.0,0.0,0.0,0.0,1.0,0.0,0.0,0.0,1.0,-5.42682933807,-0.18292683363,-0.548780500889,1.0,0.0,0.0,0.0,1.0,0.0,0.0,0.0,1.0,-0.469263525391,-0.378283862305,-10.1131078125,1.0,0.0,0.0,0.0,1.0,0.0,0.0,0.0,1.0
1463562838628696013,683,1463562838560793765,,3.3926897049,-0.249557971954,145.458297729,0.010095000267,1.0,0.0,0.0,0.0,1.0,0.0,0.0,0.0,1.0,-5.54878091812,-1.03658533096,1.15853655338,1.0,0.0,0.0,0.0,1.0,0.0,0.0,0.0,1.0,-0.632069238281,-0.244208569336,-10.5057568848,1.0,0.0,0.0,0.0,1.0,0.0,0.0,0.0,1.0
1463562838631015875,684,1463562838570556914,,3.31642580032,-0.221265912056,145.492752075,0.010108999908,1.0,0.0,0.0,0.0,1.0,0.0,0.0,0.0,1.0,-5.97560977936,1.52439022064,2.37804889679,1.0,0.0,0.0,0.0,1.0,0.0,0.0,0.0,1.0,-0.392649072266,-0.675164868164,-10.0891657959,1.0,0.0,0.0,0.0,1.0,0.0,0.0,0.0,1.0
1463562838632230676,685,1463562838580679910,,3.23720693588,-0.276362806559,145.523651123,0.0101140001789,1.0,0.0,0.0,0.0,1.0,0.0,0.0,0.0,1.0,-6.28048801422,-1.34146344662,2.19512200356,1.0,0.0,0.0,0.0,1.0,0.0,0.0,0.0,1.0,-1.42215578613,-0.694318481445,-10.5344873047,1.0,0.0,0.0,0.0,1.0,0.0,0.0,0.0,1.0
1463562838632545575,686,1463562838591037907,,3.14194011688,-0.279081732035,145.559539795,0.0100750001147,1.0,0.0,0.0,0.0,1.0,0.0,0.0,0.0,1.0,-6.58536624908,0.0,2.62195134163,1.0,0.0,0.0,0.0,1.0,0.0,0.0,0.0,1.0,-0.675164868164,-0.416591088867,-10.1226846191,1.0,0.0,0.0,0.0,1.0,0.0,0.0,0.0,1.0
1463562838632841202,687,1463562838601218872,,3.07001209259,-0.290972054005,145.587982178,0.0101009998471,1.0,0.0,0.0,0.0,1.0,0.0,0.0,0.0,1.0,-6.89024400711,1.2195122242,1.8292683363,1.0,0.0,0.0,0.0,1.0,0.0,0.0,0.0,1.0,-1.09654436035,-0.895431420898,-10.3668931885,1.0,0.0,0.0,0.0,1.0,0.0,0.0,0.0,1.0
1463562838640657721,688,1463562838610965146,,2.98516464233,-0.337704956532,145.619720459,0.0101269995794,1.0,0.0,0.0,0.0,1.0,0.0,0.0,0.0,1.0,-8.23170757294,-1.8902438879,2.31707310677,1.0,0.0,0.0,0.0,1.0,0.0,0.0,0.0,1.0,-1.13485158691,-0.881066210937,-10.165780249,1.0,0.0,0.0,0.0,1.0,0.0,0.0,0.0,1.0
1463562838641955335,689,1463562838621082152,,2.88295960426,-0.341529250145,145.650772095,0.0101450001821,1.0,0.0,0.0,0.0,1.0,0.0,0.0,0.0,1.0,-9.20731735229,1.46341466904,2.07317066193,1.0,0.0,0.0,0.0,1.0,0.0,0.0,0.0,1.0,-0.967257470703,-0.723048901367,-10.0029745361,1.0,0.0,0.0,0.0,1.0,0.0,0.0,0.0,1.0
1463562838685006869,690,1463562838631417493,,2.7767701149,-0.368610709906,145.681900024,0.0101349996403,1.0,0.0,0.0,0.0,1.0,0.0,0.0,0.0,1.0,-9.32926845551,-0.670731723309,2.19512200356,1.0,0.0,0.0,0.0,1.0,0.0,0.0,0.0,1.0,-1.01992990723,-0.670376464844,-10.2376062988,1.0,0.0,0.0,0.0,1.0,0.0,0.0,0.0,1.0
1463562838685338903,691,1463562838641098610,,2.65910220146,-0.390642732382,145.71295166,0.0100170001388,1.0,0.0,0.0,0.0,1.0,0.0,0.0,0.0,1.0,-9.87804889679,-0.0609756112099,2.19512200356,1.0,0.0,0.0,0.0,1.0,0.0,0.0,0.0,1.0,-1.0534486574,-0.521935925381,-10.2711251221,1.0,0.0,0.0,0.0,1.0,0.0,0.0,0.0,1.0
1463562838685629478,692,1463562838651166709,,2.54544425011,-0.409595310688,145.733169556,0.0100830001757,1.0,0.0,0.0,0.0,1.0,0.0,0.0,0.0,1.0,-8.78048801422,0.12195122242,1.09756100178,1.0,0.0,0.0,0.0,1.0,0.0,0.0,0.0,1.0,-1.03429511719,-0.383072265625,-10.1945106689,1.0,0.0,0.0,0.0,1.0,0.0,0.0,0.0,1.0
1463562838685894897,693,1463562838661516946,,2.43821501732,-0.428203821182,145.749664307,0.0100959995762,1.0,0.0,0.0,0.0,1.0,0.0,0.0,0.0,1.0,-7.56097555161,0.12195122242,0.731707334518,1.0,0.0,0.0,0.0,1.0,0.0,0.0,0.0,1.0,-1.04866025408,-0.263362164351,-10.3381627686,1.0,0.0,0.0,0.0,1.0,0.0,0.0,0.0,1.0
1463562838729982428,694,1463562838671451242,,2.35222434998,-0.447896242142,145.76473999,0.0101269995794,1.0,0.0,0.0,0.0,1.0,0.0,0.0,0.0,1.0,-7.19512224197,0.0609756112099,0.609756112099,1.0,0.0,0.0,0.0,1.0,0.0,0.0,0.0,1.0,-1.04866025408,-0.560243188477,-10.2040874756,1.0,0.0,0.0,0.0,1.0,0.0,0.0,0.0,1.0
1463562838730515088,695,1463562838681406424,,2.26711249352,-0.462776005268,145.78314209,0.0100779999048,1.0,0.0,0.0,0.0,1.0,0.0,0.0,0.0,1.0,-8.41463470459,-0.304878056049,0.975609779358,1.0,0.0,0.0,0.0,1.0,0.0,0.0,0.0,1.0,-0.900219824219,-0.775721337891,-10.2184526855,1.0,0.0,0.0,0.0,1.0,0.0,0.0,0.0,1.0
1463562838730864622,696,1463562838691658067,,2.176456213,-0.472681820393,145.812744141,0.0100990002975,1.0,0.0,0.0,0.0,1.0,0.0,0.0,0.0,1.0,-10.7317075729,0.304878056049,2.07317066193,1.0,0.0,0.0,0.0,1.0,0.0,0.0,0.0,1.0,-0.909796630859,-1.07739082014,-10.1178962158,1.0,0.0,0.0,0.0,1.0,0.0,0.0,0.0,1.0
1463562838731466085,697,1463562838701778666,,2.07203292847,-0.477305054665,145.850326538,0.0101150004193,1.0,0.0,0.0,0.0,1.0,0.0,0.0,0.0,1.0,-12.8048782349,0.304878056049,2.86585378647,1.0,0.0,0.0,0.0,1.0,0.0,0.0,0.0,1.0,-0.818816967773,-1.20188930646,-10.1897222656,1.0,0.0,0.0,0.0,1.0,0.0,0.0,0.0,1.0
1463562838817169931,698,1463562838711845880,,1.92783427238,-0.47653067112,145.893463135,0.0100849997252,1.0,0.0,0.0,0.0,1.0,0.0,0.0,0.0,1.0,-16.5243911743,0.731707334518,3.41463422775,1.0,0.0,0.0,0.0,1.0,0.0,0.0,0.0,1.0,-0.799663354492,-1.13963999023,-10.2184526855,1.0,0.0,0.0,0.0,1.0,0.0,0.0,0.0,1.0
1463562838817510246,699,1463562838721931063,,1.74521863461,-0.46739256382,145.941101074,0.0101140001789,1.0,0.0,0.0,0.0,1.0,0.0,0.0,0.0,1.0,-19.6341457367,1.03658533096,3.84146332741,1.0,0.0,0.0,0.0,1.0,0.0,0.0,0.0,1.0,-0.703895288086,-0.995987890625,-10.2328178955,1.0,0.0,0.0,0.0,1.0,0.0,0.0,0.0,1.0
1463562838817825144,700,1463562838731933797,,1.53156077862,-0.465019524097,145.988479614,0.0100830001757,1.0,0.0,0.0,0.0,1.0,0.0,0.0,0.0,1.0,-20.6097564697,0.487804889679,3.84146332741,1.0,0.0,0.0,0.0,1.0,0.0,0.0,0.0,1.0,-0.737414111328,-0.579396801758,-10.4099888184,1.0,0.0,0.0,0.0,1.0,0.0,0.0,0.0,1.0
1463562838818133428,701,1463562838742035074,,1.30908250809,-0.449503362179,146.028701782,0.0101140001789,1.0,0.0,0.0,0.0,1.0,0.0,0.0,0.0,1.0,-19.817073822,1.09756100178,3.10975623131,1.0,0.0,0.0,0.0,1.0,0.0,0.0,0.0,1.0,-0.603338854892,-0.239420166016,-10.2040874756,1.0,0.0,0.0,0.0,1.0,0.0,0.0,0.0,1.0
1463562838818464628,702,1463562838752176663,,1.08755278587,-0.436705112457,146.051879883,0.0100990002975,1.0,0.0,0.0,0.0,1.0,0.0,0.0,0.0,1.0,-18.475610733,0.243902444839,1.46341466904,1.0,0.0,0.0,0.0,1.0,0.0,0.0,0.0,1.0,-0.502782348633,0.0335188255255,-10.1897222656,1.0,0.0,0.0,0.0,1.0,0.0,0.0,0.0,1.0
1463562838818821923,703,1463562838762264138,,0.88400799036,-0.417460203171,146.052703857,0.0100929997861,1.0,0.0,0.0,0.0,1.0,0.0,0.0,0.0,1.0,-16.0365848541,0.426829278469,-0.731707334518,1.0,0.0,0.0,0.0,1.0,0.0,0.0,0.0,1.0,-0.426167895508,0.196324536133,-10.180145459,1.0,0.0,0.0,0.0,1.0,0.0,0.0,0.0,1.0
1463562838818873381,704,1463562838772383696,,0.694983482361,-0.396596193314,146.046005249,0.0101070003584,1.0,0.0,0.0,0.0,1.0,0.0,0.0,0.0,1.0,-13.9024391174,0.426829278469,-1.46341466904,1.0,0.0,0.0,0.0,1.0,0.0,0.0,0.0,1.0,-0.402225878906,0.359130249023,-10.3333743652,1.0,0.0,0.0,0.0,1.0,0.0,0.0,0.0,1.0
1463562838819208176,705,1463562838782470441,,0.524703621864,-0.372456938028,146.040985107,0.0100990002975,1.0,0.0,0.0,0.0,1.0,0.0,0.0,0.0,1.0,-12.6219520569,0.426829278469,-1.2804877758,1.0,0.0,0.0,0.0,1.0,0.0,0.0,0.0,1.0,-0.339976635742,0.292092584273,-10.3908352051,1.0,0.0,0.0,0.0,1.0,0.0,0.0,0.0,1.0
1463562838844420299,706,1463562838792436509,,0.354742079973,-0.346257448196,146.043884277,0.0100870002061,1.0,0.0,0.0,0.0,1.0,0.0,0.0,0.0,1.0,-12.0731716156,0.18292683363,-0.487804889679,1.0,0.0,0.0,0.0,1.0,0.0,0.0,0.0,1.0,-0.248996972656,0.416591088867,-10.285490332,1.0,0.0,0.0,0.0,1.0,0.0,0.0,0.0,1.0
1463562838844733895,707,1463562838802677005,,0.191261038184,-0.323488235474,146.057220459,0.0101079996675,1.0,0.0,0.0,0.0,1.0,0.0,0.0,0.0,1.0,-11.0975618362,0.0609756112099,0.548780500889,1.0,0.0,0.0,0.0,1.0,0.0,0.0,0.0,1.0,-0.282515795898,0.497993945312,-10.2280294922,1.0,0.0,0.0,0.0,1.0,0.0,0.0,0.0,1.0
1463562838845020981,708,1463562838812773698,,0.0430216751993,-0.300767421722,146.079711914,0.0100990002975,1.0,0.0,0.0,0.0,1.0,0.0,0.0,0.0,1.0,-10.1219511032,0.304878056049,1.46341466904,1.0,0.0,0.0,0.0,1.0,0.0,0.0,0.0,1.0,-0.325611425781,0.435744702148,-10.3046439453,1.0,0.0,0.0,0.0,1.0,0.0,0.0,0.0,1.0
1463562838845527600,709,1463562838822971174,,-0.0910885408521,-0.297876089811,146.104660034,0.0101129999384,1.0,0.0,0.0,0.0,1.0,0.0,0.0,0.0,1.0,-7.98780536652,-0.12195122242,1.70731711388,1.0,0.0,0.0,0.0,1.0,0.0,0.0,0.0,1.0,-0.603338854892,0.593762048251,-10.3046439453,1.0,0.0,0.0,0.0,1.0,0.0,0.0,0.0,1.0
1463562838876509456,710,1463562838832912918,,-0.201924845576,-0.281156420708,146.11769104,0.0101180002093,1.0,0.0,0.0,0.0,1.0,0.0,0.0,0.0,1.0,-6.28048801422,0.365853667259,0.548780500889,1.0,0.0,0.0,0.0,1.0,0.0,0.0,0.0,1.0,-0.445321508789,0.512359155273,-10.3716815918,1.0,0.0,0.0,0.0,1.0,0.0,0.0,0.0,1.0
1463562838876587008,711,1463562838843146800,,-0.29454600811,-0.270796179771,146.128173828,0.0100819999352,1.0,0.0,0.0,0.0,1.0,0.0,0.0,0.0,1.0,-3.84146332741,0.18292683363,0.304878056049,1.0,0.0,0.0,0.0,1.0,0.0,0.0,0.0,1.0,-0.512359155273,0.641646044922,-10.1370498291,1.0,0.0,0.0,0.0,1.0,0.0,0.0,0.0,1.0
1463562838876653675,712,1463562838853343858,,-0.364832490683,-0.267505347729,146.120666504,0.010108999908,1.0,0.0,0.0,0.0,1.0,0.0,0.0,0.0,1.0,-1.95121955872,-0.18292683363,-1.46341466904,1.0,0.0,0.0,0.0,1.0,0.0,0.0,0.0,1.0,-0.574608398438,0.603338854892,-10.2328178955,1.0,0.0,0.0,0.0,1.0,0.0,0.0,0.0,1.0
1463562838876694665,713,1463562838863399405,,-0.411689192057,-0.262168705463,146.109451294,0.0100910002366,1.0,0.0,0.0,0.0,1.0,0.0,0.0,0.0,1.0,1.40243899822,-0.18292683363,-1.8292683363,1.0,0.0,0.0,0.0,1.0,0.0,0.0,0.0,1.0,-0.545877978516,0.818816967773,-10.4004120117,1.0,0.0,0.0,0.0,1.0,0.0,0.0,0.0,1.0
1463562838911148111,714,1463562838873466828,,-0.423025518656,-0.271744638681,146.089538574,0.010098000057,1.0,0.0,0.0,0.0,1.0,0.0,0.0,0.0,1.0,4.81707286835,-0.304878056049,-2.68292689323,1.0,0.0,0.0,0.0,1.0,0.0,0.0,0.0,1.0,-0.77093293457,0.785298144531,-10.0891657959,1.0,0.0,0.0,0.0,1.0,0.0,0.0,0.0,1.0
1463562838911205716,715,1463562838883543781,,-0.417212247849,-0.276297360659,146.066558838,0.0101110003889,1.0,0.0,0.0,0.0,1.0,0.0,0.0,0.0,1.0,7.31707334518,-0.609756112099,-2.98780488968,1.0,0.0,0.0,0.0,1.0,0.0,0.0,0.0,1.0,-0.636857641602,0.943315454102,-10.2232410889,1.0,0.0,0.0,0.0,1.0,0.0,0.0,0.0,1.0
1463562838911425040,716,1463562838893582037,,-0.373052209616,-0.279651939869,146.046554565,0.0101159997284,1.0,0.0,0.0,0.0,1.0,0.0,0.0,0.0,1.0,8.71951198578,-0.365853667259,-2.68292689323,1.0,0.0,0.0,0.0,1.0,0.0,0.0,0.0,1.0,-0.665588061523,0.512359155273,-10.3237975586,1.0,0.0,0.0,0.0,1.0,0.0,0.0,0.0,1.0
1463562838911555510,717,1463562838903636073,,-0.318154036999,-0.285452514887,146.051956177,0.0100910002366,1.0,0.0,0.0,0.0,1.0,0.0,0.0,0.0,1.0,8.65853691101,-0.914634168148,-0.18292683363,1.0,0.0,0.0,0.0,1.0,0.0,0.0,0.0,1.0,-0.60812722168,0.292092584273,-10.2423947021,1.0,0.0,0.0,0.0,1.0,0.0,0.0,0.0,1.0
1463562838955310122,718,1463562838913748079,,-0.268678694963,-0.275291711092,146.078979492,0.0100969998166,1.0,0.0,0.0,0.0,1.0,0.0,0.0,0.0,1.0,7.43902492523,0.0609756112099,1.95121955872,1.0,0.0,0.0,0.0,1.0,0.0,0.0,0.0,1.0,-0.502782348633,0.15801730957,-10.2807019287,1.0,0.0,0.0,0.0,1.0,0.0,0.0,0.0,1.0
1463562838955636687,719,1463562838924026441,,-0.226582735777,-0.286859422922,146.118423462,0.0100999996066,1.0,0.0,0.0,0.0,1.0,0.0,0.0,0.0,1.0,6.34146356583,-0.670731723309,3.17073178291,1.0,0.0,0.0,0.0,1.0,0.0,0.0,0.0,1.0,-0.756567724609,0.0814028564453,-10.2280294922,1.0,0.0,0.0,0.0,1.0,0.0,0.0,0.0,1.0
1463562838955933200,720,1463562838933910164,,-0.171810403466,-0.276828914881,146.149215698,0.0101039996371,1.0,0.0,0.0,0.0,1.0,0.0,0.0,0.0,1.0,7.68292665482,-0.0609756112099,2.31707310677,1.0,0.0,0.0,0.0,1.0,0.0,0.0,0.0,1.0,-0.483628735352,0.0909796630859,-10.299855542,1.0,0.0,0.0,0.0,1.0,0.0,0.0,0.0,1.0
1463562838956240650,721,1463562838944183369,,-0.109946742654,-0.300532251596,146.179550171,0.0101209999993,1.0,0.0,0.0,0.0,1.0,0.0,0.0,0.0,1.0,9.69512176514,-0.670731723309,2.25609779358,1.0,0.0,0.0,0.0,1.0,0.0,0.0,0.0,1.0,-0.991199487305,0.325611425781,-10.4147772217,1.0,0.0,0.0,0.0,1.0,0.0,0.0,0.0,1.0
1463562839028191784,722,1463562838954215999,,-0.00142197497189,-0.315104544163,146.190490723,0.0100800003856,1.0,0.0,0.0,0.0,1.0,0.0,0.0,0.0,1.0,11.5243911743,-1.09756100178,0.365853667259,1.0,0.0,0.0,0.0,1.0,0.0,0.0,0.0,1.0,-0.751779321289,-0.205901342773,-10.4578728516,1.0,0.0,0.0,0.0,1.0,0.0,0.0,0.0,1.0
1463562839028465536,723,1463562838964289150,,0.113947033882,-0.322082847357,146.18598938,0.0100969998166,1.0,0.0,0.0,0.0,1.0,0.0,0.0,0.0,1.0,11.7073173523,-1.2804877758,-1.15853655338,1.0,0.0,0.0,0.0,1.0,0.0,0.0,0.0,1.0,-0.569819995117,-0.3064578125,-10.2615483154,1.0,0.0,0.0,0.0,1.0,0.0,0.0,0.0,1.0
1463562839028732882,724,1463562838974356416,,0.227602541447,-0.327590823174,146.183990479,0.010095000267,1.0,0.0,0.0,0.0,1.0,0.0,0.0,0.0,1.0,10.9146347046,-1.2195122242,-0.914634168148,1.0,0.0,0.0,0.0,1.0,0.0,0.0,0.0,1.0,-0.555454785156,-0.440533105469,-10.2519715088,1.0,0.0,0.0,0.0,1.0,0.0,0.0,0.0,1.0
1463562839029020957,725,1463562838985747078,,0.345705151558,-0.324334919453,146.195602417,0.0113399997354,1.0,0.0,0.0,0.0,1.0,0.0,0.0,0.0,1.0,8.71951198578,-1.03658533096,0.304878056049,1.0,0.0,0.0,0.0,1.0,0.0,0.0,0.0,1.0,-0.435744702148,-0.703895288086,-10.1992990723,1.0,0.0,0.0,0.0,1.0,0.0,0.0,0.0,1.0
1463562839062263247,726,1463562838994632720,,0.417422324419,-0.321592390537,146.212905884,0.00885399989784,1.0,0.0,0.0,0.0,1.0,0.0,0.0,0.0,1.0,6.0365858078,-0.243902444839,1.2195122242,1.0,0.0,0.0,0.0,1.0,0.0,0.0,0.0,1.0,-0.574608398438,-0.794874951172,-10.2232410889,1.0,0.0,0.0,0.0,1.0,0.0,0.0,0.0,1.0
1463562839062552260,727,1463562839004592746,,0.471485674381,-0.317961186171,146.233291626,0.0101020000875,1.0,0.0,0.0,0.0,1.0,0.0,0.0,0.0,1.0,4.02439022064,-0.792682945728,1.2804877758,1.0,0.0,0.0,0.0,1.0,0.0,0.0,0.0,1.0,-0.469263525391,-0.679953271484,-10.3237975586,1.0,0.0,0.0,0.0,1.0,0.0,0.0,0.0,1.0
1463562839062828148,728,1463562839014838919,,0.514698565006,-0.311613321304,146.244506836,0.0101250000298,1.0,0.0,0.0,0.0,1.0,0.0,0.0,0.0,1.0,3.41463422775,-0.304878056049,0.365853667259,1.0,0.0,0.0,0.0,1.0,0.0,0.0,0.0,1.0,-0.502782348633,-0.593762048251,-10.180145459,1.0,0.0,0.0,0.0,1.0,0.0,0.0,0.0,1.0
1463562839063126119,729,1463562839025213271,,0.549689292908,-0.32113930583,146.246948242,0.0100849997252,1.0,0.0,0.0,0.0,1.0,0.0,0.0,0.0,1.0,1.95121955872,-1.03658533096,-0.487804889679,1.0,0.0,0.0,0.0,1.0,0.0,0.0,0.0,1.0,-0.665588061523,-0.732625708008,-10.3429511719,1.0,0.0,0.0,0.0,1.0,0.0,0.0,0.0,1.0
1463562839073549012,730,1463562839034968243,,0.563691437244,-0.315249323845,146.247634888,0.0100919995457,1.0,0.0,0.0,0.0,1.0,0.0,0.0,0.0,1.0,0.243902444839,-0.487804889679,-0.670731723309,1.0,0.0,0.0,0.0,1.0,0.0,0.0,0.0,1.0,-0.488417138672,-0.670376464844,-10.3621047852,1.0,0.0,0.0,0.0,1.0,0.0,0.0,0.0,1.0
1463562839073861775,731,1463562839045154468,,0.559681713581,-0.315875381231,146.258880615,0.0101079996675,1.0,0.0,0.0,0.0,1.0,0.0,0.0,0.0,1.0,-1.2195122242,-0.426829278469,0.365853667259,1.0,0.0,0.0,0.0,1.0,0.0,0.0,0.0,1.0,-0.60812722168,-0.60812722168,-10.2423947021,1.0,0.0,0.0,0.0,1.0,0.0,0.0,0.0,1.0
1463562839075972052,732,1463562839055243401,,0.543472886086,-0.309217780828,146.271957397,0.0101100001484,1.0,0.0,0.0,0.0,1.0,0.0,0.0,0.0,1.0,-3.10975623131,-0.0609756112099,0.548780500889,1.0,0.0,0.0,0.0,1.0,0.0,0.0,0.0,1.0,-0.541089611728,-0.727837304687,-10.1897222656,1.0,0.0,0.0,0.0,1.0,0.0,0.0,0.0,1.0
1463562839076801277,733,1463562839065318480,,0.504882216454,-0.298090130091,146.286300659,0.0100849997252,1.0,0.0,0.0,0.0,1.0,0.0,0.0,0.0,1.0,-5.12195110321,0.12195122242,0.670731723309,1.0,0.0,0.0,0.0,1.0,0.0,0.0,0.0,1.0,-0.497993945312,-0.694318481445,-10.3094323486,1.0,0.0,0.0,0.0,1.0,0.0,0.0,0.0,1.0
1463562839111999000,734,1463562839075382673,,0.446561604738,-0.295383572578,146.298141479,0.0101110003889,1.0,0.0,0.0,0.0,1.0,0.0,0.0,0.0,1.0,-6.34146356583,-0.548780500889,0.426829278469,1.0,0.0,0.0,0.0,1.0,0.0,0.0,0.0,1.0,-0.531512805087,-0.560243188477,-10.4099888184,1.0,0.0,0.0,0.0,1.0,0.0,0.0,0.0,1.0
1463562839112318273,735,1463562839085496033,,0.380080133677,-0.282136321068,146.302536011,0.0101009998471,1.0,0.0,0.0,0.0,1.0,0.0,0.0,0.0,1.0,-7.43902492523,0.0,-0.304878056049,1.0,0.0,0.0,0.0,1.0,0.0,0.0,0.0,1.0,-0.435744702148,-0.593762048251,-10.285490332,1.0,0.0,0.0,0.0,1.0,0.0,0.0,0.0,1.0
1463562839112625463,736,1463562839095831478,,0.298180997372,-0.277680039406,146.306274414,0.010098000057,1.0,0.0,0.0,0.0,1.0,0.0,0.0,0.0,1.0,-8.59756088257,-0.426829278469,-0.365853667259,1.0,0.0,0.0,0.0,1.0,0.0,0.0,0.0,1.0,-0.507570751953,-0.507570751953,-10.1514150391,1.0,0.0,0.0,0.0,1.0,0.0,0.0,0.0,1.0
1463562839113046508,737,1463562839105823587,,0.197631582618,-0.2688164711,146.309402466,0.010095000267,1.0,0.0,0.0,0.0,1.0,0.0,0.0,0.0,1.0,-9.51219558716,0.0609756112099,-0.426829278469,1.0,0.0,0.0,0.0,1.0,0.0,0.0,0.0,1.0,-0.517147558594,-0.325611425781,-10.180145459,1.0,0.0,0.0,0.0,1.0,0.0,0.0,0.0,1.0
1463562839157795919,738,1463562839115817675,,0.0835392549634,-0.257710874081,146.319335938,0.0101180002093,1.0,0.0,0.0,0.0,1.0,0.0,0.0,0.0,1.0,-10.3048782349,0.243902444839,0.243902444839,1.0,0.0,0.0,0.0,1.0,0.0,0.0,0.0,1.0,-0.512359155273,-0.215478149414,-10.2567599121,1.0,0.0,0.0,0.0,1.0,0.0,0.0,0.0,1.0
1463562839159865883,739,1463562839126003067,,-0.0454415753484,-0.248778969049,146.324905396,0.0101450001821,1.0,0.0,0.0,0.0,1.0,0.0,0.0,0.0,1.0,-11.4024391174,0.0609756112099,-0.18292683363,1.0,0.0,0.0,0.0,1.0,0.0,0.0,0.0,1.0,-0.521935925381,-0.134075302102,-10.3573163818,1.0,0.0,0.0,0.0,1.0,0.0,0.0,0.0,1.0
1463562839159948280,740,1463562839136136532,,-0.223646596074,-0.221600040793,146.32244873,0.010053999722,1.0,0.0,0.0,0.0,1.0,0.0,0.0,0.0,1.0,-12.5609760284,0.487804889679,-0.975609779358,1.0,0.0,0.0,0.0,1.0,0.0,0.0,0.0,1.0,-0.272938989258,0.612915625,-10.6685625977,1.0,0.0,0.0,0.0,1.0,0.0,0.0,0.0,1.0
1463562839159987343,741,1463562839146102078,,-0.385866224766,-0.219197183847,146.313201904,0.0101009998471,1.0,0.0,0.0,0.0,1.0,0.0,0.0,0.0,1.0,-9.02439117432,-0.731707334518,-1.64634156227,1.0,0.0,0.0,0.0,1.0,0.0,0.0,0.0,1.0,-0.497993945312,0.991199487305,-10.5488525146,1.0,0.0,0.0,0.0,1.0,0.0,0.0,0.0,1.0
1463562839190293204,742,1463562839156282574,,-0.494491368532,-0.231779560447,146.281600952,0.0100910002366,1.0,0.0,0.0,0.0,1.0,0.0,0.0,0.0,1.0,-5.12195110321,-1.2195122242,-3.84146332741,1.0,0.0,0.0,0.0,1.0,0.0,0.0,0.0,1.0,-0.679953271484,0.76135612793,-10.5488525146,1.0,0.0,0.0,0.0,1.0,0.0,0.0,0.0,1.0
1463562839190342163,743,1463562839166566977,,-0.625985503197,-0.249653488398,146.233276367,0.0101180002093,1.0,0.0,0.0,0.0,1.0,0.0,0.0,0.0,1.0,-4.08536577225,-1.2195122242,-5.48780488968,1.0,0.0,0.0,0.0,1.0,0.0,0.0,0.0,1.0,-0.780509741211,1.40300217285,-10.553640918,1.0,0.0,0.0,0.0,1.0,0.0,0.0,0.0,1.0
1463562839191330347,744,1463562839176466690,,-0.690536797047,-0.262640535831,146.190567017,0.0100819999352,1.0,0.0,0.0,0.0,1.0,0.0,0.0,0.0,1.0,-0.670731723309,-1.95121955872,-4.93902444839,1.0,0.0,0.0,0.0,1.0,0.0,0.0,0.0,1.0,-0.536301208408,0.799663354492,-10.2471831055,1.0,0.0,0.0,0.0,1.0,0.0,0.0,0.0,1.0
1463562839191451286,745,1463562839186639113,,-0.756086170673,-0.283085048199,146.167678833,0.0101209999993,1.0,0.0,0.0,0.0,1.0,0.0,0.0,0.0,1.0,-0.487804889679,-2.68292689323,-2.98780488968,1.0,0.0,0.0,0.0,1.0,0.0,0.0,0.0,1.0,-0.545877978516,0.861912597656,-10.3094323486,1.0,0.0,0.0,0.0,1.0,0.0,0.0,0.0,1.0
1463562839241884752,746,1463562839196703306,,-0.823035359383,-0.296826511621,146.156784058,0.0101129999384,1.0,0.0,0.0,0.0,1.0,0.0,0.0,0.0,1.0,1.58536589146,-3.47560977936,-1.8292683363,1.0,0.0,0.0,0.0,1.0,0.0,0.0,0.0,1.0,-0.292092584273,1.30244570312,-10.4818148682,1.0,0.0,0.0,0.0,1.0,0.0,0.0,0.0,1.0
1463562839241957877,747,1463562839206827031,,-0.854062080383,-0.331633776426,146.153610229,0.0100840004161,1.0,0.0,0.0,0.0,1.0,0.0,0.0,0.0,1.0,5.06097555161,-5.06097555161,-1.09756100178,1.0,0.0,0.0,0.0,1.0,0.0,0.0,0.0,1.0,-0.397437475586,1.32159931641,-10.6446205811,1.0,0.0,0.0,0.0,1.0,0.0,0.0,0.0,1.0
1463562839242126212,748,1463562839216776171,,-0.843064904213,-0.375031352043,146.143249512,0.0100910002366,1.0,0.0,0.0,0.0,1.0,0.0,0.0,0.0,1.0,8.29268264771,-6.89024400711,-1.8292683363,1.0,0.0,0.0,0.0,1.0,0.0,0.0,0.0,1.0,-0.215478149414,1.14442839355,-10.6063133545,1.0,0.0,0.0,0.0,1.0,0.0,0.0,0.0,1.0
1463562839242198765,749,1463562839230626018,,-0.813771009445,-0.448376625776,146.142608643,0.0133199999109,1.0,0.0,0.0,0.0,1.0,0.0,0.0,0.0,1.0,10.548781395,-10.3048782349,-0.914634168148,1.0,0.0,0.0,0.0,1.0,0.0,0.0,0.0,1.0,0.191536132812,1.37427175293,-10.7212350342,1.0,0.0,0.0,0.0,1.0,0.0,0.0,0.0,1.0
1463562839242313193,750,1463562839237110652,,-0.751232147217,-0.498496800661,146.148651123,0.00690399995074,1.0,0.0,0.0,0.0,1.0,0.0,0.0,0.0,1.0,13.2926826477,-12.5609760284,-0.0,1.0,0.0,0.0,0.0,1.0,0.0,0.0,0.0,1.0,0.272938989258,0.588973571866,-10.8936175537,1.0,0.0,0.0,0.0,1.0,0.0,0.0,0.0,1.0
1463562839251177793,751,1463562839247099480,,-0.624636411667,-0.627731621265,146.165527344,0.0100809996948,1.0,0.0,0.0,0.0,1.0,0.0,0.0,0.0,1.0,12.4390249252,-17.0121955872,0.792682945728,1.0,0.0,0.0,0.0,1.0,0.0,0.0,0.0,1.0,0.0478840332031,-0.263362164351,-10.9558667969,1.0,0.0,0.0,0.0,1.0,0.0,0.0,0.0,1.0
1463562839263968622,752,1463562839257119298,,-0.544570624828,-0.766252100468,146.177627563,0.0101020000875,1.0,0.0,0.0,0.0,1.0,0.0,0.0,0.0,1.0,11.0365858078,-17.8048782349,0.304878056049,1.0,0.0,0.0,0.0,1.0,0.0,0.0,0.0,1.0,0.00478840332031,0.316034619141,-10.2711251221,1.0,0.0,0.0,0.0,1.0,0.0,0.0,0.0,1.0
1463562839305414310,753,1463562839273542967,,-0.439707428217,-1.20166909695,146.201751709,0.0123070003465,1.0,0.0,0.0,0.0,1.0,0.0,0.0,0.0,1.0,9.63414573669,-27.8658542633,1.03658533096,1.0,0.0,0.0,0.0,1.0,0.0,0.0,0.0,1.0,-2.16435844691,-0.067037651051,-10.2519715088,1.0,0.0,0.0,0.0,1.0,0.0,0.0,0.0,1.0
1463562839305556498,754,1463562839277586801,,-0.350037068129,-1.38500380516,146.205413818,0.00802799966186,1.0,0.0,0.0,0.0,1.0,0.0,0.0,0.0,1.0,13.658536911,-24.2073173523,-0.426829278469,1.0,0.0,0.0,0.0,1.0,0.0,0.0,0.0,1.0,-0.598550451572,0.172382519531,-10.3860468018,1.0,0.0,0.0,0.0,1.0,0.0,0.0,0.0,1.0
1463562839305665197,755,1463562839288393812,,-0.209516435862,-1.73696982861,146.19833374,0.0108620002866,1.0,0.0,0.0,0.0,1.0,0.0,0.0,0.0,1.0,15.6707315445,-31.8292694092,-1.52439022064,1.0,0.0,0.0,0.0,1.0,0.0,0.0,0.0,1.0,-0.943315454102,0.196324536133,-9.8784760498,1.0,0.0,0.0,0.0,1.0,0.0,0.0,0.0,1.0
1463562839305698583,756,1463562839297565811,,-0.106144554913,-2.01063084602,146.210693359,0.00921799987555,1.0,0.0,0.0,0.0,1.0,0.0,0.0,0.0,1.0,12.9268293381,-29.5121974945,0.548780500889,1.0,0.0,0.0,0.0,1.0,0.0,0.0,0.0,1.0,-1.02950671387,-0.0191536132812,-10.8792523438,1.0,0.0,0.0,0.0,1.0,0.0,0.0,0.0,1.0
1463562839313418799,757,1463562839307721203,,0.0120380884036,-2.27074480057,146.251052856,0.0100809996948,1.0,0.0,0.0,0.0,1.0,0.0,0.0,0.0,1.0,14.4512205124,-18.2317085266,3.23170733452,1.0,0.0,0.0,0.0,1.0,0.0,0.0,0.0,1.0,-2.72938989258,0.148440512063,-11.6118780518,1.0,0.0,0.0,0.0,1.0,0.0,0.0,0.0,1.0
1463562839325433632,758,1463562839319187854,,0.108044423163,-2.5118162632,146.291488647,0.0102340001613,1.0,0.0,0.0,0.0,1.0,0.0,0.0,0.0,1.0,12.9268293381,-25.8536586761,3.17073178291,1.0,0.0,0.0,0.0,1.0,0.0,0.0,0.0,1.0,-0.61770402832,0.253785375977,-10.299855542,1.0,0.0,0.0,0.0,1.0,0.0,0.0,0.0,1.0
1463562839375755795,759,1463562839327936777,,0.235789105296,-2.68381905556,146.35118103,0.00999199971557,1.0,0.0,0.0,0.0,1.0,0.0,0.0,0.0,1.0,13.9634151459,-18.2926826477,5.30487823486,1.0,0.0,0.0,0.0,1.0,0.0,0.0,0.0,1.0,-0.92416184082,-0.225054956055,-10.8074262939,1.0,0.0,0.0,0.0,1.0,0.0,0.0,0.0,1.0
1463562839376623979,760,1463562839338098158,,0.365755796432,-2.99980378151,146.410858154,0.0100919995457,1.0,0.0,0.0,0.0,1.0,0.0,0.0,0.0,1.0,13.841463089,-32.0731697083,5.36585378647,1.0,0.0,0.0,0.0,1.0,0.0,0.0,0.0,1.0,-1.07260241682,-0.31124621582,-11.391611499,1.0,0.0,0.0,0.0,1.0,0.0,0.0,0.0,1.0
1463562839376693876,761,1463562839348085111,,0.462158501148,-3.29690814018,146.46043396,0.0100819999352,1.0,0.0,0.0,0.0,1.0,0.0,0.0,0.0,1.0,10.9146347046,-28.1707324982,4.39024400711,1.0,0.0,0.0,0.0,1.0,0.0,0.0,0.0,1.0,-1.49398183594,-0.244208569336,-10.9415015869,1.0,0.0,0.0,0.0,1.0,0.0,0.0,0.0,1.0
1463562839377519820,762,1463562839358387587,,0.567215383053,-3.62557220459,146.501495361,0.0101039996371,1.0,0.0,0.0,0.0,1.0,0.0,0.0,0.0,1.0,8.71951198578,-29.6951236725,3.7804877758,1.0,0.0,0.0,0.0,1.0,0.0,0.0,0.0,1.0,-1.95845695801,-0.900219824219,-11.511321582,1.0,0.0,0.0,0.0,1.0,0.0,0.0,0.0,1.0
1463562839377595393,763,1463562839368278602,,0.573636114597,-3.88447475433,146.54296875,0.0101039996371,1.0,0.0,0.0,0.0,1.0,0.0,0.0,0.0,1.0,3.59756112099,-32.7439041138,3.59756112099,1.0,0.0,0.0,0.0,1.0,0.0,0.0,0.0,1.0,0.0239420166016,0.0335188255255,-11.7842605713,1.0,0.0,0.0,0.0,1.0,0.0,0.0,0.0,1.0
1463562839405381078,764,1463562839378421493,,0.568952798843,-4.27606725693,146.560195923,0.0101070003584,1.0,0.0,0.0,0.0,1.0,0.0,0.0,0.0,1.0,0.914634168148,-41.8292694092,1.40243899822,1.0,0.0,0.0,0.0,1.0,0.0,0.0,0.0,1.0,-0.895431420898,-0.272938989258,-12.0236807373,1.0,0.0,0.0,0.0,1.0,0.0,0.0,0.0,1.0
1463562839405425870,765,1463562839389742571,,0.517128229141,-4.7617354393,146.572616577,0.0113120004535,1.0,0.0,0.0,0.0,1.0,0.0,0.0,0.0,1.0,-2.68292689323,-46.7073173523,0.792682945728,1.0,0.0,0.0,0.0,1.0,0.0,0.0,0.0,1.0,-0.809240161133,-0.148440512063,-11.6693388916,1.0,0.0,0.0,0.0,1.0,0.0,0.0,0.0,1.0
1463562839406250252,766,1463562839399323896,,0.471742510796,-5.20125818253,146.571166992,0.0088910004124,1.0,0.0,0.0,0.0,1.0,0.0,0.0,0.0,1.0,-2.98780488968,-50.4878082275,-0.487804889679,1.0,0.0,0.0,0.0,1.0,0.0,0.0,0.0,1.0,-1.4844050293,-0.0718260498047,-11.7124345215,1.0,0.0,0.0,0.0,1.0,0.0,0.0,0.0,1.0
1463562839416652468,767,1463562839408687927,,0.385968834162,-5.74236726761,146.557922363,0.0100889997557,1.0,0.0,0.0,0.0,1.0,0.0,0.0,0.0,1.0,-5.0,-56.7682952881,-1.76829278469,1.0,0.0,0.0,0.0,1.0,0.0,0.0,0.0,1.0,-1.13963999023,0.248996972656,-11.6789156982,1.0,0.0,0.0,0.0,1.0,0.0,0.0,0.0,1.0
1463562839423162623,768,1463562839418805558,,0.286854803562,-6.31914186478,146.544219971,0.0100990002975,1.0,0.0,0.0,0.0,1.0,0.0,0.0,0.0,1.0,-7.68292665482,-57.9878082275,-1.76829278469,1.0,0.0,0.0,0.0,1.0,0.0,0.0,0.0,1.0,-1.75734401855,-0.0143652099609,-11.8943938477,1.0,0.0,0.0,0.0,1.0,0.0,0.0,0.0,1.0
1463562839435662148,769,1463562839428930585,,0.16385807097,-6.94653987885,146.524185181,0.0101229995489,1.0,0.0,0.0,0.0,1.0,0.0,0.0,0.0,1.0,-10.4268293381,-61.890247345,-2.43902444839,1.0,0.0,0.0,0.0,1.0,0.0,0.0,0.0,1.0,-2.09732050817,-0.0622492431641,-11.9374894775,1.0,0.0,0.0,0.0,1.0,0.0,0.0,0.0,1.0
1463562839444721021,770,1463562839439084675,,0.00664710626006,-7.56859207153,146.514633179,0.0101049998775,1.0,0.0,0.0,0.0,1.0,0.0,0.0,0.0,1.0,-13.5365858078,-61.4634132385,-1.58536589146,1.0,0.0,0.0,0.0,1.0,0.0,0.0,0.0,1.0,-2.21224233398,0.00478840332031,-11.8225677979,1.0,0.0,0.0,0.0,1.0,0.0,0.0,0.0,1.0
1463562839455304436,771,1463562839449094284,,-0.165219053626,-8.19116401672,146.512771606,0.0100870002061,1.0,0.0,0.0,0.0,1.0,0.0,0.0,0.0,1.0,-16.0365848541,-61.524394989,-0.853658556938,1.0,0.0,0.0,0.0,1.0,0.0,0.0,0.0,1.0,-2.25533796387,-0.191536132812,-11.2623246094,1.0,0.0,0.0,0.0,1.0,0.0,0.0,0.0,1.0
1463562839503921534,772,1463562839459196029,,-0.377023845911,-8.81006145477,146.510559082,0.0100919995457,1.0,0.0,0.0,0.0,1.0,0.0,0.0,0.0,1.0,-16.8902435303,-62.4390258789,-1.52439022064,1.0,0.0,0.0,0.0,1.0,0.0,0.0,0.0,1.0,-2.12126281703,0.478840332031,-11.3054202393,1.0,0.0,0.0,0.0,1.0,0.0,0.0,0.0,1.0
1463562839504376590,773,1463562839469308608,,-0.546834170818,-9.43622207642,146.509460449,0.0101110003889,1.0,0.0,0.0,0.0,1.0,0.0,0.0,0.0,1.0,-17.6829280853,-62.2560997009,-0.853658556938,1.0,0.0,0.0,0.0,1.0,0.0,0.0,0.0,1.0,-2.33674067418,-0.493205541992,-10.9510783936,1.0,0.0,0.0,0.0,1.0,0.0,0.0,0.0,1.0
1463562839504423778,774,1463562839479329259,,-0.766914188862,-10.0473251343,146.503768921,0.0100929997861,1.0,0.0,0.0,0.0,1.0,0.0,0.0,0.0,1.0,-20.1829280853,-61.3414611816,-1.8902438879,1.0,0.0,0.0,0.0,1.0,0.0,0.0,0.0,1.0,-2.35589428746,0.0574608398438,-10.9031943604,1.0,0.0,0.0,0.0,1.0,0.0,0.0,0.0,1.0
1463562839504957063,775,1463562839489594339,,-0.987182855606,-10.6441087723,146.483932495,0.0101199997589,1.0,0.0,0.0,0.0,1.0,0.0,0.0,0.0,1.0,-18.5365848541,-59.4512176514,-3.7804877758,1.0,0.0,0.0,0.0,1.0,0.0,0.0,0.0,1.0,-2.61925661621,0.488417138672,-11.2527478027,1.0,0.0,0.0,0.0,1.0,0.0,0.0,0.0,1.0
1463562839505331233,776,1463562839499724574,,-1.18310201168,-11.2303991318,146.43951416,0.0101049998775,1.0,0.0,0.0,0.0,1.0,0.0,0.0,0.0,1.0,-15.7317075729,-58.2926826477,-6.52439069748,1.0,0.0,0.0,0.0,1.0,0.0,0.0,0.0,1.0,-2.86825358887,0.746990917969,-11.6214548584,1.0,0.0,0.0,0.0,1.0,0.0,0.0,0.0,1.0
1463562839547640156,777,1463562839510297573,,-1.34695541859,-11.7981023788,146.36857605,0.0100990002975,1.0,0.0,0.0,0.0,1.0,0.0,0.0,0.0,1.0,-10.4878053665,-55.9756126404,-9.75609779358,1.0,0.0,0.0,0.0,1.0,0.0,0.0,0.0,1.0,-3.11725056152,1.37906015625,-11.7028577148,1.0,0.0,0.0,0.0,1.0,0.0,0.0,0.0,1.0
1463562839547941200,778,1463562839520195776,,-1.4284632206,-12.3343877792,146.269165039,0.0100919995457,1.0,0.0,0.0,0.0,1.0,0.0,0.0,0.0,1.0,-2.98780488968,-52.134147644,-12.5609760284,1.0,0.0,0.0,0.0,1.0,0.0,0.0,0.0,1.0,-3.45243879395,1.44609780273,-11.8943938477,1.0,0.0,0.0,0.0,1.0,0.0,0.0,0.0,1.0
1463562839548236932,779,1463562839529947466,,-1.42866921425,-12.8387756348,146.15423584,0.0100929997861,1.0,0.0,0.0,0.0,1.0,0.0,0.0,0.0,1.0,1.95121955872,-47.8048782349,-13.4146347046,1.0,0.0,0.0,0.0,1.0,0.0,0.0,0.0,1.0,-3.73495458984,0.837970581055,-11.6023012451,1.0,0.0,0.0,0.0,1.0,0.0,0.0,0.0,1.0
1463562839548733706,780,1463562839540665414,,-1.38056981564,-13.2778701782,146.023406982,0.0101079996675,1.0,0.0,0.0,0.0,1.0,0.0,0.0,0.0,1.0,3.96341490746,-41.1585350037,-14.2073173523,1.0,0.0,0.0,0.0,1.0,0.0,0.0,0.0,1.0,-3.82593425293,0.320823022461,-11.4873795654,1.0,0.0,0.0,0.0,1.0,0.0,0.0,0.0,1.0
1463562839563352987,781,1463562839550232937,,-1.32726716995,-13.6597776413,145.882949829,0.0101039996371,1.0,0.0,0.0,0.0,1.0,0.0,0.0,0.0,1.0,3.59756112099,-35.7317085266,-14.8170728683,1.0,0.0,0.0,0.0,1.0,0.0,0.0,0.0,1.0,-3.99352836914,0.191536132812,-11.8465098145,1.0,0.0,0.0,0.0,1.0,0.0,0.0,0.0,1.0
1463562839564388620,782,1463562839560423798,,-1.25360357761,-13.9693431854,145.724868774,0.0101079996675,1.0,0.0,0.0,0.0,1.0,0.0,0.0,0.0,1.0,2.07317066193,-29.3292694092,-15.548781395,1.0,0.0,0.0,0.0,1.0,0.0,0.0,0.0,1.0,-3.84508786621,-0.502782348633,-11.6884925049,1.0,0.0,0.0,0.0,1.0,0.0,0.0,0.0,1.0
1463562839574178853,783,1463562839570497366,,-1.23288500309,-14.2068691254,145.555908203,0.0100990002975,1.0,0.0,0.0,0.0,1.0,0.0,0.0,0.0,1.0,-2.31707310677,-22.9878044128,-16.7073173523,1.0,0.0,0.0,0.0,1.0,0.0,0.0,0.0,1.0,-3.77805021973,-0.253785375977,-11.8177793945,1.0,0.0,0.0,0.0,1.0,0.0,0.0,0.0,1.0
1463562839583583457,784,1463562839580601924,,-1.23765802383,-14.3876609802,145.362197876,0.0101180002093,1.0,0.0,0.0,0.0,1.0,0.0,0.0,0.0,1.0,-3.41463422775,-18.841463089,-19.4512195587,1.0,0.0,0.0,0.0,1.0,0.0,0.0,0.0,1.0,-3.6056677002,0.220266552734,-12.2583125,1.0,0.0,0.0,0.0,1.0,0.0,0.0,0.0,1.0
1463562839593229366,785,1463562839590698200,,-1.23012876511,-14.5326719284,145.137481689,0.0100940000266,1.0,0.0,0.0,0.0,1.0,0.0,0.0,0.0,1.0,-3.35365867615,-14.2682924271,-22.2560977936,1.0,0.0,0.0,0.0,1.0,0.0,0.0,0.0,1.0,-3.87381828613,0.143652099609,-12.2200052734,1.0,0.0,0.0,0.0,1.0,0.0,0.0,0.0,1.0
1463562839603613249,786,1463562839600762758,,-1.2164503336,-14.6308612823,144.879257202,0.0100899999961,1.0,0.0,0.0,0.0,1.0,0.0,0.0,0.0,1.0,-5.60975599289,-9.02439117432,-24.817073822,1.0,0.0,0.0,0.0,1.0,0.0,0.0,0.0,1.0,-3.99352836914,-0.320823022461,-12.0859299805,1.0,0.0,0.0,0.0,1.0,0.0,0.0,0.0,1.0
1463562839618985869,787,1463562839610880701,,-1.22408211231,-14.6927595139,144.60710144,0.0101039996371,1.0,0.0,0.0,0.0,1.0,0.0,0.0,0.0,1.0,-8.90243911743,-4.63414621353,-25.7926845551,1.0,0.0,0.0,0.0,1.0,0.0,0.0,0.0,1.0,-4.29040966726,-0.526724328702,-12.3540805664,1.0,0.0,0.0,0.0,1.0,0.0,0.0,0.0,1.0
1463562839625065135,788,1463562839620923696,,-1.30359363556,-14.6831512451,144.317642212,0.0101509997621,1.0,0.0,0.0,0.0,1.0,0.0,0.0,0.0,1.0,-13.5975618362,1.03658533096,-27.9268302917,1.0,0.0,0.0,0.0,1.0,0.0,0.0,0.0,1.0,-4.05098920898,0.148440512063,-12.6701151855,1.0,0.0,0.0,0.0,1.0,0.0,0.0,0.0,1.0
1463562839635264693,789,1463562839630983410,,-1.38945221901,-14.6291284561,144.009262085,0.0100729996338,1.0,0.0,0.0,0.0,1.0,0.0,0.0,0.0,1.0,-14.9390249252,5.06097555161,-29.8170719147,1.0,0.0,0.0,0.0,1.0,0.0,0.0,0.0,1.0,-3.9360675293,0.134075302102,-12.6892687988,1.0,0.0,0.0,0.0,1.0,0.0,0.0,0.0,1.0
1463562839643493351,790,1463562839641334428,,-1.50390470028,-14.5203886032,143.690734863,0.0100619997829,1.0,0.0,0.0,0.0,1.0,0.0,0.0,0.0,1.0,-14.3902444839,10.0609760284,-31.6463413239,1.0,0.0,0.0,0.0,1.0,0.0,0.0,0.0,1.0,-3.82593425293,1.03908344744,-12.7898252686,1.0,0.0,0.0,0.0,1.0,0.0,0.0,0.0,1.0
1463562839664583307,791,1463562839651096848,,-1.56439840794,-14.3841285706,143.352340698,0.0100940000266,1.0,0.0,0.0,0.0,1.0,0.0,0.0,0.0,1.0,-11.4024391174,11.9512195587,-32.865852356,1.0,0.0,0.0,0.0,1.0,0.0,0.0,0.0,1.0,-3.6056677002,0.579396801758,-12.885593335,1.0,0.0,0.0,0.0,1.0,0.0,0.0,0.0,1.0
1463562839665103676,792,1463562839661241198,,-1.61897075176,-14.2292127609,143.004974365,0.010111999698,1.0,0.0,0.0,0.0,1.0,0.0,0.0,0.0,1.0,-14.0243902206,14.2682924271,-32.8048782349,1.0,0.0,0.0,0.0,1.0,0.0,0.0,0.0,1.0,-3.67749375,-0.162805712891,-12.8760165283,1.0,0.0,0.0,0.0,1.0,0.0,0.0,0.0,1.0
1463562839676001574,793,1463562839672959414,,-1.74933993816,-14.0122175217,142.602828979,0.0117779998109,1.0,0.0,0.0,0.0,1.0,0.0,0.0,0.0,1.0,-17.4390239716,17.7439022064,-33.0487823486,1.0,0.0,0.0,0.0,1.0,0.0,0.0,0.0,1.0,-3.73016618652,0.363918652344,-12.9143237549,1.0,0.0,0.0,0.0,1.0,0.0,0.0,0.0,1.0
1463562839683589289,794,1463562839681462814,,-1.84914600849,-13.847366333,142.3152771,0.00841300003231,1.0,0.0,0.0,0.0,1.0,0.0,0.0,0.0,1.0,-16.8292694092,19.1463432312,-33.3536605835,1.0,0.0,0.0,0.0,1.0,0.0,0.0,0.0,1.0,-3.67270534668,0.703895288086,-12.7563064453,1.0,0.0,0.0,0.0,1.0,0.0,0.0,0.0,1.0
1463562839699680456,795,1463562839691505549,,-1.95926475525,-13.6254701614,141.964279175,0.0101079996675,1.0,0.0,0.0,0.0,1.0,0.0,0.0,0.0,1.0,-15.4268302917,21.4634151459,-33.9024391174,1.0,0.0,0.0,0.0,1.0,0.0,0.0,0.0,1.0,-3.57693728027,0.828393774414,-12.6605383789,1.0,0.0,0.0,0.0,1.0,0.0,0.0,0.0,1.0
1463562839705891338,796,1463562839701627138,,-2.05398225784,-13.3904180527,141.610031128,0.0101049998775,1.0,0.0,0.0,0.0,1.0,0.0,0.0,0.0,1.0,-13.5975618362,23.1707324982,-34.2073173523,1.0,0.0,0.0,0.0,1.0,0.0,0.0,0.0,1.0,-3.55299526367,0.900219824219,-12.4833674561,1.0,0.0,0.0,0.0,1.0,0.0,0.0,0.0,1.0
1463562839715107087,797,1463562839711774821,,-2.1268196106,-13.1287117004,141.250259399,0.0101140001789,1.0,0.0,0.0,0.0,1.0,0.0,0.0,0.0,1.0,-11.4634151459,24.4512195587,-34.634147644,1.0,0.0,0.0,0.0,1.0,0.0,0.0,0.0,1.0,-3.14598098145,0.895431420898,-12.4067530029,1.0,0.0,0.0,0.0,1.0,0.0,0.0,0.0,1.0
1463562839725911598,798,1463562839722527457,,-2.18990278244,-12.8477277756,140.884078979,0.0104240002111,1.0,0.0,0.0,0.0,1.0,0.0,0.0,0.0,1.0,-9.75609779358,24.5121955872,-34.2682952881,1.0,0.0,0.0,0.0,1.0,0.0,0.0,0.0,1.0,-2.8299463623,0.972045874023,-12.3492921631,1.0,0.0,0.0,0.0,1.0,0.0,0.0,0.0,1.0
1463562839734578072,799,1463562839731976541,,-2.22770619392,-12.5987567902,140.535507202,0.00977000035346,1.0,0.0,0.0,0.0,1.0,0.0,0.0,0.0,1.0,-7.07317113876,23.7195129395,-34.9390258789,1.0,0.0,0.0,0.0,1.0,0.0,0.0,0.0,1.0,-2.88261879883,1.08217922346,-12.2295820801,1.0,0.0,0.0,0.0,1.0,0.0,0.0,0.0,1.0
1463562839747222597,800,1463562839742386831,,-2.24119281769,-12.3551721573,140.174530029,0.0100969998166,1.0,0.0,0.0,0.0,1.0,0.0,0.0,0.0,1.0,-3.71951246262,23.475610733,-35.1829299927,1.0,0.0,0.0,0.0,1.0,0.0,0.0,0.0,1.0,-3.03105930176,1.23061965332,-12.0428343506,1.0,0.0,0.0,0.0,1.0,0.0,0.0,0.0,1.0
1463562839761668804,801,1463562839752149146,,-2.21376919746,-12.1247692108,139.817642212,0.0100859999657,1.0,0.0,0.0,0.0,1.0,0.0,0.0,0.0,1.0,-0.853658556938,24.0243911743,-34.5121955872,1.0,0.0,0.0,0.0,1.0,0.0,0.0,0.0,1.0,-3.40934316406,0.9193734375,-12.0859299805,1.0,0.0,0.0,0.0,1.0,0.0,0.0,0.0,1.0
1463562839776982725,802,1463562839762184016,,-2.17029047012,-11.8834877014,139.475891113,0.0101129999384,1.0,0.0,0.0,0.0,1.0,0.0,0.0,0.0,1.0,-0.548780500889,25.6097564697,-32.5609779358,1.0,0.0,0.0,0.0,1.0,0.0,0.0,0.0,1.0,-3.48595761719,0.512359155273,-12.018892334,1.0,0.0,0.0,0.0,1.0,0.0,0.0,0.0,1.0
1463562839777441948,803,1463562839772346283,,-2.16097068787,-11.6224527359,139.160919189,0.010111999698,1.0,0.0,0.0,0.0,1.0,0.0,0.0,0.0,1.0,-2.13414645195,27.7439041138,-30.1829280853,1.0,0.0,0.0,0.0,1.0,0.0,0.0,0.0,1.0,-3.57214887695,0.77093293457,-12.27267771,1.0,0.0,0.0,0.0,1.0,0.0,0.0,0.0,1.0
1463562839814733645,804,1463562839782462456,,-2.15687394142,-11.3284492493,138.870803833,0.0100870002061,1.0,0.0,0.0,0.0,1.0,0.0,0.0,0.0,1.0,1.09756100178,29.3292694092,-28.475610733,1.0,0.0,0.0,0.0,1.0,0.0,0.0,0.0,1.0,-3.10288535156,1.47482822266,-12.1769096436,1.0,0.0,0.0,0.0,1.0,0.0,0.0,0.0,1.0
1463562839815042553,805,1463562839792523628,,-2.10749483109,-11.0305547714,138.587753296,0.0101079996675,1.0,0.0,0.0,0.0,1.0,0.0,0.0,0.0,1.0,3.84146332741,28.3536586761,-27.3780498505,1.0,0.0,0.0,0.0,1.0,0.0,0.0,0.0,1.0,-2.81558115234,1.02950671387,-12.4833674561,1.0,0.0,0.0,0.0,1.0,0.0,0.0,0.0,1.0
1463562839815297451,806,1463562839802618811,,-2.04930210114,-10.7343940735,138.316833496,0.0100990002975,1.0,0.0,0.0,0.0,1.0,0.0,0.0,0.0,1.0,5.42682933807,26.7073173523,-26.4024391174,1.0,0.0,0.0,0.0,1.0,0.0,0.0,0.0,1.0,-2.43250888672,1.10133276367,-12.5695587158,1.0,0.0,0.0,0.0,1.0,0.0,0.0,0.0,1.0
1463562839815711465,807,1463562839812711285,,-1.96423602104,-10.4618034363,138.042144775,0.0101070003584,1.0,0.0,0.0,0.0,1.0,0.0,0.0,0.0,1.0,9.02439117432,25.182926178,-27.0121955872,1.0,0.0,0.0,0.0,1.0,0.0,0.0,0.0,1.0,-2.58094938965,1.30244570312,-12.6653267822,1.0,0.0,0.0,0.0,1.0,0.0,0.0,0.0,1.0
1463562839826493788,808,1463562839822870114,,-1.83153092861,-10.2091197968,137.763183594,0.0100999996066,1.0,0.0,0.0,0.0,1.0,0.0,0.0,0.0,1.0,12.1341466904,23.2317085266,-27.2560977936,1.0,0.0,0.0,0.0,1.0,0.0,0.0,0.0,1.0,-2.55700737305,0.905008227539,-12.8233440918,1.0,0.0,0.0,0.0,1.0,0.0,0.0,0.0,1.0
1463562839838160077,809,1463562839832986860,,-1.69218015671,-9.97974205017,137.487350464,0.0100959995762,1.0,0.0,0.0,0.0,1.0,0.0,0.0,0.0,1.0,13.2926826477,21.9512195587,-27.1341457367,1.0,0.0,0.0,0.0,1.0,0.0,0.0,0.0,1.0,-2.75333190918,0.952892260742,-12.8137672852,1.0,0.0,0.0,0.0,1.0,0.0,0.0,0.0,1.0
1463562839860761712,810,1463562839843116730,,-1.53467309475,-9.76282596588,137.223312378,0.0100910002366,1.0,0.0,0.0,0.0,1.0,0.0,0.0,0.0,1.0,15.1219511032,21.4634151459,-26.0365848541,1.0,0.0,0.0,0.0,1.0,0.0,0.0,0.0,1.0,-2.90177241211,0.857124194336,-12.8329208984,1.0,0.0,0.0,0.0,1.0,0.0,0.0,0.0,1.0
1463562839861242757,811,1463562839853171340,,-1.37388753891,-9.54949951172,136.970504761,0.0101070003584,1.0,0.0,0.0,0.0,1.0,0.0,0.0,0.0,1.0,16.341463089,20.3048782349,-25.1219520569,1.0,0.0,0.0,0.0,1.0,0.0,0.0,0.0,1.0,-2.71502468262,0.976834277344,-12.9478425781,1.0,0.0,0.0,0.0,1.0,0.0,0.0,0.0,1.0
1463562839877353039,812,1463562839863366003,,-1.20122778416,-9.34620189667,136.735702515,0.010098000057,1.0,0.0,0.0,0.0,1.0,0.0,0.0,0.0,1.0,18.1707305908,19.0853652954,-23.5365848541,1.0,0.0,0.0,0.0,1.0,0.0,0.0,0.0,1.0,-2.61925661621,0.995987890625,-12.885593335,1.0,0.0,0.0,0.0,1.0,0.0,0.0,0.0,1.0
1463562839877791584,813,1463562839873412696,,-1.01913893223,-9.16546344757,136.516204834,0.0101100001484,1.0,0.0,0.0,0.0,1.0,0.0,0.0,0.0,1.0,19.817073822,17.3780498505,-22.1951236725,1.0,0.0,0.0,0.0,1.0,0.0,0.0,0.0,1.0,-2.7102362793,1.04866025408,-12.8137672852,1.0,0.0,0.0,0.0,1.0,0.0,0.0,0.0,1.0
1463562839886030659,814,1463562839883597567,,-0.824101805687,-8.9969997406,136.311386108,0.0100910002366,1.0,0.0,0.0,0.0,1.0,0.0,0.0,0.0,1.0,21.2195129395,16.341463089,-20.8536586761,1.0,0.0,0.0,0.0,1.0,0.0,0.0,0.0,1.0,-2.71981308594,0.957680664062,-12.7946136719,1.0,0.0,0.0,0.0,1.0,0.0,0.0,0.0,1.0
1463562839899271647,815,1463562839893567176,,-0.615471124649,-8.84334564209,136.121673584,0.0101070003584,1.0,0.0,0.0,0.0,1.0,0.0,0.0,0.0,1.0,21.0365848541,15.3658533096,-19.1463432312,1.0,0.0,0.0,0.0,1.0,0.0,0.0,0.0,1.0,-2.79163913574,0.488417138672,-12.6557499756,1.0,0.0,0.0,0.0,1.0,0.0,0.0,0.0,1.0
1463562839918874821,816,1463562839906319150,,-0.423549592495,-8.69796085358,135.949630737,0.0101100001484,1.0,0.0,0.0,0.0,1.0,0.0,0.0,0.0,1.0,20.1219520569,15.1219511032,-17.5609760284,1.0,0.0,0.0,0.0,1.0,0.0,0.0,0.0,1.0,-2.87783039551,0.536301208408,-12.512097876,1.0,0.0,0.0,0.0,1.0,0.0,0.0,0.0,1.0
1463562839919253105,817,1463562839913797438,,-0.257351517677,-8.55746173859,135.798370361,0.0100959995762,1.0,0.0,0.0,0.0,1.0,0.0,0.0,0.0,1.0,19.4512195587,14.8780498505,-15.8536596298,1.0,0.0,0.0,0.0,1.0,0.0,0.0,0.0,1.0,-2.90177241211,0.837970581055,-12.4690022461,1.0,0.0,0.0,0.0,1.0,0.0,0.0,0.0,1.0
1463562839928666668,818,1463562839924505386,,-0.0855596140027,-8.42997264862,135.668136597,0.0100990002975,1.0,0.0,0.0,0.0,1.0,0.0,0.0,0.0,1.0,21.0975627899,14.8780498505,-13.9634151459,1.0,0.0,0.0,0.0,1.0,0.0,0.0,0.0,1.0,-3.03584770508,0.933738647461,-11.884817041,1.0,0.0,0.0,0.0,1.0,0.0,0.0,0.0,1.0
1463562839937754031,819,1463562839934877446,,0.0907156616449,-8.29376602173,135.558731079,0.010098000057,1.0,0.0,0.0,0.0,1.0,0.0,0.0,0.0,1.0,22.0731716156,16.5243911743,-12.0121955872,1.0,0.0,0.0,0.0,1.0,0.0,0.0,0.0,1.0,-3.10767375488,0.9193734375,-11.5687824219,1.0,0.0,0.0,0.0,1.0,0.0,0.0,0.0,1.0
1463562839962711777,820,1463562839956096309,,0.370677471161,-8.09178924561,135.469833374,0.0130759999156,1.0,0.0,0.0,0.0,1.0,0.0,0.0,0.0,1.0,28.6585388184,19.0853652954,-8.41463470459,1.0,0.0,0.0,0.0,1.0,0.0,0.0,0.0,1.0,-2.94965644531,1.21146604004,-10.5967365479,1.0,0.0,0.0,0.0,1.0,0.0,0.0,0.0,1.0
1463562839964510229,821,1463562839961375152,,0.623605191708,-7.92589378357,135.414871216,0.0110099995509,1.0,0.0,0.0,0.0,1.0,0.0,0.0,0.0,1.0,30.3658542633,19.8780498505,-6.70731735229,1.0,0.0,0.0,0.0,1.0,0.0,0.0,0.0,1.0,-3.03584770508,1.09654436035,-10.2088758789,1.0,0.0,0.0,0.0,1.0,0.0,0.0,0.0,1.0
1463562839975160937,822,1463562839965050129,,0.774583160877,-7.82810497284,135.386627197,0.00633799983189,1.0,0.0,0.0,0.0,1.0,0.0,0.0,0.0,1.0,30.975610733,20.7317085266,-6.21951246262,1.0,0.0,0.0,0.0,1.0,0.0,0.0,0.0,1.0,-3.03105930176,0.967257470703,-9.97424411621,1.0,0.0,0.0,0.0,1.0,0.0,0.0,0.0,1.0
1463562839984958722,823,1463562839974663537,,1.03530704975,-7.65316009521,135.366790771,0.00999899953604,1.0,0.0,0.0,0.0,1.0,0.0,0.0,0.0,1.0,32.865852356,22.5,-3.7804877758,1.0,0.0,0.0,0.0,1.0,0.0,0.0,0.0,1.0,-2.82036955566,0.77093293457,-9.53849999858,1.0,0.0,0.0,0.0,1.0,0.0,0.0,0.0,1.0
1463562839992464822,824,1463562839984739657,,1.3046387434,-7.45804786682,135.375686646,0.0100880004466,1.0,0.0,0.0,0.0,1.0,0.0,0.0,0.0,1.0,33.4756126404,23.9024391174,-1.03658533096,1.0,0.0,0.0,0.0,1.0,0.0,0.0,0.0,1.0,-2.62883342285,0.636857641602,-9.2942902602,1.0,0.0,0.0,0.0,1.0,0.0,0.0,0.0,1.0
1463562839996850273,825,1463562839994738902,,1.58732867241,-7.24370241165,135.411071777,0.0101290000603,1.0,0.0,0.0,0.0,1.0,0.0,0.0,0.0,1.0,32.1951217651,25.0,1.76829278469,1.0,0.0,0.0,0.0,1.0,0.0,0.0,0.0,1.0,-2.48518132324,0.105344873047,-9.42357714985,1.0,0.0,0.0,0.0,1.0,0.0,0.0,0.0,1.0
1463562840061117753,826,1463562840005282318,,1.82954013348,-7.01454019547,135.476882935,0.0100959995762,1.0,0.0,0.0,0.0,1.0,0.0,0.0,0.0,1.0,28.8414649963,26.0365848541,4.57317066193,1.0,0.0,0.0,0.0,1.0,0.0,0.0,0.0,1.0,-2.29364519043,0.0909796630859,-9.23683000488,1.0,0.0,0.0,0.0,1.0,0.0,0.0,0.0,1.0
1463562840061166451,827,1463562840015897609,,2.03735470772,-6.77423286438,135.557861328,0.0100750001147,1.0,0.0,0.0,0.0,1.0,0.0,0.0,0.0,1.0,26.4024391174,26.5243911743,5.85365867615,1.0,0.0,0.0,0.0,1.0,0.0,0.0,0.0,1.0,-2.14520483363,0.181959326172,-9.31823227681,1.0,0.0,0.0,0.0,1.0,0.0,0.0,0.0,1.0
1463562840061206087,828,1463562840025265755,,2.23112368584,-6.52865839005,135.652328491,0.0101169999689,1.0,0.0,0.0,0.0,1.0,0.0,0.0,0.0,1.0,23.7195129395,26.9512195587,7.19512224197,1.0,0.0,0.0,0.0,1.0,0.0,0.0,0.0,1.0,-2.04943662109,-0.076614453125,-9.13148513184,1.0,0.0,0.0,0.0,1.0,0.0,0.0,0.0,1.0
1463562840061664372,829,1463562840035297916,,2.39608764648,-6.29043006897,135.750305176,0.0100940000266,1.0,0.0,0.0,0.0,1.0,0.0,0.0,0.0,1.0,19.6341457367,26.9512195587,7.62195110321,1.0,0.0,0.0,0.0,1.0,0.0,0.0,0.0,1.0,-2.05901342773,-0.31124621582,-8.8872765625,1.0,0.0,0.0,0.0,1.0,0.0,0.0,0.0,1.0
1463562840061912759,830,1463562840048365935,,2.53430724144,-5.99908590317,135.88621521,0.0131919998676,1.0,0.0,0.0,0.0,1.0,0.0,0.0,0.0,1.0,12.5,28.1097564697,8.23170757294,1.0,0.0,0.0,0.0,1.0,0.0,0.0,0.0,1.0,-2.30801040039,-0.512359155273,-8.32224438618,1.0,0.0,0.0,0.0,1.0,0.0,0.0,0.0,1.0
1463562840088790364,831,1463562840065676695,,2.54411482811,-5.83497047424,135.96043396,0.00703100021929,1.0,0.0,0.0,0.0,1.0,0.0,0.0,0.0,1.0,7.19512224197,29.0243911743,7.98780536652,1.0,0.0,0.0,0.0,1.0,0.0,0.0,0.0,1.0,-2.16435844691,0.0478840332031,-8.17859287109,1.0,0.0,0.0,0.0,1.0,0.0,0.0,0.0,1.0
1463562840088848854,832,1463562840071461167,,2.51163482666,-5.50195837021,136.080093384,0.0129530001432,1.0,0.0,0.0,0.0,1.0,0.0,0.0,0.0,1.0,5.60975599289,29.9390258789,6.40243911743,1.0,0.0,0.0,0.0,1.0,0.0,0.0,0.0,1.0,-1.92493813477,0.416591088867,-8.17859287109,1.0,0.0,0.0,0.0,1.0,0.0,0.0,0.0,1.0
1463562840088892240,833,1463562840075543907,,2.4945704937,-5.31733560562,136.138381958,0.00721399998292,1.0,0.0,0.0,0.0,1.0,0.0,0.0,0.0,1.0,5.12195110321,29.5731697083,5.36585378647,1.0,0.0,0.0,0.0,1.0,0.0,0.0,0.0,1.0,-1.82917006836,0.344765039063,-8.11155522461,1.0,0.0,0.0,0.0,1.0,0.0,0.0,0.0,1.0
1463562840088933907,834,1463562840085938571,,2.44641923904,-5.04682826996,136.199493408,0.010108999908,1.0,0.0,0.0,0.0,1.0,0.0,0.0,0.0,1.0,4.51219558716,28.7804889679,3.23170733452,1.0,0.0,0.0,0.0,1.0,0.0,0.0,0.0,1.0,-1.5322890625,0.641646044922,-8.16422766113,1.0,0.0,0.0,0.0,1.0,0.0,0.0,0.0,1.0
1463562840097543610,835,1463562840095849326,,2.38882875443,-4.79043197632,136.238479614,0.0101150004193,1.0,0.0,0.0,0.0,1.0,0.0,0.0,0.0,1.0,4.63414621353,28.1707324982,1.03658533096,1.0,0.0,0.0,0.0,1.0,0.0,0.0,0.0,1.0,-1.69988317871,0.876277807617,-8.52335849468,1.0,0.0,0.0,0.0,1.0,0.0,0.0,0.0,1.0
1463562840111468562,836,1463562840105873883,,2.32417535782,-4.55037164688,136.258956909,0.0100999996066,1.0,0.0,0.0,0.0,1.0,0.0,0.0,0.0,1.0,4.45121955872,27.3780498505,-0.731707334518,1.0,0.0,0.0,0.0,1.0,0.0,0.0,0.0,1.0,-1.82438166504,1.01035310059,-8.64785698101,1.0,0.0,0.0,0.0,1.0,0.0,0.0,0.0,1.0
1463562840197572514,837,1463562840115863440,,2.2811756134,-4.31058597565,136.266082764,0.010106000118,1.0,0.0,0.0,0.0,1.0,0.0,0.0,0.0,1.0,3.84146332741,27.4390258789,-1.76829278469,1.0,0.0,0.0,0.0,1.0,0.0,0.0,0.0,1.0,-1.76213242187,0.584185168546,-8.43237766255,1.0,0.0,0.0,0.0,1.0,0.0,0.0,0.0,1.0
1463562840197967049,838,1463562840126248729,,2.22427248955,-4.07469463348,136.267303467,0.0100859999657,1.0,0.0,0.0,0.0,1.0,0.0,0.0,0.0,1.0,0.975609779358,27.682926178,-2.19512200356,1.0,0.0,0.0,0.0,1.0,0.0,0.0,0.0,1.0,-1.85311208496,0.378283862305,-8.59518454448,1.0,0.0,0.0,0.0,1.0,0.0,0.0,0.0,1.0
1463562840198340645,839,1463562840136138911,,2.13391971588,-3.83418226242,136.257537842,0.0101209999993,1.0,0.0,0.0,0.0,1.0,0.0,0.0,0.0,1.0,-0.853658556938,26.8292694092,-3.29268312454,1.0,0.0,0.0,0.0,1.0,0.0,0.0,0.0,1.0,-1.6041151123,0.612915625,-8.46589648579,1.0,0.0,0.0,0.0,1.0,0.0,0.0,0.0,1.0
1463562840198697002,840,1463562840146465501,,2.05559515953,-3.58427429199,136.226852417,0.010108999908,1.0,0.0,0.0,0.0,1.0,0.0,0.0,0.0,1.0,-3.41463422775,27.5609760284,-5.06097555161,1.0,0.0,0.0,0.0,1.0,0.0,0.0,0.0,1.0,-1.51313544922,0.0718260498047,-8.31266757954,1.0,0.0,0.0,0.0,1.0,0.0,0.0,0.0,1.0
1463562840199023099,841,1463562840156326307,,1.93478453159,-3.34522175789,136.180267334,0.0100859999657,1.0,0.0,0.0,0.0,1.0,0.0,0.0,0.0,1.0,-7.01219511032,26.6463432312,-6.58536624908,1.0,0.0,0.0,0.0,1.0,0.0,0.0,0.0,1.0,-1.5083470459,0.191536132812,-8.36534001606,1.0,0.0,0.0,0.0,1.0,0.0,0.0,0.0,1.0
1463562840201819058,842,1463562840166846025,,1.79438412189,-3.09689879417,136.107833862,0.0101079996675,1.0,0.0,0.0,0.0,1.0,0.0,0.0,0.0,1.0,-10.8536586761,25.9146347046,-8.90243911743,1.0,0.0,0.0,0.0,1.0,0.0,0.0,0.0,1.0,-1.22104284668,-0.0622492431641,-8.24084211426,1.0,0.0,0.0,0.0,1.0,0.0,0.0,0.0,1.0
1463562840202226769,843,1463562840176606622,,1.61994218826,-2.8627102375,136.024673462,0.0100969998166,1.0,0.0,0.0,0.0,1.0,0.0,0.0,0.0,1.0,-15.975610733,24.817073822,-9.75609779358,1.0,0.0,0.0,0.0,1.0,0.0,0.0,0.0,1.0,-1.20188930646,-0.287304199219,-8.06845959473,1.0,0.0,0.0,0.0,1.0,0.0,0.0,0.0,1.0
1463562840203015474,844,1463562840186582220,,1.40963792801,-2.63043045998,135.919921875,0.0100940000266,1.0,0.0,0.0,0.0,1.0,0.0,0.0,0.0,1.0,-22.682926178,22.9268302917,-11.5853662491,1.0,0.0,0.0,0.0,1.0,0.0,0.0,0.0,1.0,-0.909796630859,-0.694318481445,-7.93438430176,1.0,0.0,0.0,0.0,1.0,0.0,0.0,0.0,1.0
1463562840322962763,845,1463562840196819331,,1.11028552055,-2.42125821114,135.797561646,0.0101180002093,1.0,0.0,0.0,0.0,1.0,0.0,0.0,0.0,1.0,-30.6097583771,20.2439022064,-13.1707324982,1.0,0.0,0.0,0.0,1.0,0.0,0.0,0.0,1.0,-0.847547387695,-0.555454785156,-8.14507404785,1.0,0.0,0.0,0.0,1.0,0.0,0.0,0.0,1.0
1463562840323266255,846,1463562840217382669,,0.666294693947,-2.26877593994,135.614593506,0.0100840004161,1.0,0.0,0.0,0.0,1.0,0.0,0.0,0.0,1.0,-38.5365829468,15.975610733,-19.2682914734,1.0,0.0,0.0,0.0,1.0,0.0,0.0,0.0,1.0,-1.05823706072,0.488417138672,-8.56645412456,1.0,0.0,0.0,0.0,1.0,0.0,0.0,0.0,1.0
1463562840324643557,847,1463562840230803919,,-0.104044042528,-2.07161021233,135.234832764,0.016495000571,1.0,0.0,0.0,0.0,1.0,0.0,0.0,0.0,1.0,-38.0487823486,12.3170728683,-24.0243911743,1.0,0.0,0.0,0.0,1.0,0.0,0.0,0.0,1.0,-0.972045874023,1.10133276367,-8.8872765625,1.0,0.0,0.0,0.0,1.0,0.0,0.0,0.0,1.0
